Task,trials.thisRepN,trials.thisTrialN,trials.thisN,trials.thisIndex,time_response_second,response_2IFCnew,response_key2Interval_2IFCnew,signal_intensity,constant Value,response,time_response,signal_on_stimuluspos1,signal_on_stimuluspos2,stimulus_name_pos1,stimulus_name_pos2,random_intensity,date,expName,session,participant,
2IFCnew,0,0,0,0,0.667359809158,4,Yes,6.7,-1,Miss,0.700173703022,True,False,stimulusHACA03_2IFCnew_2019_Jun_28_1519_1,stimulusHACA03_2IFCnew_2019_Jun_28_1519_2,True,2019_Jun_28_1519,2IFCnew,3,HACA03,
2IFCnew,1,0,1,0,0.533326874021,2,No,6.7,-1,False Alarm,0.700925827492,False,True,stimulusHACA03_2IFCnew_2019_Jun_28_1519_3,stimulusHACA03_2IFCnew_2019_Jun_28_1519_4,True,2019_Jun_28_1519,2IFCnew,3,HACA03,
2IFCnew,2,0,2,0,0.500508463942,1,No,2.7,-1,Hit,0.599622213515,True,False,stimulusHACA03_2IFCnew_2019_Jun_28_1519_5,stimulusHACA03_2IFCnew_2019_Jun_28_1519_6,True,2019_Jun_28_1519,2IFCnew,3,HACA03,
2IFCnew,3,0,3,0,0.501515128417,1,No,6.7,-1,Hit,0.599955989048,True,False,stimulusHACA03_2IFCnew_2019_Jun_28_1519_7,stimulusHACA03_2IFCnew_2019_Jun_28_1519_8,True,2019_Jun_28_1519,2IFCnew,3,HACA03,
2IFCnew,4,0,4,0,-1,0,No,6.7,-1,No Answer,-1,True,False,stimulusHACA03_2IFCnew_2019_Jun_28_1519_9,stimulusHACA03_2IFCnew_2019_Jun_28_1519_10,True,2019_Jun_28_1519,2IFCnew,3,HACA03,
2IFCnew,5,0,5,0,0.501126749674,4,Yes,9.8,-1,Miss,0.600832509808,True,False,stimulusHACA03_2IFCnew_2019_Jun_28_1519_11,stimulusHACA03_2IFCnew_2019_Jun_28_1519_12,True,2019_Jun_28_1519,2IFCnew,3,HACA03,
2IFCnew,6,0,6,0,0.600628877757,5,Yes,6.7,-1,False Alarm,0.50142070232,False,True,stimulusHACA03_2IFCnew_2019_Jun_28_1519_13,stimulusHACA03_2IFCnew_2019_Jun_28_1519_14,True,2019_Jun_28_1519,2IFCnew,3,HACA03,
2IFCnew,7,0,7,0,0.400310456753,1,No,11.1,-1,Hit,0.701902521774,True,False,stimulusHACA03_2IFCnew_2019_Jun_28_1519_15,stimulusHACA03_2IFCnew_2019_Jun_28_1519_16,True,2019_Jun_28_1519,2IFCnew,3,HACA03,
2IFCnew,8,0,8,0,0.567349011544,3,Yes,7.8,-1,Correct Rejection,0.733028651681,False,True,stimulusHACA03_2IFCnew_2019_Jun_28_1519_17,stimulusHACA03_2IFCnew_2019_Jun_28_1519_18,True,2019_Jun_28_1519,2IFCnew,3,HACA03,
2IFCnew,9,0,9,0,-1,1,Yes,7.8,-1,Hit,0.567312883213,True,False,stimulusHACA03_2IFCnew_2019_Jun_28_1519_19,stimulusHACA03_2IFCnew_2019_Jun_28_1519_20,True,2019_Jun_28_1519,2IFCnew,3,HACA03,
2IFCnew,10,0,10,0,-1,1,Yes,11.1,-1,Hit,0.467148541007,True,False,stimulusHACA03_2IFCnew_2019_Jun_28_1519_21,stimulusHACA03_2IFCnew_2019_Jun_28_1519_22,True,2019_Jun_28_1519,2IFCnew,3,HACA03,
2IFCnew,11,0,11,0,-1,1,Yes,9.8,-1,Hit,0.458735995693,True,False,stimulusHACA03_2IFCnew_2019_Jun_28_1519_23,stimulusHACA03_2IFCnew_2019_Jun_28_1519_24,True,2019_Jun_28_1519,2IFCnew,3,HACA03,
2IFCnew,12,0,12,0,-1,1,Yes,11.1,-1,Hit,0.467572226655,True,False,stimulusHACA03_2IFCnew_2019_Jun_28_1519_25,stimulusHACA03_2IFCnew_2019_Jun_28_1519_26,True,2019_Jun_28_1519,2IFCnew,3,HACA03,
2IFCnew,13,0,13,0,-1,0,Yes,6.7,-1,No Answer,-1,False,True,stimulusHACA03_2IFCnew_2019_Jun_28_1519_27,stimulusHACA03_2IFCnew_2019_Jun_28_1519_28,True,2019_Jun_28_1519,2IFCnew,3,HACA03,
2IFCnew,14,0,14,0,0.501152614364,1,No,8.8,-1,Hit,0.504955112701,True,False,stimulusHACA03_2IFCnew_2019_Jun_28_1519_29,stimulusHACA03_2IFCnew_2019_Jun_28_1519_30,True,2019_Jun_28_1519,2IFCnew,3,HACA03,
2IFCnew,15,0,15,0,0.533985393587,3,Yes,7.8,-1,Correct Rejection,0.833906116663,False,True,stimulusHACA03_2IFCnew_2019_Jun_28_1519_31,stimulusHACA03_2IFCnew_2019_Jun_28_1519_32,True,2019_Jun_28_1519,2IFCnew,3,HACA03,
2IFCnew,16,0,16,0,0.501688790275,1,No,2.7,-1,Hit,0.801502360497,True,False,stimulusHACA03_2IFCnew_2019_Jun_28_1519_33,stimulusHACA03_2IFCnew_2019_Jun_28_1519_34,True,2019_Jun_28_1519,2IFCnew,3,HACA03,
2IFCnew,17,0,17,0,0.66875362047,8,No,2.7,-1,Correct Rejection,0.736419370165,False,True,stimulusHACA03_2IFCnew_2019_Jun_28_1519_35,stimulusHACA03_2IFCnew_2019_Jun_28_1519_36,True,2019_Jun_28_1519,2IFCnew,3,HACA03,
2IFCnew,18,0,18,0,0.400652443292,2,No,5.7,-1,False Alarm,0.702304038219,False,True,stimulusHACA03_2IFCnew_2019_Jun_28_1519_37,stimulusHACA03_2IFCnew_2019_Jun_28_1519_38,True,2019_Jun_28_1519,2IFCnew,3,HACA03,
2IFCnew,19,0,19,0,0.567491882481,1,No,5.7,-1,Hit,0.56760929944,True,False,stimulusHACA03_2IFCnew_2019_Jun_28_1519_39,stimulusHACA03_2IFCnew_2019_Jun_28_1519_40,True,2019_Jun_28_1519,2IFCnew,3,HACA03,
2IFCnew,20,0,20,0,0.633991674753,8,No,2.7,-1,Correct Rejection,0.767474885564,False,True,stimulusHACA03_2IFCnew_2019_Jun_28_1519_41,stimulusHACA03_2IFCnew_2019_Jun_28_1519_42,True,2019_Jun_28_1519,2IFCnew,3,HACA03,
2IFCnew,21,0,21,0,0.43483592663,1,No,7.8,-1,Hit,0.800241977209,True,False,stimulusHACA03_2IFCnew_2019_Jun_28_1519_43,stimulusHACA03_2IFCnew_2019_Jun_28_1519_44,True,2019_Jun_28_1519,2IFCnew,3,HACA03,
2IFCnew,22,0,22,0,0.566752074286,1,No,7.8,-1,Hit,0.569154192461,True,False,stimulusHACA03_2IFCnew_2019_Jun_28_1519_45,stimulusHACA03_2IFCnew_2019_Jun_28_1519_46,True,2019_Jun_28_1519,2IFCnew,3,HACA03,
2IFCnew,23,0,23,0,0.400402419502,3,Yes,7.8,-1,Correct Rejection,0.57956569735,False,True,stimulusHACA03_2IFCnew_2019_Jun_28_1519_47,stimulusHACA03_2IFCnew_2019_Jun_28_1519_48,True,2019_Jun_28_1519,2IFCnew,3,HACA03,
2IFCnew,24,0,24,0,0.441042595543,1,No,6.7,-1,Hit,0.576876195613,True,False,stimulusHACA03_2IFCnew_2019_Jun_28_1519_49,stimulusHACA03_2IFCnew_2019_Jun_28_1519_50,True,2019_Jun_28_1519,2IFCnew,3,HACA03,
2IFCnew,25,0,25,0,0.604578352533,8,No,6.7,-1,Correct Rejection,0.567846596241,False,True,stimulusHACA03_2IFCnew_2019_Jun_28_1519_51,stimulusHACA03_2IFCnew_2019_Jun_28_1519_52,True,2019_Jun_28_1519,2IFCnew,3,HACA03,
2IFCnew,26,0,26,0,0.468249220867,3,Yes,8.8,-1,Correct Rejection,0.602351538604,False,True,stimulusHACA03_2IFCnew_2019_Jun_28_1519_53,stimulusHACA03_2IFCnew_2019_Jun_28_1519_54,True,2019_Jun_28_1519,2IFCnew,3,HACA03,
2IFCnew,27,0,27,0,0.466852125013,1,No,4.4,-1,Hit,0.734484456014,True,False,stimulusHACA03_2IFCnew_2019_Jun_28_1519_55,stimulusHACA03_2IFCnew_2019_Jun_28_1519_56,True,2019_Jun_28_1519,2IFCnew,3,HACA03,
2IFCnew,28,0,28,0,0.467347656609,3,Yes,11.1,-1,Correct Rejection,0.602181160823,False,True,stimulusHACA03_2IFCnew_2019_Jun_28_1519_57,stimulusHACA03_2IFCnew_2019_Jun_28_1519_58,True,2019_Jun_28_1519,2IFCnew,3,HACA03,
2IFCnew,29,0,29,0,0.201546371216,1,No,9.8,-1,Hit,0.536162120523,True,False,stimulusHACA03_2IFCnew_2019_Jun_28_1519_59,stimulusHACA03_2IFCnew_2019_Jun_28_1519_60,True,2019_Jun_28_1519,2IFCnew,3,HACA03,
2IFCnew,30,0,30,0,0.500487936661,3,Yes,11.1,-1,Correct Rejection,0.565703123342,False,True,stimulusHACA03_2IFCnew_2019_Jun_28_1519_61,stimulusHACA03_2IFCnew_2019_Jun_28_1519_62,True,2019_Jun_28_1519,2IFCnew,3,HACA03,
2IFCnew,31,0,31,0,0.502685601823,3,Yes,8.8,-1,Correct Rejection,0.535269999178,False,True,stimulusHACA03_2IFCnew_2019_Jun_28_1519_63,stimulusHACA03_2IFCnew_2019_Jun_28_1519_64,True,2019_Jun_28_1519,2IFCnew,3,HACA03,
2IFCnew,32,0,32,0,0.535555740586,3,Yes,2.7,-1,Correct Rejection,0.467446188442,False,True,stimulusHACA03_2IFCnew_2019_Jun_28_1519_65,stimulusHACA03_2IFCnew_2019_Jun_28_1519_66,True,2019_Jun_28_1519,2IFCnew,3,HACA03,
2IFCnew,33,0,33,0,0.534330664435,6,No,6.7,-1,Miss,0.602904547006,True,False,stimulusHACA03_2IFCnew_2019_Jun_28_1519_67,stimulusHACA03_2IFCnew_2019_Jun_28_1519_68,True,2019_Jun_28_1519,2IFCnew,3,HACA03,
2IFCnew,34,0,34,0,0.433433493366,1,No,7.8,-1,Hit,0.568013278767,True,False,stimulusHACA03_2IFCnew_2019_Jun_28_1519_69,stimulusHACA03_2IFCnew_2019_Jun_28_1519_70,True,2019_Jun_28_1519,2IFCnew,3,HACA03,
2IFCnew,35,0,35,0,0.601968907518,3,Yes,4.4,-1,Correct Rejection,0.566929020686,False,True,stimulusHACA03_2IFCnew_2019_Jun_28_1519_71,stimulusHACA03_2IFCnew_2019_Jun_28_1519_72,True,2019_Jun_28_1519,2IFCnew,3,HACA03,
2IFCnew,36,0,36,0,0.429463491309,1,No,6.7,-1,Hit,0.593060830608,True,False,stimulusHACA03_2IFCnew_2019_Jun_28_1519_73,stimulusHACA03_2IFCnew_2019_Jun_28_1519_74,True,2019_Jun_28_1519,2IFCnew,3,HACA03,
2IFCnew,37,0,37,0,0.434240220813,1,No,6.7,-1,Hit,0.563493552385,True,False,stimulusHACA03_2IFCnew_2019_Jun_28_1519_75,stimulusHACA03_2IFCnew_2019_Jun_28_1519_76,True,2019_Jun_28_1519,2IFCnew,3,HACA03,
2IFCnew,38,0,38,0,0.400157322176,1,No,8.8,-1,Hit,0.567441795487,True,False,stimulusHACA03_2IFCnew_2019_Jun_28_1519_77,stimulusHACA03_2IFCnew_2019_Jun_28_1519_78,True,2019_Jun_28_1519,2IFCnew,3,HACA03,
2IFCnew,39,0,39,0,0.400431568502,1,No,6.7,-1,Hit,0.500624649227,True,False,stimulusHACA03_2IFCnew_2019_Jun_28_1519_79,stimulusHACA03_2IFCnew_2019_Jun_28_1519_80,True,2019_Jun_28_1519,2IFCnew,3,HACA03,
2IFCnew,40,0,40,0,0.400397903519,3,Yes,8.8,-1,Correct Rejection,0.635520556709,False,True,stimulusHACA03_2IFCnew_2019_Jun_28_1519_81,stimulusHACA03_2IFCnew_2019_Jun_28_1519_82,True,2019_Jun_28_1519,2IFCnew,3,HACA03,
2IFCnew,41,0,41,0,0.434078875463,1,No,5.7,-1,Hit,0.767772943713,True,False,stimulusHACA03_2IFCnew_2019_Jun_28_1519_83,stimulusHACA03_2IFCnew_2019_Jun_28_1519_84,True,2019_Jun_28_1519,2IFCnew,3,HACA03,
2IFCnew,42,0,42,0,0.434263211442,1,No,7.8,-1,Hit,0.502965185093,True,False,stimulusHACA03_2IFCnew_2019_Jun_28_1519_85,stimulusHACA03_2IFCnew_2019_Jun_28_1519_86,True,2019_Jun_28_1519,2IFCnew,3,HACA03,
2IFCnew,43,0,43,0,0.371422225377,2,No,8.8,-1,False Alarm,0.567470123526,False,True,stimulusHACA03_2IFCnew_2019_Jun_28_1519_87,stimulusHACA03_2IFCnew_2019_Jun_28_1519_88,True,2019_Jun_28_1519,2IFCnew,3,HACA03,
2IFCnew,44,0,44,0,0.500893147895,3,Yes,5.7,-1,Correct Rejection,0.56643800484,False,True,stimulusHACA03_2IFCnew_2019_Jun_28_1519_89,stimulusHACA03_2IFCnew_2019_Jun_28_1519_90,True,2019_Jun_28_1519,2IFCnew,3,HACA03,
2IFCnew,45,0,45,0,0.437940903241,1,No,7.8,-1,Hit,0.501128802542,True,False,stimulusHACA03_2IFCnew_2019_Jun_28_1519_91,stimulusHACA03_2IFCnew_2019_Jun_28_1519_92,True,2019_Jun_28_1519,2IFCnew,3,HACA03,
2IFCnew,46,0,46,0,0.667663204251,6,No,5.7,-1,Miss,0.735459918622,True,False,stimulusHACA03_2IFCnew_2019_Jun_28_1519_93,stimulusHACA03_2IFCnew_2019_Jun_28_1519_94,True,2019_Jun_28_1519,2IFCnew,3,HACA03,
2IFCnew,47,0,47,0,0.600359968841,3,Yes,2.7,-1,Correct Rejection,0.60086535383,False,True,stimulusHACA03_2IFCnew_2019_Jun_28_1519_95,stimulusHACA03_2IFCnew_2019_Jun_28_1519_96,True,2019_Jun_28_1519,2IFCnew,3,HACA03,
2IFCnew,48,0,48,0,0.469265738502,3,Yes,6.7,-1,Correct Rejection,0.501421523513,False,True,stimulusHACA03_2IFCnew_2019_Jun_28_1519_97,stimulusHACA03_2IFCnew_2019_Jun_28_1519_98,True,2019_Jun_28_1519,2IFCnew,3,HACA03,
2IFCnew,49,0,49,0,0.435330226552,3,Yes,6.7,-1,Correct Rejection,0.535719549516,False,True,stimulusHACA03_2IFCnew_2019_Jun_28_1519_99,stimulusHACA03_2IFCnew_2019_Jun_28_1519_100,True,2019_Jun_28_1519,2IFCnew,3,HACA03,
2IFCnew,50,0,50,0,0.36729046749,1,No,8.8,-1,Hit,0.590848385822,True,False,stimulusHACA03_2IFCnew_2019_Jun_28_1519_101,stimulusHACA03_2IFCnew_2019_Jun_28_1519_102,True,2019_Jun_28_1519,2IFCnew,3,HACA03,
2IFCnew,51,0,51,0,0.467244609026,3,Yes,4.4,-1,Correct Rejection,0.534470251063,False,True,stimulusHACA03_2IFCnew_2019_Jun_28_1519_103,stimulusHACA03_2IFCnew_2019_Jun_28_1519_104,True,2019_Jun_28_1519,2IFCnew,3,HACA03,
2IFCnew,52,0,52,0,0.400289929006,1,No,2.7,-1,Hit,0.569349613506,True,False,stimulusHACA03_2IFCnew_2019_Jun_28_1519_105,stimulusHACA03_2IFCnew_2019_Jun_28_1519_106,True,2019_Jun_28_1519,2IFCnew,3,HACA03,
2IFCnew,53,0,53,0,0.668130818754,8,No,4.4,-1,Correct Rejection,0.665736090392,False,True,stimulusHACA03_2IFCnew_2019_Jun_28_1519_107,stimulusHACA03_2IFCnew_2019_Jun_28_1519_108,True,2019_Jun_28_1519,2IFCnew,3,HACA03,
2IFCnew,54,0,54,0,0.432756088674,3,Yes,9.8,-1,Correct Rejection,0.669091912219,False,True,stimulusHACA03_2IFCnew_2019_Jun_28_1519_109,stimulusHACA03_2IFCnew_2019_Jun_28_1519_110,True,2019_Jun_28_1519,2IFCnew,3,HACA03,
2IFCnew,55,0,55,0,0.579158022767,3,Yes,4.4,-1,Correct Rejection,0.499994046986,False,True,stimulusHACA03_2IFCnew_2019_Jun_28_1519_111,stimulusHACA03_2IFCnew_2019_Jun_28_1519_112,True,2019_Jun_28_1519,2IFCnew,3,HACA03,
2IFCnew,56,0,56,0,0.462916198419,1,No,8.8,-1,Hit,0.533827332547,True,False,stimulusHACA03_2IFCnew_2019_Jun_28_1519_113,stimulusHACA03_2IFCnew_2019_Jun_28_1519_114,True,2019_Jun_28_1519,2IFCnew,3,HACA03,
2IFCnew,57,0,57,0,0.601049279561,3,Yes,2.7,-1,Correct Rejection,0.535250292858,False,True,stimulusHACA03_2IFCnew_2019_Jun_28_1519_115,stimulusHACA03_2IFCnew_2019_Jun_28_1519_116,True,2019_Jun_28_1519,2IFCnew,3,HACA03,
2IFCnew,58,0,58,0,0.433405576274,2,No,2.7,-1,False Alarm,0.567352295853,False,True,stimulusHACA03_2IFCnew_2019_Jun_28_1519_117,stimulusHACA03_2IFCnew_2019_Jun_28_1519_118,True,2019_Jun_28_1519,2IFCnew,3,HACA03,
2IFCnew,59,0,59,0,0.265481468523,1,No,9.8,-1,Hit,0.535185015528,True,False,stimulusHACA03_2IFCnew_2019_Jun_28_1519_119,stimulusHACA03_2IFCnew_2019_Jun_28_1519_120,True,2019_Jun_28_1519,2IFCnew,3,HACA03,
2IFCnew,60,0,60,0,0.40082241036,1,No,4.4,-1,Hit,0.568805636838,True,False,stimulusHACA03_2IFCnew_2019_Jun_28_1519_121,stimulusHACA03_2IFCnew_2019_Jun_28_1519_122,True,2019_Jun_28_1519,2IFCnew,3,HACA03,
2IFCnew,61,0,61,0,0.5018152392,6,No,5.7,-1,Miss,0.669164579362,True,False,stimulusHACA03_2IFCnew_2019_Jun_28_1519_123,stimulusHACA03_2IFCnew_2019_Jun_28_1519_124,True,2019_Jun_28_1519,2IFCnew,3,HACA03,
2IFCnew,62,0,62,0,0.401969892904,1,No,11.1,-1,Hit,0.599377937382,True,False,stimulusHACA03_2IFCnew_2019_Jun_28_1519_125,stimulusHACA03_2IFCnew_2019_Jun_28_1519_126,True,2019_Jun_28_1519,2IFCnew,3,HACA03,
2IFCnew,63,0,63,0,0.569398879306,6,No,7.8,-1,Miss,0.601672902238,True,False,stimulusHACA03_2IFCnew_2019_Jun_28_1519_127,stimulusHACA03_2IFCnew_2019_Jun_28_1519_128,True,2019_Jun_28_1519,2IFCnew,3,HACA03,
2IFCnew,64,0,64,0,0.436149680987,1,No,8.8,-1,Hit,0.610690595582,True,False,stimulusHACA03_2IFCnew_2019_Jun_28_1519_129,stimulusHACA03_2IFCnew_2019_Jun_28_1519_130,True,2019_Jun_28_1519,2IFCnew,3,HACA03,
2IFCnew,65,0,65,0,0.564249371877,3,Yes,9.8,-1,Correct Rejection,0.567905304721,False,True,stimulusHACA03_2IFCnew_2019_Jun_28_1519_131,stimulusHACA03_2IFCnew_2019_Jun_28_1519_132,True,2019_Jun_28_1519,2IFCnew,3,HACA03,
2IFCnew,66,0,66,0,0.501639935188,3,Yes,9.8,-1,Correct Rejection,0.499707484385,False,True,stimulusHACA03_2IFCnew_2019_Jun_28_1519_133,stimulusHACA03_2IFCnew_2019_Jun_28_1519_134,True,2019_Jun_28_1519,2IFCnew,3,HACA03,
2IFCnew,67,0,67,0,0.433845273219,3,Yes,9.8,-1,Correct Rejection,0.469131489052,False,True,stimulusHACA03_2IFCnew_2019_Jun_28_1519_135,stimulusHACA03_2IFCnew_2019_Jun_28_1519_136,True,2019_Jun_28_1519,2IFCnew,3,HACA03,
2IFCnew,68,0,68,0,0.468521414325,5,Yes,8.8,-1,False Alarm,0.569110263838,False,True,stimulusHACA03_2IFCnew_2019_Jun_28_1519_137,stimulusHACA03_2IFCnew_2019_Jun_28_1519_138,True,2019_Jun_28_1519,2IFCnew,3,HACA03,
2IFCnew,69,0,69,0,0.666512026684,3,Yes,4.4,-1,Correct Rejection,0.536564457929,False,True,stimulusHACA03_2IFCnew_2019_Jun_28_1519_139,stimulusHACA03_2IFCnew_2019_Jun_28_1519_140,True,2019_Jun_28_1519,2IFCnew,3,HACA03,
2IFCnew,70,0,70,0,0.434020166984,1,No,11.1,-1,Hit,0.503893845482,True,False,stimulusHACA03_2IFCnew_2019_Jun_28_1519_141,stimulusHACA03_2IFCnew_2019_Jun_28_1519_142,True,2019_Jun_28_1519,2IFCnew,3,HACA03,
2IFCnew,71,0,71,0,0.43439705018,1,No,8.8,-1,Hit,0.434143742081,True,False,stimulusHACA03_2IFCnew_2019_Jun_28_1519_143,stimulusHACA03_2IFCnew_2019_Jun_28_1519_144,True,2019_Jun_28_1519,2IFCnew,3,HACA03,
2IFCnew,72,0,72,0,0.401050675195,1,No,5.7,-1,Hit,0.4752437321,True,False,stimulusHACA03_2IFCnew_2019_Jun_28_1519_145,stimulusHACA03_2IFCnew_2019_Jun_28_1519_146,True,2019_Jun_28_1519,2IFCnew,3,HACA03,
2IFCnew,73,0,73,0,0.532913041534,5,Yes,11.1,-1,False Alarm,0.502236051485,False,True,stimulusHACA03_2IFCnew_2019_Jun_28_1519_147,stimulusHACA03_2IFCnew_2019_Jun_28_1519_148,True,2019_Jun_28_1519,2IFCnew,3,HACA03,
2IFCnew,74,0,74,0,0.37616898492,3,Yes,5.7,-1,Correct Rejection,0.467951162718,False,True,stimulusHACA03_2IFCnew_2019_Jun_28_1519_149,stimulusHACA03_2IFCnew_2019_Jun_28_1519_150,True,2019_Jun_28_1519,2IFCnew,3,HACA03,
2IFCnew,0,0,0,0,0.533750559902,6,No,11.1,-1,Miss,0.600812803488,True,False,stimulusHACA03_2IFCnew_2019_Jun_28_1519_151,stimulusHACA03_2IFCnew_2019_Jun_28_1519_152,True,2019_Jun_28_1519,2IFCnew,3,HACA03,
2IFCnew,1,0,1,0,0.433566921623,1,No,9.8,-1,Hit,0.53431793768,True,False,stimulusHACA03_2IFCnew_2019_Jun_28_1519_153,stimulusHACA03_2IFCnew_2019_Jun_28_1519_154,True,2019_Jun_28_1519,2IFCnew,3,HACA03,
2IFCnew,2,0,2,0,0.501059009228,5,Yes,9.8,-1,False Alarm,0.467318918323,False,True,stimulusHACA03_2IFCnew_2019_Jun_28_1519_155,stimulusHACA03_2IFCnew_2019_Jun_28_1519_156,True,2019_Jun_28_1519,2IFCnew,3,HACA03,
2IFCnew,3,0,3,0,0.467690875288,1,No,8.8,-1,Hit,0.663209576393,True,False,stimulusHACA03_2IFCnew_2019_Jun_28_1519_157,stimulusHACA03_2IFCnew_2019_Jun_28_1519_158,True,2019_Jun_28_1519,2IFCnew,3,HACA03,
2IFCnew,4,0,4,0,0.66740045324,6,No,4.4,-1,Miss,0.703669932205,True,False,stimulusHACA03_2IFCnew_2019_Jun_28_1519_159,stimulusHACA03_2IFCnew_2019_Jun_28_1519_160,True,2019_Jun_28_1519,2IFCnew,3,HACA03,
2IFCnew,5,0,5,0,0.534458755748,2,No,2.7,-1,False Alarm,0.569526149193,False,True,stimulusHACA03_2IFCnew_2019_Jun_28_1519_161,stimulusHACA03_2IFCnew_2019_Jun_28_1519_162,True,2019_Jun_28_1519,2IFCnew,3,HACA03,
2IFCnew,6,0,6,0,0.467612870969,3,Yes,6.7,-1,Correct Rejection,0.500899306033,False,True,stimulusHACA03_2IFCnew_2019_Jun_28_1519_163,stimulusHACA03_2IFCnew_2019_Jun_28_1519_164,True,2019_Jun_28_1519,2IFCnew,3,HACA03,
2IFCnew,7,0,7,0,-1,1,Yes,8.8,-1,Hit,0.496517524123,True,False,stimulusHACA03_2IFCnew_2019_Jun_28_1519_165,stimulusHACA03_2IFCnew_2019_Jun_28_1519_166,True,2019_Jun_28_1519,2IFCnew,3,HACA03,
2IFCnew,8,0,8,0,-1,1,Yes,8.8,-1,Hit,0.533069460187,True,False,stimulusHACA03_2IFCnew_2019_Jun_28_1519_167,stimulusHACA03_2IFCnew_2019_Jun_28_1519_168,True,2019_Jun_28_1519,2IFCnew,3,HACA03,
2IFCnew,9,0,9,0,0.57602471835,3,Yes,2.7,-1,Correct Rejection,0.500622596359,False,True,stimulusHACA03_2IFCnew_2019_Jun_28_1519_169,stimulusHACA03_2IFCnew_2019_Jun_28_1519_170,True,2019_Jun_28_1519,2IFCnew,3,HACA03,
2IFCnew,10,0,10,0,0.433878938435,3,Yes,9.8,-1,Correct Rejection,0.469293245347,False,True,stimulusHACA03_2IFCnew_2019_Jun_28_1519_171,stimulusHACA03_2IFCnew_2019_Jun_28_1519_172,True,2019_Jun_28_1519,2IFCnew,3,HACA03,
2IFCnew,11,0,11,0,0.500032227952,1,No,7.8,-1,Hit,0.567647890653,True,False,stimulusHACA03_2IFCnew_2019_Jun_28_1519_173,stimulusHACA03_2IFCnew_2019_Jun_28_1519_174,True,2019_Jun_28_1519,2IFCnew,3,HACA03,
2IFCnew,12,0,12,0,0.467800491722,1,No,9.8,-1,Hit,0.500843471615,True,False,stimulusHACA03_2IFCnew_2019_Jun_28_1519_175,stimulusHACA03_2IFCnew_2019_Jun_28_1519_176,True,2019_Jun_28_1519,2IFCnew,3,HACA03,
2IFCnew,13,0,13,0,0.667368019931,3,Yes,5.7,-1,Correct Rejection,0.7583389543,False,True,stimulusHACA03_2IFCnew_2019_Jun_28_1519_177,stimulusHACA03_2IFCnew_2019_Jun_28_1519_178,True,2019_Jun_28_1519,2IFCnew,3,HACA03,
2IFCnew,14,0,14,0,0.567622026196,3,Yes,7.8,-1,Correct Rejection,0.502263558097,False,True,stimulusHACA03_2IFCnew_2019_Jun_28_1519_179,stimulusHACA03_2IFCnew_2019_Jun_28_1519_180,True,2019_Jun_28_1519,2IFCnew,3,HACA03,
2IFCnew,15,0,15,0,0.434016061481,1,No,11.1,-1,Hit,0.604557003826,True,False,stimulusHACA03_2IFCnew_2019_Jun_28_1519_181,stimulusHACA03_2IFCnew_2019_Jun_28_1519_182,True,2019_Jun_28_1519,2IFCnew,3,HACA03,
2IFCnew,16,0,16,0,-1,0,No,11.1,-1,No Answer,-1,False,True,stimulusHACA03_2IFCnew_2019_Jun_28_1519_183,stimulusHACA03_2IFCnew_2019_Jun_28_1519_184,True,2019_Jun_28_1519,2IFCnew,3,HACA03,
2IFCnew,17,0,17,0,0.534325327491,1,No,6.7,-1,Hit,0.432574215811,True,False,stimulusHACA03_2IFCnew_2019_Jun_28_1519_185,stimulusHACA03_2IFCnew_2019_Jun_28_1519_186,True,2019_Jun_28_1519,2IFCnew,3,HACA03,
2IFCnew,18,0,18,0,0.502833399223,4,Yes,4.4,-1,Miss,0.73356975452,True,False,stimulusHACA03_2IFCnew_2019_Jun_28_1519_187,stimulusHACA03_2IFCnew_2019_Jun_28_1519_188,True,2019_Jun_28_1519,2IFCnew,3,HACA03,
2IFCnew,19,0,19,0,0.500908748712,2,No,2.7,-1,False Alarm,0.666269392706,False,True,stimulusHACA03_2IFCnew_2019_Jun_28_1519_189,stimulusHACA03_2IFCnew_2019_Jun_28_1519_190,True,2019_Jun_28_1519,2IFCnew,3,HACA03,
2IFCnew,20,0,20,0,0.467508591712,5,Yes,11.1,-1,False Alarm,0.57295094314,False,True,stimulusHACA03_2IFCnew_2019_Jun_28_1519_191,stimulusHACA03_2IFCnew_2019_Jun_28_1519_192,True,2019_Jun_28_1519,2IFCnew,3,HACA03,
2IFCnew,21,0,21,0,0.606607692782,6,No,2.7,-1,Miss,0.601313672494,True,False,stimulusHACA03_2IFCnew_2019_Jun_28_1519_193,stimulusHACA03_2IFCnew_2019_Jun_28_1519_194,True,2019_Jun_28_1519,2IFCnew,3,HACA03,
2IFCnew,22,0,22,0,0.468106760643,4,Yes,6.7,-1,Miss,0.637311368482,True,False,stimulusHACA03_2IFCnew_2019_Jun_28_1519_195,stimulusHACA03_2IFCnew_2019_Jun_28_1519_196,True,2019_Jun_28_1519,2IFCnew,3,HACA03,
2IFCnew,23,0,23,0,0.467532814248,5,Yes,9.8,-1,False Alarm,0.500066303648,False,True,stimulusHACA03_2IFCnew_2019_Jun_28_1519_197,stimulusHACA03_2IFCnew_2019_Jun_28_1519_198,True,2019_Jun_28_1519,2IFCnew,3,HACA03,
2IFCnew,24,0,24,0,0.601677418221,3,Yes,2.7,-1,Correct Rejection,0.609794368502,False,True,stimulusHACA03_2IFCnew_2019_Jun_28_1519_199,stimulusHACA03_2IFCnew_2019_Jun_28_1519_200,True,2019_Jun_28_1519,2IFCnew,3,HACA03,
2IFCnew,25,0,25,0,0.60083538387,3,Yes,4.4,-1,Correct Rejection,0.663473969325,False,True,stimulusHACA03_2IFCnew_2019_Jun_28_1519_201,stimulusHACA03_2IFCnew_2019_Jun_28_1519_202,True,2019_Jun_28_1519,2IFCnew,3,HACA03,
2IFCnew,26,0,26,0,0.567553464789,5,Yes,5.7,-1,False Alarm,0.439324040432,False,True,stimulusHACA03_2IFCnew_2019_Jun_28_1519_203,stimulusHACA03_2IFCnew_2019_Jun_28_1519_204,True,2019_Jun_28_1519,2IFCnew,3,HACA03,
2IFCnew,27,0,27,0,0.440085607581,5,Yes,8.8,-1,False Alarm,0.469938627211,False,True,stimulusHACA03_2IFCnew_2019_Jun_28_1519_205,stimulusHACA03_2IFCnew_2019_Jun_28_1519_206,True,2019_Jun_28_1519,2IFCnew,3,HACA03,
2IFCnew,28,0,28,0,0.573751512449,8,No,4.4,-1,Correct Rejection,0.467610818334,False,True,stimulusHACA03_2IFCnew_2019_Jun_28_1519_207,stimulusHACA03_2IFCnew_2019_Jun_28_1519_208,True,2019_Jun_28_1519,2IFCnew,3,HACA03,
2IFCnew,29,0,29,0,0.433734836057,3,Yes,6.7,-1,Correct Rejection,0.500684999861,False,True,stimulusHACA03_2IFCnew_2019_Jun_28_1519_209,stimulusHACA03_2IFCnew_2019_Jun_28_1519_210,True,2019_Jun_28_1519,2IFCnew,3,HACA03,
2IFCnew,30,0,30,0,0.433859642362,3,Yes,4.4,-1,Correct Rejection,0.500872620381,False,True,stimulusHACA03_2IFCnew_2019_Jun_28_1519_211,stimulusHACA03_2IFCnew_2019_Jun_28_1519_212,True,2019_Jun_28_1519,2IFCnew,3,HACA03,
2IFCnew,31,0,31,0,0.367883299245,3,Yes,2.7,-1,Correct Rejection,0.465515790274,False,True,stimulusHACA03_2IFCnew_2019_Jun_28_1519_213,stimulusHACA03_2IFCnew_2019_Jun_28_1519_214,True,2019_Jun_28_1519,2IFCnew,3,HACA03,
2IFCnew,32,0,32,0,0.505242086016,1,No,11.1,-1,Hit,0.535240028985,True,False,stimulusHACA03_2IFCnew_2019_Jun_28_1519_215,stimulusHACA03_2IFCnew_2019_Jun_28_1519_216,True,2019_Jun_28_1519,2IFCnew,3,HACA03,
2IFCnew,33,0,33,0,0.463053731946,1,No,7.8,-1,Hit,0.599992117612,True,False,stimulusHACA03_2IFCnew_2019_Jun_28_1519_217,stimulusHACA03_2IFCnew_2019_Jun_28_1519_218,True,2019_Jun_28_1519,2IFCnew,3,HACA03,
2IFCnew,34,0,34,0,0.703830456594,5,Yes,5.7,-1,False Alarm,0.569141875952,False,True,stimulusHACA03_2IFCnew_2019_Jun_28_1519_219,stimulusHACA03_2IFCnew_2019_Jun_28_1519_220,True,2019_Jun_28_1519,2IFCnew,3,HACA03,
2IFCnew,35,0,35,0,0.50136158336,1,No,11.1,-1,Hit,0.567417162703,True,False,stimulusHACA03_2IFCnew_2019_Jun_28_1519_221,stimulusHACA03_2IFCnew_2019_Jun_28_1519_222,True,2019_Jun_28_1519,2IFCnew,3,HACA03,
2IFCnew,36,0,36,0,0.568108525826,1,No,11.1,-1,Hit,0.501165751833,True,False,stimulusHACA03_2IFCnew_2019_Jun_28_1519_223,stimulusHACA03_2IFCnew_2019_Jun_28_1519_224,True,2019_Jun_28_1519,2IFCnew,3,HACA03,
2IFCnew,37,0,37,0,0.469253011281,1,No,4.4,-1,Hit,0.467538151192,True,False,stimulusHACA03_2IFCnew_2019_Jun_28_1519_225,stimulusHACA03_2IFCnew_2019_Jun_28_1519_226,True,2019_Jun_28_1519,2IFCnew,3,HACA03,
2IFCnew,38,0,38,0,0.433490970172,1,No,7.8,-1,Hit,0.568441891111,True,False,stimulusHACA03_2IFCnew_2019_Jun_28_1519_227,stimulusHACA03_2IFCnew_2019_Jun_28_1519_228,True,2019_Jun_28_1519,2IFCnew,3,HACA03,
2IFCnew,39,0,39,0,0.434064506087,3,Yes,11.1,-1,Correct Rejection,0.53259691922,False,True,stimulusHACA03_2IFCnew_2019_Jun_28_1519_229,stimulusHACA03_2IFCnew_2019_Jun_28_1519_230,True,2019_Jun_28_1519,2IFCnew,3,HACA03,
2IFCnew,40,0,40,0,0.401064223377,1,No,11.1,-1,Hit,0.568136853864,True,False,stimulusHACA03_2IFCnew_2019_Jun_28_1519_231,stimulusHACA03_2IFCnew_2019_Jun_28_1519_232,True,2019_Jun_28_1519,2IFCnew,3,HACA03,
2IFCnew,41,0,41,0,0.394461374963,3,Yes,11.1,-1,Correct Rejection,0.469257117016,False,True,stimulusHACA03_2IFCnew_2019_Jun_28_1519_233,stimulusHACA03_2IFCnew_2019_Jun_28_1519_234,True,2019_Jun_28_1519,2IFCnew,3,HACA03,
2IFCnew,42,0,42,0,0.501274136594,6,No,2.7,-1,Miss,0.434083801927,True,False,stimulusHACA03_2IFCnew_2019_Jun_28_1519_235,stimulusHACA03_2IFCnew_2019_Jun_28_1519_236,True,2019_Jun_28_1519,2IFCnew,3,HACA03,
2IFCnew,43,0,43,0,0.401266213274,3,Yes,9.8,-1,Correct Rejection,0.467179742642,False,True,stimulusHACA03_2IFCnew_2019_Jun_28_1519_237,stimulusHACA03_2IFCnew_2019_Jun_28_1519_238,True,2019_Jun_28_1519,2IFCnew,3,HACA03,
2IFCnew,44,0,44,0,0.405278912047,8,No,4.4,-1,Correct Rejection,0.532448300626,False,True,stimulusHACA03_2IFCnew_2019_Jun_28_1519_239,stimulusHACA03_2IFCnew_2019_Jun_28_1519_240,True,2019_Jun_28_1519,2IFCnew,3,HACA03,
2IFCnew,45,0,45,0,0.333128743339,3,Yes,11.1,-1,Correct Rejection,0.434106382076,False,True,stimulusHACA03_2IFCnew_2019_Jun_28_1519_241,stimulusHACA03_2IFCnew_2019_Jun_28_1519_242,True,2019_Jun_28_1519,2IFCnew,3,HACA03,
2IFCnew,46,0,46,0,0.4337783542,3,Yes,9.8,-1,Correct Rejection,0.468394144438,False,True,stimulusHACA03_2IFCnew_2019_Jun_28_1519_243,stimulusHACA03_2IFCnew_2019_Jun_28_1519_244,True,2019_Jun_28_1519,2IFCnew,3,HACA03,
2IFCnew,47,0,47,0,0.40357144177,3,Yes,5.7,-1,Correct Rejection,0.401058065007,False,True,stimulusHACA03_2IFCnew_2019_Jun_28_1519_245,stimulusHACA03_2IFCnew_2019_Jun_28_1519_246,True,2019_Jun_28_1519,2IFCnew,3,HACA03,
2IFCnew,48,0,48,0,0.533710736781,6,No,2.7,-1,Miss,0.434455348179,True,False,stimulusHACA03_2IFCnew_2019_Jun_28_1519_247,stimulusHACA03_2IFCnew_2019_Jun_28_1519_248,True,2019_Jun_28_1519,2IFCnew,3,HACA03,
2IFCnew,49,0,49,0,0.434214356355,1,No,7.8,-1,Hit,0.532590760849,True,False,stimulusHACA03_2IFCnew_2019_Jun_28_1519_249,stimulusHACA03_2IFCnew_2019_Jun_28_1519_250,True,2019_Jun_28_1519,2IFCnew,3,HACA03,
2IFCnew,50,0,50,0,0.39956818521,1,No,7.8,-1,Hit,0.63502133009,True,False,stimulusHACA03_2IFCnew_2019_Jun_28_1519_251,stimulusHACA03_2IFCnew_2019_Jun_28_1519_252,True,2019_Jun_28_1519,2IFCnew,3,HACA03,
2IFCnew,51,0,51,0,0.300713081378,1,No,9.8,-1,Hit,0.501196953468,True,False,stimulusHACA03_2IFCnew_2019_Jun_28_1519_253,stimulusHACA03_2IFCnew_2019_Jun_28_1519_254,True,2019_Jun_28_1519,2IFCnew,3,HACA03,
2IFCnew,52,0,52,0,0.444207923021,8,No,6.7,-1,Correct Rejection,0.468770617386,False,True,stimulusHACA03_2IFCnew_2019_Jun_28_1519_255,stimulusHACA03_2IFCnew_2019_Jun_28_1519_256,True,2019_Jun_28_1519,2IFCnew,3,HACA03,
2IFCnew,53,0,53,0,0.501855473034,6,No,4.4,-1,Miss,0.533918884816,True,False,stimulusHACA03_2IFCnew_2019_Jun_28_1519_257,stimulusHACA03_2IFCnew_2019_Jun_28_1519_258,True,2019_Jun_28_1519,2IFCnew,3,HACA03,
2IFCnew,54,0,54,0,0.467600554693,8,No,4.4,-1,Correct Rejection,0.500883294735,False,True,stimulusHACA03_2IFCnew_2019_Jun_28_1519_259,stimulusHACA03_2IFCnew_2019_Jun_28_1519_260,True,2019_Jun_28_1519,2IFCnew,3,HACA03,
2IFCnew,55,0,55,0,0.534566319315,3,Yes,7.8,-1,Correct Rejection,0.467524192529,False,True,stimulusHACA03_2IFCnew_2019_Jun_28_1519_261,stimulusHACA03_2IFCnew_2019_Jun_28_1519_262,True,2019_Jun_28_1519,2IFCnew,3,HACA03,
2IFCnew,56,0,56,0,0.534083514474,8,No,2.7,-1,Correct Rejection,0.43406861159,False,True,stimulusHACA03_2IFCnew_2019_Jun_28_1519_263,stimulusHACA03_2IFCnew_2019_Jun_28_1519_264,True,2019_Jun_28_1519,2IFCnew,3,HACA03,
2IFCnew,57,0,57,0,0.604747087695,3,Yes,7.8,-1,Correct Rejection,0.468496371061,False,True,stimulusHACA03_2IFCnew_2019_Jun_28_1519_265,stimulusHACA03_2IFCnew_2019_Jun_28_1519_266,True,2019_Jun_28_1519,2IFCnew,3,HACA03,
2IFCnew,58,0,58,0,0.367627938045,1,No,11.1,-1,Hit,0.501048335107,True,False,stimulusHACA03_2IFCnew_2019_Jun_28_1519_267,stimulusHACA03_2IFCnew_2019_Jun_28_1519_268,True,2019_Jun_28_1519,2IFCnew,3,HACA03,
2IFCnew,59,0,59,0,0.436259707902,3,Yes,8.8,-1,Correct Rejection,0.501827966422,False,True,stimulusHACA03_2IFCnew_2019_Jun_28_1519_269,stimulusHACA03_2IFCnew_2019_Jun_28_1519_270,True,2019_Jun_28_1519,2IFCnew,3,HACA03,
2IFCnew,60,0,60,0,0.433862516424,1,No,11.1,-1,Hit,0.666420884896,True,False,stimulusHACA03_2IFCnew_2019_Jun_28_1519_271,stimulusHACA03_2IFCnew_2019_Jun_28_1519_272,True,2019_Jun_28_1519,2IFCnew,3,HACA03,
2IFCnew,61,0,61,0,0.400629452663,1,No,4.4,-1,Hit,0.569843092468,True,False,stimulusHACA03_2IFCnew_2019_Jun_28_1519_273,stimulusHACA03_2IFCnew_2019_Jun_28_1519_274,True,2019_Jun_28_1519,2IFCnew,3,HACA03,
2IFCnew,62,0,62,0,0.599695290904,1,No,4.4,-1,Hit,0.53502695472,True,False,stimulusHACA03_2IFCnew_2019_Jun_28_1519_275,stimulusHACA03_2IFCnew_2019_Jun_28_1519_276,True,2019_Jun_28_1519,2IFCnew,3,HACA03,
2IFCnew,63,0,63,0,0.432592279743,1,No,8.8,-1,Hit,0.52380749071,True,False,stimulusHACA03_2IFCnew_2019_Jun_28_1519_277,stimulusHACA03_2IFCnew_2019_Jun_28_1519_278,True,2019_Jun_28_1519,2IFCnew,3,HACA03,
2IFCnew,64,0,64,0,0.434023862006,1,No,5.7,-1,Hit,0.467584953643,True,False,stimulusHACA03_2IFCnew_2019_Jun_28_1519_279,stimulusHACA03_2IFCnew_2019_Jun_28_1519_280,True,2019_Jun_28_1519,2IFCnew,3,HACA03,
2IFCnew,65,0,65,0,0.338906389661,3,Yes,4.4,-1,Correct Rejection,0.499892641557,False,True,stimulusHACA03_2IFCnew_2019_Jun_28_1519_281,stimulusHACA03_2IFCnew_2019_Jun_28_1519_282,True,2019_Jun_28_1519,2IFCnew,3,HACA03,
2IFCnew,66,0,66,0,0.438922524219,1,No,8.8,-1,Hit,0.557798837079,True,False,stimulusHACA03_2IFCnew_2019_Jun_28_1519_283,stimulusHACA03_2IFCnew_2019_Jun_28_1519_284,True,2019_Jun_28_1519,2IFCnew,3,HACA03,
2IFCnew,67,0,67,0,0.567716862774,6,No,6.7,-1,Miss,0.499551475979,True,False,stimulusHACA03_2IFCnew_2019_Jun_28_1519_285,stimulusHACA03_2IFCnew_2019_Jun_28_1519_286,True,2019_Jun_28_1519,2IFCnew,3,HACA03,
2IFCnew,68,0,68,0,0.36731674266,3,Yes,6.7,-1,Correct Rejection,0.434339163126,False,True,stimulusHACA03_2IFCnew_2019_Jun_28_1519_287,stimulusHACA03_2IFCnew_2019_Jun_28_1519_288,True,2019_Jun_28_1519,2IFCnew,3,HACA03,
2IFCnew,69,0,69,0,0.369162567658,3,Yes,2.7,-1,Correct Rejection,0.435922237346,False,True,stimulusHACA03_2IFCnew_2019_Jun_28_1519_289,stimulusHACA03_2IFCnew_2019_Jun_28_1519_290,True,2019_Jun_28_1519,2IFCnew,3,HACA03,
2IFCnew,70,0,70,0,0.434056705795,8,No,9.8,-1,Correct Rejection,0.468181890901,False,True,stimulusHACA03_2IFCnew_2019_Jun_28_1519_291,stimulusHACA03_2IFCnew_2019_Jun_28_1519_292,True,2019_Jun_28_1519,2IFCnew,3,HACA03,
2IFCnew,71,0,71,0,0.368081594119,3,Yes,7.8,-1,Correct Rejection,0.400379839353,False,True,stimulusHACA03_2IFCnew_2019_Jun_28_1519_293,stimulusHACA03_2IFCnew_2019_Jun_28_1519_294,True,2019_Jun_28_1519,2IFCnew,3,HACA03,
2IFCnew,72,0,72,0,0.400767396903,3,Yes,6.7,-1,Correct Rejection,0.501303285593,False,True,stimulusHACA03_2IFCnew_2019_Jun_28_1519_295,stimulusHACA03_2IFCnew_2019_Jun_28_1519_296,True,2019_Jun_28_1519,2IFCnew,3,HACA03,
2IFCnew,73,0,73,0,0.40158479847,3,Yes,6.7,-1,Correct Rejection,0.467912160791,False,True,stimulusHACA03_2IFCnew_2019_Jun_28_1519_297,stimulusHACA03_2IFCnew_2019_Jun_28_1519_298,True,2019_Jun_28_1519,2IFCnew,3,HACA03,
2IFCnew,74,0,74,0,0.600055752322,6,No,2.7,-1,Miss,0.501160414657,True,False,stimulusHACA03_2IFCnew_2019_Jun_28_1519_299,stimulusHACA03_2IFCnew_2019_Jun_28_1519_300,True,2019_Jun_28_1519,2IFCnew,3,HACA03,
2IFCnew,0,0,0,0,0.568045301363,8,No,4.4,-1,Correct Rejection,0.76896435488,False,True,stimulusHACA03_2IFCnew_2019_Jun_28_1519_301,stimulusHACA03_2IFCnew_2019_Jun_28_1519_302,True,2019_Jun_28_1519,2IFCnew,3,HACA03,
2IFCnew,1,0,1,0,0.434180280892,6,No,4.4,-1,Miss,0.500596321421,True,False,stimulusHACA03_2IFCnew_2019_Jun_28_1519_303,stimulusHACA03_2IFCnew_2019_Jun_28_1519_304,True,2019_Jun_28_1519,2IFCnew,3,HACA03,
2IFCnew,2,0,2,0,0.464867945062,3,Yes,7.8,-1,Correct Rejection,0.467594806803,False,True,stimulusHACA03_2IFCnew_2019_Jun_28_1519_305,stimulusHACA03_2IFCnew_2019_Jun_28_1519_306,True,2019_Jun_28_1519,2IFCnew,3,HACA03,
2IFCnew,3,0,3,0,0.367407473736,2,No,7.8,-1,False Alarm,0.636632732116,False,True,stimulusHACA03_2IFCnew_2019_Jun_28_1519_307,stimulusHACA03_2IFCnew_2019_Jun_28_1519_308,True,2019_Jun_28_1519,2IFCnew,3,HACA03,
2IFCnew,4,0,4,0,0.437227780931,8,No,5.7,-1,Correct Rejection,0.470689930487,False,True,stimulusHACA03_2IFCnew_2019_Jun_28_1519_309,stimulusHACA03_2IFCnew_2019_Jun_28_1519_310,True,2019_Jun_28_1519,2IFCnew,3,HACA03,
2IFCnew,5,0,5,0,0.467696622945,4,Yes,5.7,-1,Miss,0.467515160562,True,False,stimulusHACA03_2IFCnew_2019_Jun_28_1519_311,stimulusHACA03_2IFCnew_2019_Jun_28_1519_312,True,2019_Jun_28_1519,2IFCnew,3,HACA03,
2IFCnew,6,0,6,0,0.700525953434,8,No,4.4,-1,Correct Rejection,0.466338529252,False,True,stimulusHACA03_2IFCnew_2019_Jun_28_1519_313,stimulusHACA03_2IFCnew_2019_Jun_28_1519_314,True,2019_Jun_28_1519,2IFCnew,3,HACA03,
2IFCnew,7,0,7,0,-1,1,No,11.1,-1,Hit,0.602922200691,True,False,stimulusHACA03_2IFCnew_2019_Jun_28_1519_315,stimulusHACA03_2IFCnew_2019_Jun_28_1519_316,True,2019_Jun_28_1519,2IFCnew,3,HACA03,
2IFCnew,8,0,8,0,-1,1,No,4.4,-1,Hit,0.503147468437,True,False,stimulusHACA03_2IFCnew_2019_Jun_28_1519_317,stimulusHACA03_2IFCnew_2019_Jun_28_1519_318,True,2019_Jun_28_1519,2IFCnew,3,HACA03,
2IFCnew,9,0,9,0,0.733921594219,4,Yes,4.4,-1,Miss,0.86616905476,True,False,stimulusHACA03_2IFCnew_2019_Jun_28_1519_319,stimulusHACA03_2IFCnew_2019_Jun_28_1519_320,True,2019_Jun_28_1519,2IFCnew,3,HACA03,
2IFCnew,10,0,10,0,0.567376107909,8,No,6.7,-1,Correct Rejection,0.56649671332,False,True,stimulusHACA03_2IFCnew_2019_Jun_28_1519_321,stimulusHACA03_2IFCnew_2019_Jun_28_1519_322,True,2019_Jun_28_1519,2IFCnew,3,HACA03,
2IFCnew,11,0,11,0,0.467188774608,1,No,8.8,-1,Hit,0.634388674982,True,False,stimulusHACA03_2IFCnew_2019_Jun_28_1519_323,stimulusHACA03_2IFCnew_2019_Jun_28_1519_324,True,2019_Jun_28_1519,2IFCnew,3,HACA03,
2IFCnew,12,0,12,0,-1,1,No,7.8,-1,Hit,0.735821611714,True,False,stimulusHACA03_2IFCnew_2019_Jun_28_1519_325,stimulusHACA03_2IFCnew_2019_Jun_28_1519_326,True,2019_Jun_28_1519,2IFCnew,3,HACA03,
2IFCnew,13,0,13,0,0.601103882305,3,Yes,2.7,-1,Correct Rejection,0.534213247709,False,True,stimulusHACA03_2IFCnew_2019_Jun_28_1519_327,stimulusHACA03_2IFCnew_2019_Jun_28_1519_328,True,2019_Jun_28_1519,2IFCnew,3,HACA03,
2IFCnew,14,0,14,0,-1,1,Yes,7.8,-1,Hit,0.57360084122,True,False,stimulusHACA03_2IFCnew_2019_Jun_28_1519_329,stimulusHACA03_2IFCnew_2019_Jun_28_1519_330,True,2019_Jun_28_1519,2IFCnew,3,HACA03,
2IFCnew,15,0,15,0,-1,2,Yes,5.7,-1,False Alarm,0.600995086832,False,True,stimulusHACA03_2IFCnew_2019_Jun_28_1519_331,stimulusHACA03_2IFCnew_2019_Jun_28_1519_332,True,2019_Jun_28_1519,2IFCnew,3,HACA03,
2IFCnew,16,0,16,0,-1,2,Yes,11.1,-1,False Alarm,0.501035608118,False,True,stimulusHACA03_2IFCnew_2019_Jun_28_1519_333,stimulusHACA03_2IFCnew_2019_Jun_28_1519_334,True,2019_Jun_28_1519,2IFCnew,3,HACA03,
2IFCnew,17,0,17,0,0.501722865971,3,Yes,4.4,-1,Correct Rejection,0.599425971508,False,True,stimulusHACA03_2IFCnew_2019_Jun_28_1519_335,stimulusHACA03_2IFCnew_2019_Jun_28_1519_336,True,2019_Jun_28_1519,2IFCnew,3,HACA03,
2IFCnew,18,0,18,0,0.463770960225,3,Yes,11.1,-1,Correct Rejection,0.569210848305,False,True,stimulusHACA03_2IFCnew_2019_Jun_28_1519_337,stimulusHACA03_2IFCnew_2019_Jun_28_1519_338,True,2019_Jun_28_1519,2IFCnew,3,HACA03,
2IFCnew,19,0,19,0,0.434142099693,3,Yes,9.8,-1,Correct Rejection,0.433308686828,False,True,stimulusHACA03_2IFCnew_2019_Jun_28_1519_339,stimulusHACA03_2IFCnew_2019_Jun_28_1519_340,True,2019_Jun_28_1519,2IFCnew,3,HACA03,
2IFCnew,20,0,20,0,0.539371787105,8,No,6.7,-1,Correct Rejection,0.501809081296,False,True,stimulusHACA03_2IFCnew_2019_Jun_28_1519_341,stimulusHACA03_2IFCnew_2019_Jun_28_1519_342,True,2019_Jun_28_1519,2IFCnew,3,HACA03,
2IFCnew,21,0,21,0,0.600179738132,3,Yes,2.7,-1,Correct Rejection,0.50133859273,False,True,stimulusHACA03_2IFCnew_2019_Jun_28_1519_343,stimulusHACA03_2IFCnew_2019_Jun_28_1519_344,True,2019_Jun_28_1519,2IFCnew,3,HACA03,
2IFCnew,22,0,22,0,0.500654208707,8,No,5.7,-1,Correct Rejection,0.500801595626,False,True,stimulusHACA03_2IFCnew_2019_Jun_28_1519_345,stimulusHACA03_2IFCnew_2019_Jun_28_1519_346,True,2019_Jun_28_1519,2IFCnew,3,HACA03,
2IFCnew,23,0,23,0,0.433717182372,4,Yes,4.4,-1,Miss,0.531601339579,True,False,stimulusHACA03_2IFCnew_2019_Jun_28_1519_347,stimulusHACA03_2IFCnew_2019_Jun_28_1519_348,True,2019_Jun_28_1519,2IFCnew,3,HACA03,
2IFCnew,24,0,24,0,0.634189559147,6,No,4.4,-1,Miss,0.499002162367,True,False,stimulusHACA03_2IFCnew_2019_Jun_28_1519_349,stimulusHACA03_2IFCnew_2019_Jun_28_1519_350,True,2019_Jun_28_1519,2IFCnew,3,HACA03,
2IFCnew,25,0,25,0,0.699130910216,1,No,2.7,-1,Hit,0.769281708868,True,False,stimulusHACA03_2IFCnew_2019_Jun_28_1519_351,stimulusHACA03_2IFCnew_2019_Jun_28_1519_352,True,2019_Jun_28_1519,2IFCnew,3,HACA03,
2IFCnew,26,0,26,0,-1,0,No,6.7,-1,No Answer,-1,False,True,stimulusHACA03_2IFCnew_2019_Jun_28_1519_353,stimulusHACA03_2IFCnew_2019_Jun_28_1519_354,True,2019_Jun_28_1519,2IFCnew,3,HACA03,
2IFCnew,27,0,27,0,0.299555335194,3,Yes,2.7,-1,Correct Rejection,0.535459672334,False,True,stimulusHACA03_2IFCnew_2019_Jun_28_1519_355,stimulusHACA03_2IFCnew_2019_Jun_28_1519_356,True,2019_Jun_28_1519,2IFCnew,3,HACA03,
2IFCnew,28,0,28,0,0.902560056187,1,No,4.4,-1,Hit,0.530740009155,True,False,stimulusHACA03_2IFCnew_2019_Jun_28_1519_357,stimulusHACA03_2IFCnew_2019_Jun_28_1519_358,True,2019_Jun_28_1519,2IFCnew,3,HACA03,
2IFCnew,29,0,29,0,0.533971434925,6,No,2.7,-1,Miss,0.534736286383,True,False,stimulusHACA03_2IFCnew_2019_Jun_28_1519_359,stimulusHACA03_2IFCnew_2019_Jun_28_1519_360,True,2019_Jun_28_1519,2IFCnew,3,HACA03,
2IFCnew,30,0,30,0,0.534506789874,3,Yes,4.4,-1,Correct Rejection,0.534322453663,False,True,stimulusHACA03_2IFCnew_2019_Jun_28_1519_361,stimulusHACA03_2IFCnew_2019_Jun_28_1519_362,True,2019_Jun_28_1519,2IFCnew,3,HACA03,
2IFCnew,31,0,31,0,0.538949743612,1,No,11.1,-1,Hit,0.569075777894,True,False,stimulusHACA03_2IFCnew_2019_Jun_28_1519_363,stimulusHACA03_2IFCnew_2019_Jun_28_1519_364,True,2019_Jun_28_1519,2IFCnew,3,HACA03,
2IFCnew,32,0,32,0,0.431138938991,1,No,6.7,-1,Hit,0.573119678535,True,False,stimulusHACA03_2IFCnew_2019_Jun_28_1519_365,stimulusHACA03_2IFCnew_2019_Jun_28_1519_366,True,2019_Jun_28_1519,2IFCnew,3,HACA03,
2IFCnew,33,0,33,0,0.403599359095,1,No,7.8,-1,Hit,0.498639648315,True,False,stimulusHACA03_2IFCnew_2019_Jun_28_1519_367,stimulusHACA03_2IFCnew_2019_Jun_28_1519_368,True,2019_Jun_28_1519,2IFCnew,3,HACA03,
2IFCnew,34,0,34,0,0.56790325162,8,No,8.8,-1,Correct Rejection,0.638646882027,False,True,stimulusHACA03_2IFCnew_2019_Jun_28_1519_369,stimulusHACA03_2IFCnew_2019_Jun_28_1519_370,True,2019_Jun_28_1519,2IFCnew,3,HACA03,
2IFCnew,35,0,35,0,0.601613783045,3,Yes,11.1,-1,Correct Rejection,0.534223511582,False,True,stimulusHACA03_2IFCnew_2019_Jun_28_1519_371,stimulusHACA03_2IFCnew_2019_Jun_28_1519_372,True,2019_Jun_28_1519,2IFCnew,3,HACA03,
2IFCnew,36,0,36,0,0.502142446348,1,No,8.8,-1,Hit,0.633282247465,True,False,stimulusHACA03_2IFCnew_2019_Jun_28_1519_373,stimulusHACA03_2IFCnew_2019_Jun_28_1519_374,True,2019_Jun_28_1519,2IFCnew,3,HACA03,
2IFCnew,37,0,37,0,0.63424293045,2,No,2.7,-1,False Alarm,0.466405448504,False,True,stimulusHACA03_2IFCnew_2019_Jun_28_1519_375,stimulusHACA03_2IFCnew_2019_Jun_28_1519_376,True,2019_Jun_28_1519,2IFCnew,3,HACA03,
2IFCnew,38,0,38,0,0.466998280259,1,No,2.7,-1,Hit,0.36791491136,True,False,stimulusHACA03_2IFCnew_2019_Jun_28_1519_377,stimulusHACA03_2IFCnew_2019_Jun_28_1519_378,True,2019_Jun_28_1519,2IFCnew,3,HACA03,
2IFCnew,39,0,39,0,0.400854843669,1,No,2.7,-1,Hit,0.599190727342,True,False,stimulusHACA03_2IFCnew_2019_Jun_28_1519_379,stimulusHACA03_2IFCnew_2019_Jun_28_1519_380,True,2019_Jun_28_1519,2IFCnew,3,HACA03,
2IFCnew,40,0,40,0,0.401090498548,5,Yes,5.7,-1,False Alarm,0.534957161406,False,True,stimulusHACA03_2IFCnew_2019_Jun_28_1519_381,stimulusHACA03_2IFCnew_2019_Jun_28_1519_382,True,2019_Jun_28_1519,2IFCnew,3,HACA03,
2IFCnew,41,0,41,0,0.701054329053,4,Yes,2.7,-1,Miss,0.539880867116,True,False,stimulusHACA03_2IFCnew_2019_Jun_28_1519_383,stimulusHACA03_2IFCnew_2019_Jun_28_1519_384,True,2019_Jun_28_1519,2IFCnew,3,HACA03,
2IFCnew,42,0,42,0,0.500797900604,8,No,2.7,-1,Correct Rejection,0.400626168353,False,True,stimulusHACA03_2IFCnew_2019_Jun_28_1519_385,stimulusHACA03_2IFCnew_2019_Jun_28_1519_386,True,2019_Jun_28_1519,2IFCnew,3,HACA03,
2IFCnew,43,0,43,0,0.337526536779,1,No,6.7,-1,Hit,0.530084774131,True,False,stimulusHACA03_2IFCnew_2019_Jun_28_1519_387,stimulusHACA03_2IFCnew_2019_Jun_28_1519_388,True,2019_Jun_28_1519,2IFCnew,3,HACA03,
2IFCnew,44,0,44,0,0.434638452716,1,No,11.1,-1,Hit,0.433910140069,True,False,stimulusHACA03_2IFCnew_2019_Jun_28_1519_389,stimulusHACA03_2IFCnew_2019_Jun_28_1519_390,True,2019_Jun_28_1519,2IFCnew,3,HACA03,
2IFCnew,45,0,45,0,0.535348003265,8,No,5.7,-1,Correct Rejection,0.536313612713,False,True,stimulusHACA03_2IFCnew_2019_Jun_28_1519_391,stimulusHACA03_2IFCnew_2019_Jun_28_1519_392,True,2019_Jun_28_1519,2IFCnew,3,HACA03,
2IFCnew,46,0,46,0,0.701610621996,8,No,2.7,-1,Correct Rejection,0.49857354979,False,True,stimulusHACA03_2IFCnew_2019_Jun_28_1519_393,stimulusHACA03_2IFCnew_2019_Jun_28_1519_394,True,2019_Jun_28_1519,2IFCnew,3,HACA03,
2IFCnew,47,0,47,0,0.500185362529,6,No,7.8,-1,Miss,0.434292360442,True,False,stimulusHACA03_2IFCnew_2019_Jun_28_1519_395,stimulusHACA03_2IFCnew_2019_Jun_28_1519_396,True,2019_Jun_28_1519,2IFCnew,3,HACA03,
2IFCnew,48,0,48,0,0.435277265962,8,No,5.7,-1,Correct Rejection,0.433854305418,False,True,stimulusHACA03_2IFCnew_2019_Jun_28_1519_397,stimulusHACA03_2IFCnew_2019_Jun_28_1519_398,True,2019_Jun_28_1519,2IFCnew,3,HACA03,
2IFCnew,49,0,49,0,0.30238811858,4,Yes,2.7,-1,Miss,0.499430774711,True,False,stimulusHACA03_2IFCnew_2019_Jun_28_1519_399,stimulusHACA03_2IFCnew_2019_Jun_28_1519_400,True,2019_Jun_28_1519,2IFCnew,3,HACA03,
2IFCnew,50,0,50,0,0.16709028394,1,No,11.1,-1,Hit,0.501037250273,True,False,stimulusHACA03_2IFCnew_2019_Jun_28_1519_401,stimulusHACA03_2IFCnew_2019_Jun_28_1519_402,True,2019_Jun_28_1519,2IFCnew,3,HACA03,
2IFCnew,51,0,51,0,0.300088226795,1,No,6.7,-1,Hit,0.466664094012,True,False,stimulusHACA03_2IFCnew_2019_Jun_28_1519_403,stimulusHACA03_2IFCnew_2019_Jun_28_1519_404,True,2019_Jun_28_1519,2IFCnew,3,HACA03,
2IFCnew,52,0,52,0,0.667471067747,3,Yes,5.7,-1,Correct Rejection,0.769400357269,False,True,stimulusHACA03_2IFCnew_2019_Jun_28_1519_405,stimulusHACA03_2IFCnew_2019_Jun_28_1519_406,True,2019_Jun_28_1519,2IFCnew,3,HACA03,
2IFCnew,53,0,53,0,-1,1,Yes,5.7,-1,Hit,0.502043914748,True,False,stimulusHACA03_2IFCnew_2019_Jun_28_1519_407,stimulusHACA03_2IFCnew_2019_Jun_28_1519_408,True,2019_Jun_28_1519,2IFCnew,3,HACA03,
2IFCnew,54,0,54,0,-1,1,Yes,11.1,-1,Hit,0.501217480982,True,False,stimulusHACA03_2IFCnew_2019_Jun_28_1519_409,stimulusHACA03_2IFCnew_2019_Jun_28_1519_410,True,2019_Jun_28_1519,2IFCnew,3,HACA03,
2IFCnew,55,0,55,0,-1,4,Yes,6.7,-1,Miss,0.535230997251,True,False,stimulusHACA03_2IFCnew_2019_Jun_28_1519_411,stimulusHACA03_2IFCnew_2019_Jun_28_1519_412,True,2019_Jun_28_1519,2IFCnew,3,HACA03,
2IFCnew,56,0,56,0,-1,1,Yes,2.7,-1,Hit,0.565113576129,True,False,stimulusHACA03_2IFCnew_2019_Jun_28_1519_413,stimulusHACA03_2IFCnew_2019_Jun_28_1519_414,True,2019_Jun_28_1519,2IFCnew,3,HACA03,
2IFCnew,57,0,57,0,-1,1,Yes,5.7,-1,Hit,0.590070807375,True,False,stimulusHACA03_2IFCnew_2019_Jun_28_1519_415,stimulusHACA03_2IFCnew_2019_Jun_28_1519_416,True,2019_Jun_28_1519,2IFCnew,3,HACA03,
2IFCnew,58,0,58,0,-1,1,Yes,6.7,-1,Hit,0.499089609133,True,False,stimulusHACA03_2IFCnew_2019_Jun_28_1519_417,stimulusHACA03_2IFCnew_2019_Jun_28_1519_418,True,2019_Jun_28_1519,2IFCnew,3,HACA03,
2IFCnew,59,0,59,0,-1,1,Yes,4.4,-1,Hit,0.534794584149,True,False,stimulusHACA03_2IFCnew_2019_Jun_28_1519_419,stimulusHACA03_2IFCnew_2019_Jun_28_1519_420,True,2019_Jun_28_1519,2IFCnew,3,HACA03,
2IFCnew,60,0,60,0,-1,1,Yes,5.7,-1,Hit,0.73584624473,True,False,stimulusHACA03_2IFCnew_2019_Jun_28_1519_421,stimulusHACA03_2IFCnew_2019_Jun_28_1519_422,True,2019_Jun_28_1519,2IFCnew,3,HACA03,
2IFCnew,61,0,61,0,-1,2,Yes,4.4,-1,False Alarm,0.367644770537,False,True,stimulusHACA03_2IFCnew_2019_Jun_28_1519_423,stimulusHACA03_2IFCnew_2019_Jun_28_1519_424,True,2019_Jun_28_1519,2IFCnew,3,HACA03,
2IFCnew,62,0,62,0,0.433990197023,8,No,5.7,-1,Correct Rejection,0.500278146472,False,True,stimulusHACA03_2IFCnew_2019_Jun_28_1519_425,stimulusHACA03_2IFCnew_2019_Jun_28_1519_426,True,2019_Jun_28_1519,2IFCnew,3,HACA03,
2IFCnew,63,0,63,0,-1,3,No,7.8,-1,Correct Rejection,0.600566064008,False,True,stimulusHACA03_2IFCnew_2019_Jun_28_1519_427,stimulusHACA03_2IFCnew_2019_Jun_28_1519_428,True,2019_Jun_28_1519,2IFCnew,3,HACA03,
2IFCnew,64,0,64,0,0.634433014318,2,No,7.8,-1,False Alarm,0.601451206021,False,True,stimulusHACA03_2IFCnew_2019_Jun_28_1519_429,stimulusHACA03_2IFCnew_2019_Jun_28_1519_430,True,2019_Jun_28_1519,2IFCnew,3,HACA03,
2IFCnew,65,0,65,0,0.411255263723,4,Yes,5.7,-1,Miss,0.534542918205,True,False,stimulusHACA03_2IFCnew_2019_Jun_28_1519_431,stimulusHACA03_2IFCnew_2019_Jun_28_1519_432,True,2019_Jun_28_1519,2IFCnew,3,HACA03,
2IFCnew,66,0,66,0,0.334699911764,6,No,8.8,-1,Miss,0.467476568883,True,False,stimulusHACA03_2IFCnew_2019_Jun_28_1519_433,stimulusHACA03_2IFCnew_2019_Jun_28_1519_434,True,2019_Jun_28_1519,2IFCnew,3,HACA03,
2IFCnew,67,0,67,0,0.467618208146,3,Yes,5.7,-1,Correct Rejection,0.569809427485,False,True,stimulusHACA03_2IFCnew_2019_Jun_28_1519_435,stimulusHACA03_2IFCnew_2019_Jun_28_1519_436,True,2019_Jun_28_1519,2IFCnew,3,HACA03,
2IFCnew,68,0,68,0,-1,1,Yes,11.1,-1,Hit,0.602717337199,True,False,stimulusHACA03_2IFCnew_2019_Jun_28_1519_437,stimulusHACA03_2IFCnew_2019_Jun_28_1519_438,True,2019_Jun_28_1519,2IFCnew,3,HACA03,
2IFCnew,69,0,69,0,-1,1,Yes,6.7,-1,Hit,0.401062991703,True,False,stimulusHACA03_2IFCnew_2019_Jun_28_1519_439,stimulusHACA03_2IFCnew_2019_Jun_28_1519_440,True,2019_Jun_28_1519,2IFCnew,3,HACA03,
2IFCnew,70,0,70,0,0.534744907869,8,No,4.4,-1,Correct Rejection,0.564563851804,False,True,stimulusHACA03_2IFCnew_2019_Jun_28_1519_441,stimulusHACA03_2IFCnew_2019_Jun_28_1519_442,True,2019_Jun_28_1519,2IFCnew,3,HACA03,
2IFCnew,71,0,71,0,0.530598780606,8,No,6.7,-1,Correct Rejection,0.634279879741,False,True,stimulusHACA03_2IFCnew_2019_Jun_28_1519_443,stimulusHACA03_2IFCnew_2019_Jun_28_1519_444,True,2019_Jun_28_1519,2IFCnew,3,HACA03,
2IFCnew,72,0,72,0,-1,0,No,2.7,-1,No Answer,-1,True,False,stimulusHACA03_2IFCnew_2019_Jun_28_1519_445,stimulusHACA03_2IFCnew_2019_Jun_28_1519_446,True,2019_Jun_28_1519,2IFCnew,3,HACA03,
2IFCnew,73,0,73,0,0.530707986327,1,No,11.1,-1,Hit,0.467282379512,True,False,stimulusHACA03_2IFCnew_2019_Jun_28_1519_447,stimulusHACA03_2IFCnew_2019_Jun_28_1519_448,True,2019_Jun_28_1519,2IFCnew,3,HACA03,
2IFCnew,74,0,74,0,0.333603337174,1,No,7.8,-1,Hit,0.436385335634,True,False,stimulusHACA03_2IFCnew_2019_Jun_28_1519_449,stimulusHACA03_2IFCnew_2019_Jun_28_1519_450,True,2019_Jun_28_1519,2IFCnew,3,HACA03,
2IFCnew,0,0,0,0,0.502706950298,3,Yes,9.8,-1,Correct Rejection,0.533091629855,False,True,stimulusHACA03_2IFCnew_2019_Jun_28_1519_451,stimulusHACA03_2IFCnew_2019_Jun_28_1519_452,True,2019_Jun_28_1519,2IFCnew,3,HACA03,
2IFCnew,1,0,1,0,-1,1,Yes,8.8,-1,Hit,0.467433871934,True,False,stimulusHACA03_2IFCnew_2019_Jun_28_1519_453,stimulusHACA03_2IFCnew_2019_Jun_28_1519_454,True,2019_Jun_28_1519,2IFCnew,3,HACA03,
2IFCnew,2,0,2,0,-1,2,Yes,2.7,-1,False Alarm,0.875596475322,False,True,stimulusHACA03_2IFCnew_2019_Jun_28_1519_455,stimulusHACA03_2IFCnew_2019_Jun_28_1519_456,True,2019_Jun_28_1519,2IFCnew,3,HACA03,
2IFCnew,3,0,3,0,0.433526688023,3,Yes,8.8,-1,Correct Rejection,0.500799132278,False,True,stimulusHACA03_2IFCnew_2019_Jun_28_1519_457,stimulusHACA03_2IFCnew_2019_Jun_28_1519_458,True,2019_Jun_28_1519,2IFCnew,3,HACA03,
2IFCnew,4,0,4,0,0.400356027531,3,Yes,11.1,-1,Correct Rejection,0.668185011251,False,True,stimulusHACA03_2IFCnew_2019_Jun_28_1519_459,stimulusHACA03_2IFCnew_2019_Jun_28_1519_460,True,2019_Jun_28_1519,2IFCnew,3,HACA03,
2IFCnew,5,0,5,0,-1,0,Yes,8.8,-1,No Answer,-1,False,True,stimulusHACA03_2IFCnew_2019_Jun_28_1519_461,stimulusHACA03_2IFCnew_2019_Jun_28_1519_462,True,2019_Jun_28_1519,2IFCnew,3,HACA03,
2IFCnew,6,0,6,0,0.467083263677,1,No,8.8,-1,Hit,0.46662714472,True,False,stimulusHACA03_2IFCnew_2019_Jun_28_1519_463,stimulusHACA03_2IFCnew_2019_Jun_28_1519_464,True,2019_Jun_28_1519,2IFCnew,3,HACA03,
2IFCnew,7,0,7,0,0.50075684581,1,No,11.1,-1,Hit,0.401440285612,True,False,stimulusHACA03_2IFCnew_2019_Jun_28_1519_465,stimulusHACA03_2IFCnew_2019_Jun_28_1519_466,True,2019_Jun_28_1519,2IFCnew,3,HACA03,
2IFCnew,8,0,8,0,0.367571282433,1,No,8.8,-1,Hit,0.634500754764,True,False,stimulusHACA03_2IFCnew_2019_Jun_28_1519_467,stimulusHACA03_2IFCnew_2019_Jun_28_1519_468,True,2019_Jun_28_1519,2IFCnew,3,HACA03,
2IFCnew,9,0,9,0,0.335429866798,1,No,8.8,-1,Hit,0.466710075503,True,False,stimulusHACA03_2IFCnew_2019_Jun_28_1519_469,stimulusHACA03_2IFCnew_2019_Jun_28_1519_470,True,2019_Jun_28_1519,2IFCnew,3,HACA03,
2IFCnew,10,0,10,0,0.334595632507,2,No,2.7,-1,False Alarm,0.470104488544,False,True,stimulusHACA03_2IFCnew_2019_Jun_28_1519_471,stimulusHACA03_2IFCnew_2019_Jun_28_1519_472,True,2019_Jun_28_1519,2IFCnew,3,HACA03,
2IFCnew,11,0,11,0,0.36876228312,1,No,4.4,-1,Hit,0.462926051812,True,False,stimulusHACA03_2IFCnew_2019_Jun_28_1519_473,stimulusHACA03_2IFCnew_2019_Jun_28_1519_474,True,2019_Jun_28_1519,2IFCnew,3,HACA03,
2IFCnew,12,0,12,0,0.334006495774,1,No,11.1,-1,Hit,0.467736856546,True,False,stimulusHACA03_2IFCnew_2019_Jun_28_1519_475,stimulusHACA03_2IFCnew_2019_Jun_28_1519_476,True,2019_Jun_28_1519,2IFCnew,3,HACA03,
2IFCnew,13,0,13,0,0.273854190484,2,No,4.4,-1,False Alarm,0.435238674516,False,True,stimulusHACA03_2IFCnew_2019_Jun_28_1519_477,stimulusHACA03_2IFCnew_2019_Jun_28_1519_478,True,2019_Jun_28_1519,2IFCnew,3,HACA03,
2IFCnew,14,0,14,0,0.467222028878,3,Yes,11.1,-1,Correct Rejection,0.599579105852,False,True,stimulusHACA03_2IFCnew_2019_Jun_28_1519_479,stimulusHACA03_2IFCnew_2019_Jun_28_1519_480,True,2019_Jun_28_1519,2IFCnew,3,HACA03,
2IFCnew,15,0,15,0,0.500423891237,3,Yes,5.7,-1,Correct Rejection,0.36785209761,False,True,stimulusHACA03_2IFCnew_2019_Jun_28_1519_481,stimulusHACA03_2IFCnew_2019_Jun_28_1519_482,True,2019_Jun_28_1519,2IFCnew,3,HACA03,
2IFCnew,16,0,16,0,0.400265706936,3,Yes,9.8,-1,Correct Rejection,0.302626236575,False,True,stimulusHACA03_2IFCnew_2019_Jun_28_1519_483,stimulusHACA03_2IFCnew_2019_Jun_28_1519_484,True,2019_Jun_28_1519,2IFCnew,3,HACA03,
2IFCnew,17,0,17,0,0.767436704831,6,No,7.8,-1,Miss,0.356265192851,True,False,stimulusHACA03_2IFCnew_2019_Jun_28_1519_485,stimulusHACA03_2IFCnew_2019_Jun_28_1519_486,True,2019_Jun_28_1519,2IFCnew,3,HACA03,
2IFCnew,18,0,18,0,0.567478744779,4,Yes,5.7,-1,Miss,0.601918410277,True,False,stimulusHACA03_2IFCnew_2019_Jun_28_1519_487,stimulusHACA03_2IFCnew_2019_Jun_28_1519_488,True,2019_Jun_28_1519,2IFCnew,3,HACA03,
2IFCnew,19,0,19,0,0.231918323785,1,No,11.1,-1,Hit,0.501091442769,True,False,stimulusHACA03_2IFCnew_2019_Jun_28_1519_489,stimulusHACA03_2IFCnew_2019_Jun_28_1519_490,True,2019_Jun_28_1519,2IFCnew,3,HACA03,
2IFCnew,20,0,20,0,0.233671775786,1,No,5.7,-1,Hit,0.478706296533,True,False,stimulusHACA03_2IFCnew_2019_Jun_28_1519_491,stimulusHACA03_2IFCnew_2019_Jun_28_1519_492,True,2019_Jun_28_1519,2IFCnew,3,HACA03,
2IFCnew,21,0,21,0,0.167962288717,2,No,5.7,-1,False Alarm,0.434694287134,False,True,stimulusHACA03_2IFCnew_2019_Jun_28_1519_493,stimulusHACA03_2IFCnew_2019_Jun_28_1519_494,True,2019_Jun_28_1519,2IFCnew,3,HACA03,
2IFCnew,22,0,22,0,0.267259963788,1,No,5.7,-1,Hit,0.535627997248,True,False,stimulusHACA03_2IFCnew_2019_Jun_28_1519_495,stimulusHACA03_2IFCnew_2019_Jun_28_1519_496,True,2019_Jun_28_1519,2IFCnew,3,HACA03,
2IFCnew,23,0,23,0,0.33398555778,2,No,7.8,-1,False Alarm,0.467818966135,False,True,stimulusHACA03_2IFCnew_2019_Jun_28_1519_497,stimulusHACA03_2IFCnew_2019_Jun_28_1519_498,True,2019_Jun_28_1519,2IFCnew,3,HACA03,
2IFCnew,24,0,24,0,0.40140292584,2,No,8.8,-1,False Alarm,0.572893466335,False,True,stimulusHACA03_2IFCnew_2019_Jun_28_1519_499,stimulusHACA03_2IFCnew_2019_Jun_28_1519_500,True,2019_Jun_28_1519,2IFCnew,3,HACA03,
2IFCnew,25,0,25,0,0.492334036855,6,No,2.7,-1,Miss,0.657752157655,True,False,stimulusHACA03_2IFCnew_2019_Jun_28_1519_501,stimulusHACA03_2IFCnew_2019_Jun_28_1519_502,True,2019_Jun_28_1519,2IFCnew,3,HACA03,
2IFCnew,26,0,26,0,0.500858661719,1,No,4.4,-1,Hit,0.575307490537,True,False,stimulusHACA03_2IFCnew_2019_Jun_28_1519_503,stimulusHACA03_2IFCnew_2019_Jun_28_1519_504,True,2019_Jun_28_1519,2IFCnew,3,HACA03,
2IFCnew,27,0,27,0,0.600635446608,3,Yes,9.8,-1,Correct Rejection,0.534203394549,False,True,stimulusHACA03_2IFCnew_2019_Jun_28_1519_505,stimulusHACA03_2IFCnew_2019_Jun_28_1519_506,True,2019_Jun_28_1519,2IFCnew,3,HACA03,
2IFCnew,28,0,28,0,0.433534077834,3,Yes,11.1,-1,Correct Rejection,0.536789438222,False,True,stimulusHACA03_2IFCnew_2019_Jun_28_1519_507,stimulusHACA03_2IFCnew_2019_Jun_28_1519_508,True,2019_Jun_28_1519,2IFCnew,3,HACA03,
2IFCnew,29,0,29,0,0.467385427328,3,Yes,7.8,-1,Correct Rejection,0.501622692216,False,True,stimulusHACA03_2IFCnew_2019_Jun_28_1519_509,stimulusHACA03_2IFCnew_2019_Jun_28_1519_510,True,2019_Jun_28_1519,2IFCnew,3,HACA03,
2IFCnew,30,0,30,0,0.469693529652,3,Yes,7.8,-1,Correct Rejection,0.441132094944,False,True,stimulusHACA03_2IFCnew_2019_Jun_28_1519_511,stimulusHACA03_2IFCnew_2019_Jun_28_1519_512,True,2019_Jun_28_1519,2IFCnew,3,HACA03,
2IFCnew,31,0,31,0,0.534822911955,3,Yes,8.8,-1,Correct Rejection,0.423200166551,False,True,stimulusHACA03_2IFCnew_2019_Jun_28_1519_513,stimulusHACA03_2IFCnew_2019_Jun_28_1519_514,True,2019_Jun_28_1519,2IFCnew,3,HACA03,
2IFCnew,32,0,32,0,0.564061340876,3,Yes,9.8,-1,Correct Rejection,0.467970458558,False,True,stimulusHACA03_2IFCnew_2019_Jun_28_1519_515,stimulusHACA03_2IFCnew_2019_Jun_28_1519_516,True,2019_Jun_28_1519,2IFCnew,3,HACA03,
2IFCnew,33,0,33,0,0.433458126383,3,Yes,2.7,-1,Correct Rejection,0.433183058864,False,True,stimulusHACA03_2IFCnew_2019_Jun_28_1519_517,stimulusHACA03_2IFCnew_2019_Jun_28_1519_518,True,2019_Jun_28_1519,2IFCnew,3,HACA03,
2IFCnew,34,0,34,0,0.332939480664,6,No,5.7,-1,Miss,0.467236398254,True,False,stimulusHACA03_2IFCnew_2019_Jun_28_1519_519,stimulusHACA03_2IFCnew_2019_Jun_28_1519_520,True,2019_Jun_28_1519,2IFCnew,3,HACA03,
2IFCnew,35,0,35,0,0.4007341424,1,No,9.8,-1,Hit,0.634316008072,True,False,stimulusHACA03_2IFCnew_2019_Jun_28_1519_521,stimulusHACA03_2IFCnew_2019_Jun_28_1519_522,True,2019_Jun_28_1519,2IFCnew,3,HACA03,
2IFCnew,36,0,36,0,0.536603049608,3,Yes,6.7,-1,Correct Rejection,0.534264155896,False,True,stimulusHACA03_2IFCnew_2019_Jun_28_1519_523,stimulusHACA03_2IFCnew_2019_Jun_28_1519_524,True,2019_Jun_28_1519,2IFCnew,3,HACA03,
2IFCnew,37,0,37,0,0.334207664244,2,No,2.7,-1,False Alarm,0.702114364831,False,True,stimulusHACA03_2IFCnew_2019_Jun_28_1519_525,stimulusHACA03_2IFCnew_2019_Jun_28_1519_526,True,2019_Jun_28_1519,2IFCnew,3,HACA03,
2IFCnew,38,0,38,0,0.467231061077,3,Yes,8.8,-1,Correct Rejection,0.468596134335,False,True,stimulusHACA03_2IFCnew_2019_Jun_28_1519_527,stimulusHACA03_2IFCnew_2019_Jun_28_1519_528,True,2019_Jun_28_1519,2IFCnew,3,HACA03,
2IFCnew,39,0,39,0,0.401081466349,1,No,5.7,-1,Hit,0.466100821737,True,False,stimulusHACA03_2IFCnew_2019_Jun_28_1519_529,stimulusHACA03_2IFCnew_2019_Jun_28_1519_530,True,2019_Jun_28_1519,2IFCnew,3,HACA03,
2IFCnew,40,0,40,0,0.503991555888,6,No,6.7,-1,Miss,0.534274009056,True,False,stimulusHACA03_2IFCnew_2019_Jun_28_1519_531,stimulusHACA03_2IFCnew_2019_Jun_28_1519_532,True,2019_Jun_28_1519,2IFCnew,3,HACA03,
2IFCnew,41,0,41,0,0.401471897727,1,No,4.4,-1,Hit,0.523867841344,True,False,stimulusHACA03_2IFCnew_2019_Jun_28_1519_533,stimulusHACA03_2IFCnew_2019_Jun_28_1519_534,True,2019_Jun_28_1519,2IFCnew,3,HACA03,
2IFCnew,42,0,42,0,0.532647005981,3,Yes,11.1,-1,Correct Rejection,0.533938180655,False,True,stimulusHACA03_2IFCnew_2019_Jun_28_1519_535,stimulusHACA03_2IFCnew_2019_Jun_28_1519_536,True,2019_Jun_28_1519,2IFCnew,3,HACA03,
2IFCnew,43,0,43,0,0.467768468894,6,No,9.8,-1,Miss,0.500799542759,True,False,stimulusHACA03_2IFCnew_2019_Jun_28_1519_537,stimulusHACA03_2IFCnew_2019_Jun_28_1519_538,True,2019_Jun_28_1519,2IFCnew,3,HACA03,
2IFCnew,44,0,44,0,0.529698858736,1,No,11.1,-1,Hit,0.500606585061,True,False,stimulusHACA03_2IFCnew_2019_Jun_28_1519_539,stimulusHACA03_2IFCnew_2019_Jun_28_1519_540,True,2019_Jun_28_1519,2IFCnew,3,HACA03,
2IFCnew,45,0,45,0,0.468193796696,1,No,6.7,-1,Hit,0.567628184566,True,False,stimulusHACA03_2IFCnew_2019_Jun_28_1519_541,stimulusHACA03_2IFCnew_2019_Jun_28_1519_542,True,2019_Jun_28_1519,2IFCnew,3,HACA03,
2IFCnew,46,0,46,0,0.501036018599,6,No,6.7,-1,Miss,0.499844607431,True,False,stimulusHACA03_2IFCnew_2019_Jun_28_1519_543,stimulusHACA03_2IFCnew_2019_Jun_28_1519_544,True,2019_Jun_28_1519,2IFCnew,3,HACA03,
2IFCnew,47,0,47,0,0.568234974751,3,Yes,7.8,-1,Correct Rejection,0.467603428289,False,True,stimulusHACA03_2IFCnew_2019_Jun_28_1519_545,stimulusHACA03_2IFCnew_2019_Jun_28_1519_546,True,2019_Jun_28_1519,2IFCnew,3,HACA03,
2IFCnew,48,0,48,0,0.466991711408,8,No,9.8,-1,Correct Rejection,0.468070221832,False,True,stimulusHACA03_2IFCnew_2019_Jun_28_1519_547,stimulusHACA03_2IFCnew_2019_Jun_28_1519_548,True,2019_Jun_28_1519,2IFCnew,3,HACA03,
2IFCnew,49,0,49,0,0.367107773433,1,No,5.7,-1,Hit,0.637197236065,True,False,stimulusHACA03_2IFCnew_2019_Jun_28_1519_549,stimulusHACA03_2IFCnew_2019_Jun_28_1519_550,True,2019_Jun_28_1519,2IFCnew,3,HACA03,
2IFCnew,50,0,50,0,0.698719951324,3,Yes,7.8,-1,Correct Rejection,0.600486007053,False,True,stimulusHACA03_2IFCnew_2019_Jun_28_1519_551,stimulusHACA03_2IFCnew_2019_Jun_28_1519_552,True,2019_Jun_28_1519,2IFCnew,3,HACA03,
2IFCnew,51,0,51,0,0.568857365986,1,No,4.4,-1,Hit,0.634930188302,True,False,stimulusHACA03_2IFCnew_2019_Jun_28_1519_553,stimulusHACA03_2IFCnew_2019_Jun_28_1519_554,True,2019_Jun_28_1519,2IFCnew,3,HACA03,
2IFCnew,52,0,52,0,0.567531705601,1,No,7.8,-1,Hit,0.601523873163,True,False,stimulusHACA03_2IFCnew_2019_Jun_28_1519_555,stimulusHACA03_2IFCnew_2019_Jun_28_1519_556,True,2019_Jun_28_1519,2IFCnew,3,HACA03,
2IFCnew,53,0,53,0,0.332810979104,1,No,7.8,-1,Hit,0.534378698794,True,False,stimulusHACA03_2IFCnew_2019_Jun_28_1519_557,stimulusHACA03_2IFCnew_2019_Jun_28_1519_558,True,2019_Jun_28_1519,2IFCnew,3,HACA03,
2IFCnew,54,0,54,0,0.336955874693,1,No,4.4,-1,Hit,0.601395371603,True,False,stimulusHACA03_2IFCnew_2019_Jun_28_1519_559,stimulusHACA03_2IFCnew_2019_Jun_28_1519_560,True,2019_Jun_28_1519,2IFCnew,3,HACA03,
2IFCnew,55,0,55,0,0.267696787138,1,No,4.4,-1,Hit,0.567503788276,True,False,stimulusHACA03_2IFCnew_2019_Jun_28_1519_561,stimulusHACA03_2IFCnew_2019_Jun_28_1519_562,True,2019_Jun_28_1519,2IFCnew,3,HACA03,
2IFCnew,56,0,56,0,0.133016827982,2,No,8.8,-1,False Alarm,0.567955802195,False,True,stimulusHACA03_2IFCnew_2019_Jun_28_1519_563,stimulusHACA03_2IFCnew_2019_Jun_28_1519_564,True,2019_Jun_28_1519,2IFCnew,3,HACA03,
2IFCnew,57,0,57,0,0.267396265641,1,No,8.8,-1,Hit,0.500478083501,True,False,stimulusHACA03_2IFCnew_2019_Jun_28_1519_565,stimulusHACA03_2IFCnew_2019_Jun_28_1519_566,True,2019_Jun_28_1519,2IFCnew,3,HACA03,
2IFCnew,58,0,58,0,0.601364990929,8,No,6.7,-1,Correct Rejection,0.635324725183,False,True,stimulusHACA03_2IFCnew_2019_Jun_28_1519_567,stimulusHACA03_2IFCnew_2019_Jun_28_1519_568,True,2019_Jun_28_1519,2IFCnew,3,HACA03,
2IFCnew,59,0,59,0,0.501479000319,3,Yes,5.7,-1,Correct Rejection,0.500492863124,False,True,stimulusHACA03_2IFCnew_2019_Jun_28_1519_569,stimulusHACA03_2IFCnew_2019_Jun_28_1519_570,True,2019_Jun_28_1519,2IFCnew,3,HACA03,
2IFCnew,60,0,60,0,0.432400964433,6,No,4.4,-1,Miss,0.534249786753,True,False,stimulusHACA03_2IFCnew_2019_Jun_28_1519_571,stimulusHACA03_2IFCnew_2019_Jun_28_1519_572,True,2019_Jun_28_1519,2IFCnew,3,HACA03,
2IFCnew,61,0,61,0,0.468739415519,3,Yes,9.8,-1,Correct Rejection,0.501091032056,False,True,stimulusHACA03_2IFCnew_2019_Jun_28_1519_573,stimulusHACA03_2IFCnew_2019_Jun_28_1519_574,True,2019_Jun_28_1519,2IFCnew,3,HACA03,
2IFCnew,62,0,62,0,0.435163954506,3,Yes,6.7,-1,Correct Rejection,0.509701051051,False,True,stimulusHACA03_2IFCnew_2019_Jun_28_1519_575,stimulusHACA03_2IFCnew_2019_Jun_28_1519_576,True,2019_Jun_28_1519,2IFCnew,3,HACA03,
2IFCnew,63,0,63,0,0.662425839575,6,No,8.8,-1,Miss,0.567340390291,True,False,stimulusHACA03_2IFCnew_2019_Jun_28_1519_577,stimulusHACA03_2IFCnew_2019_Jun_28_1519_578,True,2019_Jun_28_1519,2IFCnew,3,HACA03,
2IFCnew,64,0,64,0,0.46875624801,3,Yes,7.8,-1,Correct Rejection,0.467857147334,False,True,stimulusHACA03_2IFCnew_2019_Jun_28_1519_579,stimulusHACA03_2IFCnew_2019_Jun_28_1519_580,True,2019_Jun_28_1519,2IFCnew,3,HACA03,
2IFCnew,65,0,65,0,0.199933327036,6,No,6.7,-1,Miss,0.601050921716,True,False,stimulusHACA03_2IFCnew_2019_Jun_28_1519_581,stimulusHACA03_2IFCnew_2019_Jun_28_1519_582,True,2019_Jun_28_1519,2IFCnew,3,HACA03,
2IFCnew,66,0,66,0,0.600669111591,1,No,7.8,-1,Hit,0.603074103594,True,False,stimulusHACA03_2IFCnew_2019_Jun_28_1519_583,stimulusHACA03_2IFCnew_2019_Jun_28_1519_584,True,2019_Jun_28_1519,2IFCnew,3,HACA03,
2IFCnew,67,0,67,0,0.400902467314,1,No,9.8,-1,Hit,0.601031625876,True,False,stimulusHACA03_2IFCnew_2019_Jun_28_1519_585,stimulusHACA03_2IFCnew_2019_Jun_28_1519_586,True,2019_Jun_28_1519,2IFCnew,3,HACA03,
2IFCnew,68,0,68,0,-1,2,No,8.8,-1,False Alarm,0.444814302959,False,True,stimulusHACA03_2IFCnew_2019_Jun_28_1519_587,stimulusHACA03_2IFCnew_2019_Jun_28_1519_588,True,2019_Jun_28_1519,2IFCnew,3,HACA03,
2IFCnew,69,0,69,0,0.63158298796,8,No,6.7,-1,Correct Rejection,0.474110618932,False,True,stimulusHACA03_2IFCnew_2019_Jun_28_1519_589,stimulusHACA03_2IFCnew_2019_Jun_28_1519_590,True,2019_Jun_28_1519,2IFCnew,3,HACA03,
2IFCnew,70,0,70,0,0.501384574221,3,Yes,2.7,-1,Correct Rejection,0.467173173791,False,True,stimulusHACA03_2IFCnew_2019_Jun_28_1519_591,stimulusHACA03_2IFCnew_2019_Jun_28_1519_592,True,2019_Jun_28_1519,2IFCnew,3,HACA03,
2IFCnew,71,0,71,0,0.50006425078,1,No,8.8,-1,Hit,0.626043459866,True,False,stimulusHACA03_2IFCnew_2019_Jun_28_1519_593,stimulusHACA03_2IFCnew_2019_Jun_28_1519_594,True,2019_Jun_28_1519,2IFCnew,3,HACA03,
2IFCnew,72,0,72,0,0.333350029076,6,No,5.7,-1,Miss,0.599614412989,True,False,stimulusHACA03_2IFCnew_2019_Jun_28_1519_595,stimulusHACA03_2IFCnew_2019_Jun_28_1519_596,True,2019_Jun_28_1519,2IFCnew,3,HACA03,
2IFCnew,73,0,73,0,0.500694031827,1,No,6.7,-1,Hit,0.466584858019,True,False,stimulusHACA03_2IFCnew_2019_Jun_28_1519_597,stimulusHACA03_2IFCnew_2019_Jun_28_1519_598,True,2019_Jun_28_1519,2IFCnew,3,HACA03,
2IFCnew,74,0,74,0,0.3021323469,6,No,7.8,-1,Miss,0.571082948241,True,False,stimulusHACA03_2IFCnew_2019_Jun_28_1519_599,stimulusHACA03_2IFCnew_2019_Jun_28_1519_600,True,2019_Jun_28_1519,2IFCnew,3,HACA03,
2IFCnew,0,0,0,0,0.600576327648,6,No,11.1,-1,Miss,0.834019017639,True,False,stimulusHACA03_2IFCnew_2019_Jun_28_1519_601,stimulusHACA03_2IFCnew_2019_Jun_28_1519_602,True,2019_Jun_28_1519,2IFCnew,3,HACA03,
2IFCnew,1,0,1,0,0.634440814843,3,Yes,2.7,-1,Correct Rejection,0.467197806807,False,True,stimulusHACA03_2IFCnew_2019_Jun_28_1519_603,stimulusHACA03_2IFCnew_2019_Jun_28_1519_604,True,2019_Jun_28_1519,2IFCnew,3,HACA03,
2IFCnew,2,0,2,0,0.500563477399,3,Yes,9.8,-1,Correct Rejection,0.467956089415,False,True,stimulusHACA03_2IFCnew_2019_Jun_28_1519_605,stimulusHACA03_2IFCnew_2019_Jun_28_1519_606,True,2019_Jun_28_1519,2IFCnew,3,HACA03,
2IFCnew,3,0,3,0,0.234111472964,6,No,5.7,-1,Miss,0.464607246919,True,False,stimulusHACA03_2IFCnew_2019_Jun_28_1519_607,stimulusHACA03_2IFCnew_2019_Jun_28_1519_608,True,2019_Jun_28_1519,2IFCnew,3,HACA03,
2IFCnew,4,0,4,0,0.366365502123,3,Yes,8.8,-1,Correct Rejection,0.462018739898,False,True,stimulusHACA03_2IFCnew_2019_Jun_28_1519_609,stimulusHACA03_2IFCnew_2019_Jun_28_1519_610,True,2019_Jun_28_1519,2IFCnew,3,HACA03,
2IFCnew,5,0,5,0,0.234597562114,1,No,6.7,-1,Hit,0.500725233462,True,False,stimulusHACA03_2IFCnew_2019_Jun_28_1519_611,stimulusHACA03_2IFCnew_2019_Jun_28_1519_612,True,2019_Jun_28_1519,2IFCnew,3,HACA03,
2IFCnew,6,0,6,0,0.300386695424,1,No,6.7,-1,Hit,0.568685346283,True,False,stimulusHACA03_2IFCnew_2019_Jun_28_1519_613,stimulusHACA03_2IFCnew_2019_Jun_28_1519_614,True,2019_Jun_28_1519,2IFCnew,3,HACA03,
2IFCnew,7,0,7,0,0.599875521846,5,Yes,4.4,-1,False Alarm,0.600364895305,False,True,stimulusHACA03_2IFCnew_2019_Jun_28_1519_615,stimulusHACA03_2IFCnew_2019_Jun_28_1519_616,True,2019_Jun_28_1519,2IFCnew,3,HACA03,
2IFCnew,8,0,8,0,0.367413631873,3,Yes,11.1,-1,Correct Rejection,0.367454276187,False,True,stimulusHACA03_2IFCnew_2019_Jun_28_1519_617,stimulusHACA03_2IFCnew_2019_Jun_28_1519_618,True,2019_Jun_28_1519,2IFCnew,3,HACA03,
2IFCnew,9,0,9,0,0.270344002405,8,No,9.8,-1,Correct Rejection,0.468436430907,False,True,stimulusHACA03_2IFCnew_2019_Jun_28_1519_619,stimulusHACA03_2IFCnew_2019_Jun_28_1519_620,True,2019_Jun_28_1519,2IFCnew,3,HACA03,
2IFCnew,10,0,10,0,0.402510995511,6,No,5.7,-1,Miss,0.43151582242,True,False,stimulusHACA03_2IFCnew_2019_Jun_28_1519_621,stimulusHACA03_2IFCnew_2019_Jun_28_1519_622,True,2019_Jun_28_1519,2IFCnew,3,HACA03,
2IFCnew,11,0,11,0,0.63418463245,3,Yes,2.7,-1,Correct Rejection,0.532110419357,False,True,stimulusHACA03_2IFCnew_2019_Jun_28_1519_623,stimulusHACA03_2IFCnew_2019_Jun_28_1519_624,True,2019_Jun_28_1519,2IFCnew,3,HACA03,
2IFCnew,12,0,12,0,-1,1,Yes,7.8,-1,Hit,0.534409079235,True,False,stimulusHACA03_2IFCnew_2019_Jun_28_1519_625,stimulusHACA03_2IFCnew_2019_Jun_28_1519_626,True,2019_Jun_28_1519,2IFCnew,3,HACA03,
2IFCnew,13,0,13,0,-1,1,Yes,8.8,-1,Hit,0.43427470699,True,False,stimulusHACA03_2IFCnew_2019_Jun_28_1519_627,stimulusHACA03_2IFCnew_2019_Jun_28_1519_628,True,2019_Jun_28_1519,2IFCnew,3,HACA03,
2IFCnew,14,0,14,0,0.677206399618,5,Yes,8.8,-1,False Alarm,0.502330888063,False,True,stimulusHACA03_2IFCnew_2019_Jun_28_1519_629,stimulusHACA03_2IFCnew_2019_Jun_28_1519_630,True,2019_Jun_28_1519,2IFCnew,3,HACA03,
2IFCnew,15,0,15,0,0.503002545098,1,No,7.8,-1,Hit,0.502291885903,True,False,stimulusHACA03_2IFCnew_2019_Jun_28_1519_631,stimulusHACA03_2IFCnew_2019_Jun_28_1519_632,True,2019_Jun_28_1519,2IFCnew,3,HACA03,
2IFCnew,16,0,16,0,0.602937390795,1,No,7.8,-1,Hit,0.567125673406,True,False,stimulusHACA03_2IFCnew_2019_Jun_28_1519_633,stimulusHACA03_2IFCnew_2019_Jun_28_1519_634,True,2019_Jun_28_1519,2IFCnew,3,HACA03,
2IFCnew,17,0,17,0,0.301780917449,1,No,8.8,-1,Hit,0.470086424379,True,False,stimulusHACA03_2IFCnew_2019_Jun_28_1519_635,stimulusHACA03_2IFCnew_2019_Jun_28_1519_636,True,2019_Jun_28_1519,2IFCnew,3,HACA03,
2IFCnew,18,0,18,0,0.334210127825,2,No,4.4,-1,False Alarm,0.466928486945,False,True,stimulusHACA03_2IFCnew_2019_Jun_28_1519_637,stimulusHACA03_2IFCnew_2019_Jun_28_1519_638,True,2019_Jun_28_1519,2IFCnew,3,HACA03,
2IFCnew,19,0,19,0,0.367565534776,1,No,6.7,-1,Hit,0.467722487403,True,False,stimulusHACA03_2IFCnew_2019_Jun_28_1519_639,stimulusHACA03_2IFCnew_2019_Jun_28_1519_640,True,2019_Jun_28_1519,2IFCnew,3,HACA03,
2IFCnew,20,0,20,0,0.600826762151,1,No,2.7,-1,Hit,0.497498323908,True,False,stimulusHACA03_2IFCnew_2019_Jun_28_1519_641,stimulusHACA03_2IFCnew_2019_Jun_28_1519_642,True,2019_Jun_28_1519,2IFCnew,3,HACA03,
2IFCnew,21,0,21,0,0.366389313713,1,No,6.7,-1,Hit,0.769318247447,True,False,stimulusHACA03_2IFCnew_2019_Jun_28_1519_643,stimulusHACA03_2IFCnew_2019_Jun_28_1519_644,True,2019_Jun_28_1519,2IFCnew,3,HACA03,
2IFCnew,22,0,22,0,0.309563681716,1,No,4.4,-1,Hit,0.59504542104,True,False,stimulusHACA03_2IFCnew_2019_Jun_28_1519_645,stimulusHACA03_2IFCnew_2019_Jun_28_1519_646,True,2019_Jun_28_1519,2IFCnew,3,HACA03,
2IFCnew,23,0,23,0,0.433860463556,1,No,4.4,-1,Hit,0.466693242779,True,False,stimulusHACA03_2IFCnew_2019_Jun_28_1519_647,stimulusHACA03_2IFCnew_2019_Jun_28_1519_648,True,2019_Jun_28_1519,2IFCnew,3,HACA03,
2IFCnew,24,0,24,0,0.304627659498,2,No,9.8,-1,False Alarm,0.769544459647,False,True,stimulusHACA03_2IFCnew_2019_Jun_28_1519_649,stimulusHACA03_2IFCnew_2019_Jun_28_1519_650,True,2019_Jun_28_1519,2IFCnew,3,HACA03,
2IFCnew,25,0,25,0,0.23394273757,2,No,11.1,-1,False Alarm,0.470906289527,False,True,stimulusHACA03_2IFCnew_2019_Jun_28_1519_651,stimulusHACA03_2IFCnew_2019_Jun_28_1519_652,True,2019_Jun_28_1519,2IFCnew,3,HACA03,
2IFCnew,26,0,26,0,0.367354102433,3,Yes,11.1,-1,Correct Rejection,0.567714399425,False,True,stimulusHACA03_2IFCnew_2019_Jun_28_1519_653,stimulusHACA03_2IFCnew_2019_Jun_28_1519_654,True,2019_Jun_28_1519,2IFCnew,3,HACA03,
2IFCnew,27,0,27,0,0.532215109328,6,No,5.7,-1,Miss,0.46681804955,True,False,stimulusHACA03_2IFCnew_2019_Jun_28_1519_655,stimulusHACA03_2IFCnew_2019_Jun_28_1519_656,True,2019_Jun_28_1519,2IFCnew,3,HACA03,
2IFCnew,28,0,28,0,0.377336584264,3,Yes,8.8,-1,Correct Rejection,0.599455530755,False,True,stimulusHACA03_2IFCnew_2019_Jun_28_1519_657,stimulusHACA03_2IFCnew_2019_Jun_28_1519_658,True,2019_Jun_28_1519,2IFCnew,3,HACA03,
2IFCnew,29,0,29,0,0.201137875672,1,No,9.8,-1,Hit,0.534447260434,True,False,stimulusHACA03_2IFCnew_2019_Jun_28_1519_659,stimulusHACA03_2IFCnew_2019_Jun_28_1519_660,True,2019_Jun_28_1519,2IFCnew,3,HACA03,
2IFCnew,30,0,30,0,0.133835050743,1,No,8.8,-1,Hit,0.434602324385,True,False,stimulusHACA03_2IFCnew_2019_Jun_28_1519_661,stimulusHACA03_2IFCnew_2019_Jun_28_1519_662,True,2019_Jun_28_1519,2IFCnew,3,HACA03,
2IFCnew,31,0,31,0,0.666113384301,6,No,7.8,-1,Miss,0.600982359843,True,False,stimulusHACA03_2IFCnew_2019_Jun_28_1519_663,stimulusHACA03_2IFCnew_2019_Jun_28_1519_664,True,2019_Jun_28_1519,2IFCnew,3,HACA03,
2IFCnew,32,0,32,0,0.135244463105,1,No,8.8,-1,Hit,0.502413818846,True,False,stimulusHACA03_2IFCnew_2019_Jun_28_1519_665,stimulusHACA03_2IFCnew_2019_Jun_28_1519_666,True,2019_Jun_28_1519,2IFCnew,3,HACA03,
2IFCnew,33,0,33,0,0.362828628626,3,Yes,5.7,-1,Correct Rejection,0.668487174669,False,True,stimulusHACA03_2IFCnew_2019_Jun_28_1519_667,stimulusHACA03_2IFCnew_2019_Jun_28_1519_668,True,2019_Jun_28_1519,2IFCnew,3,HACA03,
2IFCnew,34,0,34,0,0.166539738886,1,No,5.7,-1,Hit,0.535398500739,True,False,stimulusHACA03_2IFCnew_2019_Jun_28_1519_669,stimulusHACA03_2IFCnew_2019_Jun_28_1519_670,True,2019_Jun_28_1519,2IFCnew,3,HACA03,
2IFCnew,35,0,35,0,0.334047550568,6,No,5.7,-1,Miss,0.567538274452,True,False,stimulusHACA03_2IFCnew_2019_Jun_28_1519_671,stimulusHACA03_2IFCnew_2019_Jun_28_1519_672,True,2019_Jun_28_1519,2IFCnew,3,HACA03,
2IFCnew,36,0,36,0,0.435232105665,3,Yes,11.1,-1,Correct Rejection,0.534291252028,False,True,stimulusHACA03_2IFCnew_2019_Jun_28_1519_673,stimulusHACA03_2IFCnew_2019_Jun_28_1519_674,True,2019_Jun_28_1519,2IFCnew,3,HACA03,
2IFCnew,37,0,37,0,0.267911914503,6,No,6.7,-1,Miss,0.465560950805,True,False,stimulusHACA03_2IFCnew_2019_Jun_28_1519_675,stimulusHACA03_2IFCnew_2019_Jun_28_1519_676,True,2019_Jun_28_1519,2IFCnew,3,HACA03,
2IFCnew,38,0,38,0,0.400907393778,3,Yes,4.4,-1,Correct Rejection,0.50354570034,False,True,stimulusHACA03_2IFCnew_2019_Jun_28_1519_677,stimulusHACA03_2IFCnew_2019_Jun_28_1519_678,True,2019_Jun_28_1519,2IFCnew,3,HACA03,
2IFCnew,39,0,39,0,0.563457834767,8,No,7.8,-1,Correct Rejection,0.499761676649,False,True,stimulusHACA03_2IFCnew_2019_Jun_28_1519_679,stimulusHACA03_2IFCnew_2019_Jun_28_1519_680,True,2019_Jun_28_1519,2IFCnew,3,HACA03,
2IFCnew,40,0,40,0,0.266040224815,1,No,9.8,-1,Hit,0.534306031885,True,False,stimulusHACA03_2IFCnew_2019_Jun_28_1519_681,stimulusHACA03_2IFCnew_2019_Jun_28_1519_682,True,2019_Jun_28_1519,2IFCnew,3,HACA03,
2IFCnew,41,0,41,0,0.267660248326,1,No,2.7,-1,Hit,0.535682600224,True,False,stimulusHACA03_2IFCnew_2019_Jun_28_1519_683,stimulusHACA03_2IFCnew_2019_Jun_28_1519_684,True,2019_Jun_28_1519,2IFCnew,3,HACA03,
2IFCnew,42,0,42,0,0.100797818508,2,No,5.7,-1,False Alarm,0.499515347648,False,True,stimulusHACA03_2IFCnew_2019_Jun_28_1519_685,stimulusHACA03_2IFCnew_2019_Jun_28_1519_686,True,2019_Jun_28_1519,2IFCnew,3,HACA03,
2IFCnew,43,0,43,0,0.36749163596,6,No,4.4,-1,Miss,0.627323549474,True,False,stimulusHACA03_2IFCnew_2019_Jun_28_1519_687,stimulusHACA03_2IFCnew_2019_Jun_28_1519_688,True,2019_Jun_28_1519,2IFCnew,3,HACA03,
2IFCnew,44,0,44,0,0.534343391657,6,No,2.7,-1,Miss,0.536529971985,True,False,stimulusHACA03_2IFCnew_2019_Jun_28_1519_689,stimulusHACA03_2IFCnew_2019_Jun_28_1519_690,True,2019_Jun_28_1519,2IFCnew,3,HACA03,
2IFCnew,45,0,45,0,0.500609869603,3,Yes,6.7,-1,Correct Rejection,0.501224460313,False,True,stimulusHACA03_2IFCnew_2019_Jun_28_1519_691,stimulusHACA03_2IFCnew_2019_Jun_28_1519_692,True,2019_Jun_28_1519,2IFCnew,3,HACA03,
2IFCnew,46,0,46,0,0.332914026687,6,No,8.8,-1,Miss,0.566038951976,True,False,stimulusHACA03_2IFCnew_2019_Jun_28_1519_693,stimulusHACA03_2IFCnew_2019_Jun_28_1519_694,True,2019_Jun_28_1519,2IFCnew,3,HACA03,
2IFCnew,47,0,47,0,0.533975950908,3,Yes,8.8,-1,Correct Rejection,0.534194362815,False,True,stimulusHACA03_2IFCnew_2019_Jun_28_1519_695,stimulusHACA03_2IFCnew_2019_Jun_28_1519_696,True,2019_Jun_28_1519,2IFCnew,3,HACA03,
2IFCnew,48,0,48,0,0.467729877215,6,No,5.7,-1,Miss,0.501117307227,True,False,stimulusHACA03_2IFCnew_2019_Jun_28_1519_697,stimulusHACA03_2IFCnew_2019_Jun_28_1519_698,True,2019_Jun_28_1519,2IFCnew,3,HACA03,
2IFCnew,49,0,49,0,0.500662830193,3,Yes,11.1,-1,Correct Rejection,0.501303696074,False,True,stimulusHACA03_2IFCnew_2019_Jun_28_1519_699,stimulusHACA03_2IFCnew_2019_Jun_28_1519_700,True,2019_Jun_28_1519,2IFCnew,3,HACA03,
2IFCnew,50,0,50,0,0.535514686024,8,No,4.4,-1,Correct Rejection,0.50085578789,False,True,stimulusHACA03_2IFCnew_2019_Jun_28_1519_701,stimulusHACA03_2IFCnew_2019_Jun_28_1519_702,True,2019_Jun_28_1519,2IFCnew,3,HACA03,
2IFCnew,51,0,51,0,0.53599092178,3,Yes,6.7,-1,Correct Rejection,0.530222307891,False,True,stimulusHACA03_2IFCnew_2019_Jun_28_1519_703,stimulusHACA03_2IFCnew_2019_Jun_28_1519_704,True,2019_Jun_28_1519,2IFCnew,3,HACA03,
2IFCnew,52,0,52,0,0.333642749814,6,No,5.7,-1,Miss,0.569128328003,True,False,stimulusHACA03_2IFCnew_2019_Jun_28_1519_705,stimulusHACA03_2IFCnew_2019_Jun_28_1519_706,True,2019_Jun_28_1519,2IFCnew,3,HACA03,
2IFCnew,53,0,53,0,0.336366327479,8,No,6.7,-1,Correct Rejection,0.568813848076,False,True,stimulusHACA03_2IFCnew_2019_Jun_28_1519_707,stimulusHACA03_2IFCnew_2019_Jun_28_1519_708,True,2019_Jun_28_1519,2IFCnew,3,HACA03,
2IFCnew,54,0,54,0,0.600520903477,6,No,9.8,-1,Miss,0.559500970179,True,False,stimulusHACA03_2IFCnew_2019_Jun_28_1519_709,stimulusHACA03_2IFCnew_2019_Jun_28_1519_710,True,2019_Jun_28_1519,2IFCnew,3,HACA03,
2IFCnew,55,0,55,0,-1,1,No,7.8,-1,Hit,0.668966695201,True,False,stimulusHACA03_2IFCnew_2019_Jun_28_1519_711,stimulusHACA03_2IFCnew_2019_Jun_28_1519_712,True,2019_Jun_28_1519,2IFCnew,3,HACA03,
2IFCnew,56,0,56,0,0.367136511719,3,Yes,7.8,-1,Correct Rejection,0.50077737309,False,True,stimulusHACA03_2IFCnew_2019_Jun_28_1519_713,stimulusHACA03_2IFCnew_2019_Jun_28_1519_714,True,2019_Jun_28_1519,2IFCnew,3,HACA03,
2IFCnew,57,0,57,0,0.501725739799,6,No,6.7,-1,Miss,0.76824137941,True,False,stimulusHACA03_2IFCnew_2019_Jun_28_1519_715,stimulusHACA03_2IFCnew_2019_Jun_28_1519_716,True,2019_Jun_28_1519,2IFCnew,3,HACA03,
2IFCnew,58,0,58,0,-1,1,No,6.7,-1,Hit,0.73445407534,True,False,stimulusHACA03_2IFCnew_2019_Jun_28_1519_717,stimulusHACA03_2IFCnew_2019_Jun_28_1519_718,True,2019_Jun_28_1519,2IFCnew,3,HACA03,
2IFCnew,59,0,59,0,-1,0,No,2.7,-1,No Answer,-1,False,True,stimulusHACA03_2IFCnew_2019_Jun_28_1519_719,stimulusHACA03_2IFCnew_2019_Jun_28_1519_720,True,2019_Jun_28_1519,2IFCnew,3,HACA03,
2IFCnew,60,0,60,0,0.368301647715,4,Yes,4.4,-1,Miss,0.366966544883,True,False,stimulusHACA03_2IFCnew_2019_Jun_28_1519_721,stimulusHACA03_2IFCnew_2019_Jun_28_1519_722,True,2019_Jun_28_1519,2IFCnew,3,HACA03,
2IFCnew,61,0,61,0,-1,1,Yes,9.8,-1,Hit,0.50017263554,True,False,stimulusHACA03_2IFCnew_2019_Jun_28_1519_723,stimulusHACA03_2IFCnew_2019_Jun_28_1519_724,True,2019_Jun_28_1519,2IFCnew,3,HACA03,
2IFCnew,62,0,62,0,-1,1,Yes,8.8,-1,Hit,0.434384733904,True,False,stimulusHACA03_2IFCnew_2019_Jun_28_1519_725,stimulusHACA03_2IFCnew_2019_Jun_28_1519_726,True,2019_Jun_28_1519,2IFCnew,3,HACA03,
2IFCnew,63,0,63,0,-1,1,Yes,4.4,-1,Hit,0.534542507492,True,False,stimulusHACA03_2IFCnew_2019_Jun_28_1519_727,stimulusHACA03_2IFCnew_2019_Jun_28_1519_728,True,2019_Jun_28_1519,2IFCnew,3,HACA03,
2IFCnew,64,0,64,0,-1,1,Yes,11.1,-1,Hit,0.500913264696,True,False,stimulusHACA03_2IFCnew_2019_Jun_28_1519_729,stimulusHACA03_2IFCnew_2019_Jun_28_1519_730,True,2019_Jun_28_1519,2IFCnew,3,HACA03,
2IFCnew,65,0,65,0,-1,1,Yes,6.7,-1,Hit,0.560990439495,True,False,stimulusHACA03_2IFCnew_2019_Jun_28_1519_731,stimulusHACA03_2IFCnew_2019_Jun_28_1519_732,True,2019_Jun_28_1519,2IFCnew,3,HACA03,
2IFCnew,66,0,66,0,0.702224391745,3,Yes,8.8,-1,Correct Rejection,0.76825164305,False,True,stimulusHACA03_2IFCnew_2019_Jun_28_1519_733,stimulusHACA03_2IFCnew_2019_Jun_28_1519_734,True,2019_Jun_28_1519,2IFCnew,3,HACA03,
2IFCnew,67,0,67,0,-1,1,Yes,2.7,-1,Hit,0.63443014049,True,False,stimulusHACA03_2IFCnew_2019_Jun_28_1519_735,stimulusHACA03_2IFCnew_2019_Jun_28_1519_736,True,2019_Jun_28_1519,2IFCnew,3,HACA03,
2IFCnew,68,0,68,0,-1,1,Yes,7.8,-1,Hit,0.503180722939,True,False,stimulusHACA03_2IFCnew_2019_Jun_28_1519_737,stimulusHACA03_2IFCnew_2019_Jun_28_1519_738,True,2019_Jun_28_1519,2IFCnew,3,HACA03,
2IFCnew,69,0,69,0,-1,1,Yes,11.1,-1,Hit,0.466311022406,True,False,stimulusHACA03_2IFCnew_2019_Jun_28_1519_739,stimulusHACA03_2IFCnew_2019_Jun_28_1519_740,True,2019_Jun_28_1519,2IFCnew,3,HACA03,
2IFCnew,70,0,70,0,-1,1,Yes,2.7,-1,Hit,0.501114022685,True,False,stimulusHACA03_2IFCnew_2019_Jun_28_1519_741,stimulusHACA03_2IFCnew_2019_Jun_28_1519_742,True,2019_Jun_28_1519,2IFCnew,3,HACA03,
2IFCnew,71,0,71,0,0.567750117276,3,Yes,8.8,-1,Correct Rejection,0.69950656197,False,True,stimulusHACA03_2IFCnew_2019_Jun_28_1519_743,stimulusHACA03_2IFCnew_2019_Jun_28_1519_744,True,2019_Jun_28_1519,2IFCnew,3,HACA03,
2IFCnew,72,0,72,0,0.469427083852,1,No,11.1,-1,Hit,0.467070947401,True,False,stimulusHACA03_2IFCnew_2019_Jun_28_1519_745,stimulusHACA03_2IFCnew_2019_Jun_28_1519_746,True,2019_Jun_28_1519,2IFCnew,3,HACA03,
2IFCnew,73,0,73,0,0.698831209913,1,No,11.1,-1,Hit,0.534370898269,True,False,stimulusHACA03_2IFCnew_2019_Jun_28_1519_747,stimulusHACA03_2IFCnew_2019_Jun_28_1519_748,True,2019_Jun_28_1519,2IFCnew,3,HACA03,
2IFCnew,74,0,74,0,0.401760923676,1,No,9.8,-1,Hit,0.534666082589,True,False,stimulusHACA03_2IFCnew_2019_Jun_28_1519_749,stimulusHACA03_2IFCnew_2019_Jun_28_1519_750,True,2019_Jun_28_1519,2IFCnew,3,HACA03,
2IFCnew,0,0,0,0,0.435266181128,8,No,7.8,-1,Correct Rejection,0.435262075625,False,True,stimulusHACA03_2IFCnew_2019_Jun_28_1519_751,stimulusHACA03_2IFCnew_2019_Jun_28_1519_752,True,2019_Jun_28_1519,2IFCnew,3,HACA03,
2IFCnew,1,0,1,0,0.501051208936,6,No,11.1,-1,Miss,0.44275006582,True,False,stimulusHACA03_2IFCnew_2019_Jun_28_1519_753,stimulusHACA03_2IFCnew_2019_Jun_28_1519_754,True,2019_Jun_28_1519,2IFCnew,3,HACA03,
2IFCnew,2,0,2,0,0.464624490123,8,No,6.7,-1,Correct Rejection,0.467182616238,False,True,stimulusHACA03_2IFCnew_2019_Jun_28_1519_755,stimulusHACA03_2IFCnew_2019_Jun_28_1519_756,True,2019_Jun_28_1519,2IFCnew,3,HACA03,
2IFCnew,3,0,3,0,0.434585902607,1,No,9.8,-1,Hit,0.432015049038,True,False,stimulusHACA03_2IFCnew_2019_Jun_28_1519_757,stimulusHACA03_2IFCnew_2019_Jun_28_1519_758,True,2019_Jun_28_1519,2IFCnew,3,HACA03,
2IFCnew,4,0,4,0,0.368030275451,1,No,4.4,-1,Hit,0.459150649374,True,False,stimulusHACA03_2IFCnew_2019_Jun_28_1519_759,stimulusHACA03_2IFCnew_2019_Jun_28_1519_760,True,2019_Jun_28_1519,2IFCnew,3,HACA03,
2IFCnew,5,0,5,0,0.467244609259,6,No,4.4,-1,Miss,0.501125107519,True,False,stimulusHACA03_2IFCnew_2019_Jun_28_1519_761,stimulusHACA03_2IFCnew_2019_Jun_28_1519_762,True,2019_Jun_28_1519,2IFCnew,3,HACA03,
2IFCnew,6,0,6,0,0.40330581693,3,Yes,2.7,-1,Correct Rejection,0.47015211219,False,True,stimulusHACA03_2IFCnew_2019_Jun_28_1519_763,stimulusHACA03_2IFCnew_2019_Jun_28_1519_764,True,2019_Jun_28_1519,2IFCnew,3,HACA03,
2IFCnew,7,0,7,0,0.569852945628,3,Yes,5.7,-1,Correct Rejection,0.443194279214,False,True,stimulusHACA03_2IFCnew_2019_Jun_28_1519_765,stimulusHACA03_2IFCnew_2019_Jun_28_1519_766,True,2019_Jun_28_1519,2IFCnew,3,HACA03,
2IFCnew,8,0,8,0,0.167238081573,1,No,7.8,-1,Hit,0.502727067098,True,False,stimulusHACA03_2IFCnew_2019_Jun_28_1519_767,stimulusHACA03_2IFCnew_2019_Jun_28_1519_768,True,2019_Jun_28_1519,2IFCnew,3,HACA03,
2IFCnew,9,0,9,0,0.500834028935,4,Yes,2.7,-1,Miss,0.633898480562,True,False,stimulusHACA03_2IFCnew_2019_Jun_28_1519_769,stimulusHACA03_2IFCnew_2019_Jun_28_1519_770,True,2019_Jun_28_1519,2IFCnew,3,HACA03,
2IFCnew,10,0,10,0,0.435158206848,1,No,8.8,-1,Hit,0.534419343108,True,False,stimulusHACA03_2IFCnew_2019_Jun_28_1519_771,stimulusHACA03_2IFCnew_2019_Jun_28_1519_772,True,2019_Jun_28_1519,2IFCnew,3,HACA03,
2IFCnew,11,0,11,0,0.434989471454,1,No,7.8,-1,Hit,0.598419307033,True,False,stimulusHACA03_2IFCnew_2019_Jun_28_1519_773,stimulusHACA03_2IFCnew_2019_Jun_28_1519_774,True,2019_Jun_28_1519,2IFCnew,3,HACA03,
2IFCnew,12,0,12,0,0.367431285325,2,No,5.7,-1,False Alarm,0.498372791801,False,True,stimulusHACA03_2IFCnew_2019_Jun_28_1519_775,stimulusHACA03_2IFCnew_2019_Jun_28_1519_776,True,2019_Jun_28_1519,2IFCnew,3,HACA03,
2IFCnew,13,0,13,0,0.334306195844,3,Yes,8.8,-1,Correct Rejection,0.502963542938,False,True,stimulusHACA03_2IFCnew_2019_Jun_28_1519_777,stimulusHACA03_2IFCnew_2019_Jun_28_1519_778,True,2019_Jun_28_1519,2IFCnew,3,HACA03,
2IFCnew,14,0,14,0,0.366622094763,1,No,4.4,-1,Hit,0.532584602712,True,False,stimulusHACA03_2IFCnew_2019_Jun_28_1519_779,stimulusHACA03_2IFCnew_2019_Jun_28_1519_780,True,2019_Jun_28_1519,2IFCnew,3,HACA03,
2IFCnew,15,0,15,0,0.334334113402,1,No,4.4,-1,Hit,0.427821298363,True,False,stimulusHACA03_2IFCnew_2019_Jun_28_1519_781,stimulusHACA03_2IFCnew_2019_Jun_28_1519_782,True,2019_Jun_28_1519,2IFCnew,3,HACA03,
2IFCnew,16,0,16,0,0.433897002367,2,No,2.7,-1,False Alarm,0.500330696581,False,True,stimulusHACA03_2IFCnew_2019_Jun_28_1519_783,stimulusHACA03_2IFCnew_2019_Jun_28_1519_784,True,2019_Jun_28_1519,2IFCnew,3,HACA03,
2IFCnew,17,0,17,0,0.468611324439,1,No,8.8,-1,Hit,0.467487653717,True,False,stimulusHACA03_2IFCnew_2019_Jun_28_1519_785,stimulusHACA03_2IFCnew_2019_Jun_28_1519_786,True,2019_Jun_28_1519,2IFCnew,3,HACA03,
2IFCnew,18,0,18,0,0.399682728341,5,Yes,6.7,-1,False Alarm,0.435770334443,False,True,stimulusHACA03_2IFCnew_2019_Jun_28_1519_787,stimulusHACA03_2IFCnew_2019_Jun_28_1519_788,True,2019_Jun_28_1519,2IFCnew,3,HACA03,
2IFCnew,19,0,19,0,0.633944461821,2,No,4.4,-1,False Alarm,0.467772574164,False,True,stimulusHACA03_2IFCnew_2019_Jun_28_1519_789,stimulusHACA03_2IFCnew_2019_Jun_28_1519_790,True,2019_Jun_28_1519,2IFCnew,3,HACA03,
2IFCnew,20,0,20,0,0.501991364406,1,No,9.8,-1,Hit,0.433626861777,True,False,stimulusHACA03_2IFCnew_2019_Jun_28_1519_791,stimulusHACA03_2IFCnew_2019_Jun_28_1519_792,True,2019_Jun_28_1519,2IFCnew,3,HACA03,
2IFCnew,21,0,21,0,0.401902973652,1,No,8.8,-1,Hit,0.56274881796,True,False,stimulusHACA03_2IFCnew_2019_Jun_28_1519_793,stimulusHACA03_2IFCnew_2019_Jun_28_1519_794,True,2019_Jun_28_1519,2IFCnew,3,HACA03,
2IFCnew,22,0,22,0,0.567207782995,3,Yes,2.7,-1,Correct Rejection,0.63469617581,False,True,stimulusHACA03_2IFCnew_2019_Jun_28_1519_795,stimulusHACA03_2IFCnew_2019_Jun_28_1519_796,True,2019_Jun_28_1519,2IFCnew,3,HACA03,
2IFCnew,23,0,23,0,0.533895483473,6,No,4.4,-1,Miss,0.534822501475,True,False,stimulusHACA03_2IFCnew_2019_Jun_28_1519_797,stimulusHACA03_2IFCnew_2019_Jun_28_1519_798,True,2019_Jun_28_1519,2IFCnew,3,HACA03,
2IFCnew,24,0,24,0,0.76756808022,8,No,9.8,-1,Correct Rejection,0.534170140279,False,True,stimulusHACA03_2IFCnew_2019_Jun_28_1519_799,stimulusHACA03_2IFCnew_2019_Jun_28_1519_800,True,2019_Jun_28_1519,2IFCnew,3,HACA03,
2IFCnew,25,0,25,0,0.50194333028,6,No,7.8,-1,Miss,0.567245142767,True,False,stimulusHACA03_2IFCnew_2019_Jun_28_1519_801,stimulusHACA03_2IFCnew_2019_Jun_28_1519_802,True,2019_Jun_28_1519,2IFCnew,3,HACA03,
2IFCnew,26,0,26,0,0.369689711602,3,Yes,9.8,-1,Correct Rejection,0.458910889225,False,True,stimulusHACA03_2IFCnew_2019_Jun_28_1519_803,stimulusHACA03_2IFCnew_2019_Jun_28_1519_804,True,2019_Jun_28_1519,2IFCnew,3,HACA03,
2IFCnew,27,0,27,0,0.267120787874,1,No,11.1,-1,Hit,0.500453040004,True,False,stimulusHACA03_2IFCnew_2019_Jun_28_1519_805,stimulusHACA03_2IFCnew_2019_Jun_28_1519_806,True,2019_Jun_28_1519,2IFCnew,3,HACA03,
2IFCnew,28,0,28,0,0.400442242622,1,No,9.8,-1,Hit,0.567647890653,True,False,stimulusHACA03_2IFCnew_2019_Jun_28_1519_807,stimulusHACA03_2IFCnew_2019_Jun_28_1519_808,True,2019_Jun_28_1519,2IFCnew,3,HACA03,
2IFCnew,29,0,29,0,0.600944589591,6,No,2.7,-1,Miss,0.668658783892,True,False,stimulusHACA03_2IFCnew_2019_Jun_28_1519_809,stimulusHACA03_2IFCnew_2019_Jun_28_1519_810,True,2019_Jun_28_1519,2IFCnew,3,HACA03,
2IFCnew,30,0,30,0,0.601270564832,1,No,5.7,-1,Hit,0.567059164634,True,False,stimulusHACA03_2IFCnew_2019_Jun_28_1519_811,stimulusHACA03_2IFCnew_2019_Jun_28_1519_812,True,2019_Jun_28_1519,2IFCnew,3,HACA03,
2IFCnew,31,0,31,0,0.367398031056,2,No,11.1,-1,False Alarm,0.634348030901,False,True,stimulusHACA03_2IFCnew_2019_Jun_28_1519_813,stimulusHACA03_2IFCnew_2019_Jun_28_1519_814,True,2019_Jun_28_1519,2IFCnew,3,HACA03,
2IFCnew,32,0,32,0,0.434305497911,1,No,8.8,-1,Hit,0.401420579292,True,False,stimulusHACA03_2IFCnew_2019_Jun_28_1519_815,stimulusHACA03_2IFCnew_2019_Jun_28_1519_816,True,2019_Jun_28_1519,2IFCnew,3,HACA03,
2IFCnew,33,0,33,0,0.44311381178,1,No,8.8,-1,Hit,0.461574116256,True,False,stimulusHACA03_2IFCnew_2019_Jun_28_1519_817,stimulusHACA03_2IFCnew_2019_Jun_28_1519_818,True,2019_Jun_28_1519,2IFCnew,3,HACA03,
2IFCnew,34,0,34,0,0.765499327332,6,No,9.8,-1,Miss,0.568140138173,True,False,stimulusHACA03_2IFCnew_2019_Jun_28_1519_819,stimulusHACA03_2IFCnew_2019_Jun_28_1519_820,True,2019_Jun_28_1519,2IFCnew,3,HACA03,
2IFCnew,35,0,35,0,0.468009871198,3,Yes,7.8,-1,Correct Rejection,0.534336823039,False,True,stimulusHACA03_2IFCnew_2019_Jun_28_1519_821,stimulusHACA03_2IFCnew_2019_Jun_28_1519_822,True,2019_Jun_28_1519,2IFCnew,3,HACA03,
2IFCnew,36,0,36,0,0.732771648327,8,No,9.8,-1,Correct Rejection,0.467403901974,False,True,stimulusHACA03_2IFCnew_2019_Jun_28_1519_823,stimulusHACA03_2IFCnew_2019_Jun_28_1519_824,True,2019_Jun_28_1519,2IFCnew,3,HACA03,
2IFCnew,37,0,37,0,0.398917466169,3,Yes,5.7,-1,Correct Rejection,0.467264315579,False,True,stimulusHACA03_2IFCnew_2019_Jun_28_1519_825,stimulusHACA03_2IFCnew_2019_Jun_28_1519_826,True,2019_Jun_28_1519,2IFCnew,3,HACA03,
2IFCnew,38,0,38,0,0.266536988318,8,No,5.7,-1,Correct Rejection,0.571329277474,False,True,stimulusHACA03_2IFCnew_2019_Jun_28_1519_827,stimulusHACA03_2IFCnew_2019_Jun_28_1519_828,True,2019_Jun_28_1519,2IFCnew,3,HACA03,
2IFCnew,39,0,39,0,0.463432257762,6,No,6.7,-1,Miss,0.467391585466,True,False,stimulusHACA03_2IFCnew_2019_Jun_28_1519_829,stimulusHACA03_2IFCnew_2019_Jun_28_1519_830,True,2019_Jun_28_1519,2IFCnew,3,HACA03,
2IFCnew,40,0,40,0,0.46887448593,6,No,5.7,-1,Miss,0.534710011212,True,False,stimulusHACA03_2IFCnew_2019_Jun_28_1519_831,stimulusHACA03_2IFCnew_2019_Jun_28_1519_832,True,2019_Jun_28_1519,2IFCnew,3,HACA03,
2IFCnew,41,0,41,0,0.602413120912,6,No,6.7,-1,Miss,0.501437124331,True,False,stimulusHACA03_2IFCnew_2019_Jun_28_1519_833,stimulusHACA03_2IFCnew_2019_Jun_28_1519_834,True,2019_Jun_28_1519,2IFCnew,3,HACA03,
2IFCnew,42,0,42,0,0.60098728654,6,No,5.7,-1,Miss,0.466244513635,True,False,stimulusHACA03_2IFCnew_2019_Jun_28_1519_835,stimulusHACA03_2IFCnew_2019_Jun_28_1519_836,True,2019_Jun_28_1519,2IFCnew,3,HACA03,
2IFCnew,43,0,43,0,0.567327252589,6,No,5.7,-1,Miss,0.467251999071,True,False,stimulusHACA03_2IFCnew_2019_Jun_28_1519_837,stimulusHACA03_2IFCnew_2019_Jun_28_1519_838,True,2019_Jun_28_1519,2IFCnew,3,HACA03,
2IFCnew,44,0,44,0,0.534455471439,8,No,4.4,-1,Correct Rejection,0.467172763078,False,True,stimulusHACA03_2IFCnew_2019_Jun_28_1519_839,stimulusHACA03_2IFCnew_2019_Jun_28_1519_840,True,2019_Jun_28_1519,2IFCnew,3,HACA03,
2IFCnew,45,0,45,0,0.565703123342,6,No,8.8,-1,Miss,0.631926206406,True,False,stimulusHACA03_2IFCnew_2019_Jun_28_1519_841,stimulusHACA03_2IFCnew_2019_Jun_28_1519_842,True,2019_Jun_28_1519,2IFCnew,3,HACA03,
2IFCnew,46,0,46,0,0.440005961107,4,Yes,7.8,-1,Miss,0.535224428168,True,False,stimulusHACA03_2IFCnew_2019_Jun_28_1519_843,stimulusHACA03_2IFCnew_2019_Jun_28_1519_844,True,2019_Jun_28_1519,2IFCnew,3,HACA03,
2IFCnew,47,0,47,0,0.500115569215,4,Yes,6.7,-1,Miss,0.566617825069,True,False,stimulusHACA03_2IFCnew_2019_Jun_28_1519_845,stimulusHACA03_2IFCnew_2019_Jun_28_1519_846,True,2019_Jun_28_1519,2IFCnew,3,HACA03,
2IFCnew,48,0,48,0,0.635121503845,6,No,2.7,-1,Miss,0.500937076518,True,False,stimulusHACA03_2IFCnew_2019_Jun_28_1519_847,stimulusHACA03_2IFCnew_2019_Jun_28_1519_848,True,2019_Jun_28_1519,2IFCnew,3,HACA03,
2IFCnew,49,0,49,0,0.709707044996,8,No,2.7,-1,Correct Rejection,0.523251608247,False,True,stimulusHACA03_2IFCnew_2019_Jun_28_1519_849,stimulusHACA03_2IFCnew_2019_Jun_28_1519_850,True,2019_Jun_28_1519,2IFCnew,3,HACA03,
2IFCnew,50,0,50,0,0.332101141103,1,No,9.8,-1,Hit,0.623061647639,True,False,stimulusHACA03_2IFCnew_2019_Jun_28_1519_851,stimulusHACA03_2IFCnew_2019_Jun_28_1519_852,True,2019_Jun_28_1519,2IFCnew,3,HACA03,
2IFCnew,51,0,51,0,0.436211673776,3,Yes,8.8,-1,Correct Rejection,0.464412236353,False,True,stimulusHACA03_2IFCnew_2019_Jun_28_1519_853,stimulusHACA03_2IFCnew_2019_Jun_28_1519_854,True,2019_Jun_28_1519,2IFCnew,3,HACA03,
2IFCnew,52,0,52,0,0.501041355776,3,Yes,8.8,-1,Correct Rejection,0.370199202094,False,True,stimulusHACA03_2IFCnew_2019_Jun_28_1519_855,stimulusHACA03_2IFCnew_2019_Jun_28_1519_856,True,2019_Jun_28_1519,2IFCnew,3,HACA03,
2IFCnew,53,0,53,0,0.467348067323,3,Yes,6.7,-1,Correct Rejection,0.468609682284,False,True,stimulusHACA03_2IFCnew_2019_Jun_28_1519_857,stimulusHACA03_2IFCnew_2019_Jun_28_1519_858,True,2019_Jun_28_1519,2IFCnew,3,HACA03,
2IFCnew,54,0,54,0,0.403132565552,6,No,2.7,-1,Miss,0.534056418343,True,False,stimulusHACA03_2IFCnew_2019_Jun_28_1519_859,stimulusHACA03_2IFCnew_2019_Jun_28_1519_860,True,2019_Jun_28_1519,2IFCnew,3,HACA03,
2IFCnew,55,0,55,0,0.510026205331,6,No,4.4,-1,Miss,0.434073127806,True,False,stimulusHACA03_2IFCnew_2019_Jun_28_1519_861,stimulusHACA03_2IFCnew_2019_Jun_28_1519_862,True,2019_Jun_28_1519,2IFCnew,3,HACA03,
2IFCnew,56,0,56,0,0.366103161825,1,No,9.8,-1,Hit,0.667535113171,True,False,stimulusHACA03_2IFCnew_2019_Jun_28_1519_863,stimulusHACA03_2IFCnew_2019_Jun_28_1519_864,True,2019_Jun_28_1519,2IFCnew,3,HACA03,
2IFCnew,57,0,57,0,0.334293058375,1,No,11.1,-1,Hit,0.5004087009,True,False,stimulusHACA03_2IFCnew_2019_Jun_28_1519_865,stimulusHACA03_2IFCnew_2019_Jun_28_1519_866,True,2019_Jun_28_1519,2IFCnew,3,HACA03,
2IFCnew,58,0,58,0,0.501655946486,3,Yes,2.7,-1,Correct Rejection,0.466811480699,False,True,stimulusHACA03_2IFCnew_2019_Jun_28_1519_867,stimulusHACA03_2IFCnew_2019_Jun_28_1519_868,True,2019_Jun_28_1519,2IFCnew,3,HACA03,
2IFCnew,59,0,59,0,0.500671041198,3,Yes,7.8,-1,Correct Rejection,0.469063748838,False,True,stimulusHACA03_2IFCnew_2019_Jun_28_1519_869,stimulusHACA03_2IFCnew_2019_Jun_28_1519_870,True,2019_Jun_28_1519,2IFCnew,3,HACA03,
2IFCnew,60,0,60,0,0.601611730643,1,No,8.8,-1,Hit,0.53537592059,True,False,stimulusHACA03_2IFCnew_2019_Jun_28_1519_871,stimulusHACA03_2IFCnew_2019_Jun_28_1519_872,True,2019_Jun_28_1519,2IFCnew,3,HACA03,
2IFCnew,61,0,61,0,0.374071493745,6,No,5.7,-1,Miss,0.506990200607,True,False,stimulusHACA03_2IFCnew_2019_Jun_28_1519_873,stimulusHACA03_2IFCnew_2019_Jun_28_1519_874,True,2019_Jun_28_1519,2IFCnew,3,HACA03,
2IFCnew,62,0,62,0,0.470044959104,6,No,6.7,-1,Miss,0.571439714869,True,False,stimulusHACA03_2IFCnew_2019_Jun_28_1519_875,stimulusHACA03_2IFCnew_2019_Jun_28_1519_876,True,2019_Jun_28_1519,2IFCnew,3,HACA03,
2IFCnew,63,0,63,0,0.531412897864,6,No,2.7,-1,Miss,0.435574913397,True,False,stimulusHACA03_2IFCnew_2019_Jun_28_1519_877,stimulusHACA03_2IFCnew_2019_Jun_28_1519_878,True,2019_Jun_28_1519,2IFCnew,3,HACA03,
2IFCnew,64,0,64,0,0.499835164985,8,No,2.7,-1,Correct Rejection,0.400925457943,False,True,stimulusHACA03_2IFCnew_2019_Jun_28_1519_879,stimulusHACA03_2IFCnew_2019_Jun_28_1519_880,True,2019_Jun_28_1519,2IFCnew,3,HACA03,
2IFCnew,65,0,65,0,0.267195507418,6,No,5.7,-1,Miss,0.400561301503,True,False,stimulusHACA03_2IFCnew_2019_Jun_28_1519_881,stimulusHACA03_2IFCnew_2019_Jun_28_1519_882,True,2019_Jun_28_1519,2IFCnew,3,HACA03,
2IFCnew,66,0,66,0,0.230244107777,3,Yes,2.7,-1,Correct Rejection,0.43378902832,False,True,stimulusHACA03_2IFCnew_2019_Jun_28_1519_883,stimulusHACA03_2IFCnew_2019_Jun_28_1519_884,True,2019_Jun_28_1519,2IFCnew,3,HACA03,
2IFCnew,67,0,67,0,-1,1,Yes,7.8,-1,Hit,0.502048020251,True,False,stimulusHACA03_2IFCnew_2019_Jun_28_1519_885,stimulusHACA03_2IFCnew_2019_Jun_28_1519_886,True,2019_Jun_28_1519,2IFCnew,3,HACA03,
2IFCnew,68,0,68,0,-1,1,Yes,4.4,-1,Hit,0.500429228414,True,False,stimulusHACA03_2IFCnew_2019_Jun_28_1519_887,stimulusHACA03_2IFCnew_2019_Jun_28_1519_888,True,2019_Jun_28_1519,2IFCnew,3,HACA03,
2IFCnew,69,0,69,0,0.500695263501,8,No,5.7,-1,Correct Rejection,0.568345001666,False,True,stimulusHACA03_2IFCnew_2019_Jun_28_1519_889,stimulusHACA03_2IFCnew_2019_Jun_28_1519_890,True,2019_Jun_28_1519,2IFCnew,3,HACA03,
2IFCnew,70,0,70,0,0.63561005611,6,No,8.8,-1,Miss,0.767142752185,True,False,stimulusHACA03_2IFCnew_2019_Jun_28_1519_891,stimulusHACA03_2IFCnew_2019_Jun_28_1519_892,True,2019_Jun_28_1519,2IFCnew,3,HACA03,
2IFCnew,71,0,71,0,0.567415109836,6,No,6.7,-1,Miss,0.602594583295,True,False,stimulusHACA03_2IFCnew_2019_Jun_28_1519_893,stimulusHACA03_2IFCnew_2019_Jun_28_1519_894,True,2019_Jun_28_1519,2IFCnew,3,HACA03,
2IFCnew,72,0,72,0,-1,4,No,2.7,-1,Miss,0.567276755115,True,False,stimulusHACA03_2IFCnew_2019_Jun_28_1519_895,stimulusHACA03_2IFCnew_2019_Jun_28_1519_896,True,2019_Jun_28_1519,2IFCnew,3,HACA03,
2IFCnew,73,0,73,0,0.601624457398,3,Yes,9.8,-1,Correct Rejection,0.4342418632,False,True,stimulusHACA03_2IFCnew_2019_Jun_28_1519_897,stimulusHACA03_2IFCnew_2019_Jun_28_1519_898,True,2019_Jun_28_1519,2IFCnew,3,HACA03,
2IFCnew,74,0,74,0,0.435187766328,1,No,8.8,-1,Hit,0.559888527961,True,False,stimulusHACA03_2IFCnew_2019_Jun_28_1519_899,stimulusHACA03_2IFCnew_2019_Jun_28_1519_900,True,2019_Jun_28_1519,2IFCnew,3,HACA03,
2IFCnew,0,0,0,0,0.600974970032,8,No,8.8,-1,Correct Rejection,0.76838917681,False,True,stimulusHACA03_2IFCnew_2019_Jun_28_1519_901,stimulusHACA03_2IFCnew_2019_Jun_28_1519_902,True,2019_Jun_28_1519,2IFCnew,3,HACA03,
2IFCnew,1,0,1,0,0.400441831909,8,No,11.1,-1,Correct Rejection,0.435187355848,False,True,stimulusHACA03_2IFCnew_2019_Jun_28_1519_903,stimulusHACA03_2IFCnew_2019_Jun_28_1519_904,True,2019_Jun_28_1519,2IFCnew,3,HACA03,
2IFCnew,2,0,2,0,0.434049726464,3,Yes,6.7,-1,Correct Rejection,0.434007850476,False,True,stimulusHACA03_2IFCnew_2019_Jun_28_1519_905,stimulusHACA03_2IFCnew_2019_Jun_28_1519_906,True,2019_Jun_28_1519,2IFCnew,3,HACA03,
2IFCnew,3,0,3,0,-1,1,Yes,6.7,-1,Hit,0.633996190736,True,False,stimulusHACA03_2IFCnew_2019_Jun_28_1519_907,stimulusHACA03_2IFCnew_2019_Jun_28_1519_908,True,2019_Jun_28_1519,2IFCnew,3,HACA03,
2IFCnew,4,0,4,0,0.367444833508,1,No,4.4,-1,Hit,0.634574242868,True,False,stimulusHACA03_2IFCnew_2019_Jun_28_1519_909,stimulusHACA03_2IFCnew_2019_Jun_28_1519_910,True,2019_Jun_28_1519,2IFCnew,3,HACA03,
2IFCnew,5,0,5,0,0.331633526366,2,No,9.8,-1,False Alarm,0.500783941941,False,True,stimulusHACA03_2IFCnew_2019_Jun_28_1519_911,stimulusHACA03_2IFCnew_2019_Jun_28_1519_912,True,2019_Jun_28_1519,2IFCnew,3,HACA03,
2IFCnew,6,0,6,0,0.271078062942,1,No,9.8,-1,Hit,0.434426199179,True,False,stimulusHACA03_2IFCnew_2019_Jun_28_1519_913,stimulusHACA03_2IFCnew_2019_Jun_28_1519_914,True,2019_Jun_28_1519,2IFCnew,3,HACA03,
2IFCnew,7,0,7,0,0.367389409803,3,Yes,7.8,-1,Correct Rejection,0.566945032217,False,True,stimulusHACA03_2IFCnew_2019_Jun_28_1519_915,stimulusHACA03_2IFCnew_2019_Jun_28_1519_916,True,2019_Jun_28_1519,2IFCnew,3,HACA03,
2IFCnew,8,0,8,0,0.199491987471,1,No,9.8,-1,Hit,0.468683991581,True,False,stimulusHACA03_2IFCnew_2019_Jun_28_1519_917,stimulusHACA03_2IFCnew_2019_Jun_28_1519_918,True,2019_Jun_28_1519,2IFCnew,3,HACA03,
2IFCnew,9,0,9,0,0.406577887014,3,Yes,8.8,-1,Correct Rejection,0.526723615127,False,True,stimulusHACA03_2IFCnew_2019_Jun_28_1519_919,stimulusHACA03_2IFCnew_2019_Jun_28_1519_920,True,2019_Jun_28_1519,2IFCnew,3,HACA03,
2IFCnew,10,0,10,0,0.434445084538,3,Yes,11.1,-1,Correct Rejection,0.436010094592,False,True,stimulusHACA03_2IFCnew_2019_Jun_28_1519_921,stimulusHACA03_2IFCnew_2019_Jun_28_1519_922,True,2019_Jun_28_1519,2IFCnew,3,HACA03,
2IFCnew,11,0,11,0,0.634328324581,8,No,8.8,-1,Correct Rejection,0.462827520212,False,True,stimulusHACA03_2IFCnew_2019_Jun_28_1519_923,stimulusHACA03_2IFCnew_2019_Jun_28_1519_924,True,2019_Jun_28_1519,2IFCnew,3,HACA03,
2IFCnew,12,0,12,0,0.50077737309,6,No,8.8,-1,Miss,0.468482822645,True,False,stimulusHACA03_2IFCnew_2019_Jun_28_1519_925,stimulusHACA03_2IFCnew_2019_Jun_28_1519_926,True,2019_Jun_28_1519,2IFCnew,3,HACA03,
2IFCnew,13,0,13,0,0.533778066514,6,No,5.7,-1,Miss,0.468515256187,True,False,stimulusHACA03_2IFCnew_2019_Jun_28_1519_927,stimulusHACA03_2IFCnew_2019_Jun_28_1519_928,True,2019_Jun_28_1519,2IFCnew,3,HACA03,
2IFCnew,14,0,14,0,0.536070568254,3,Yes,9.8,-1,Correct Rejection,0.567548127379,False,True,stimulusHACA03_2IFCnew_2019_Jun_28_1519_929,stimulusHACA03_2IFCnew_2019_Jun_28_1519_930,True,2019_Jun_28_1519,2IFCnew,3,HACA03,
2IFCnew,15,0,15,0,0.534797868691,8,No,5.7,-1,Correct Rejection,0.400165533181,False,True,stimulusHACA03_2IFCnew_2019_Jun_28_1519_931,stimulusHACA03_2IFCnew_2019_Jun_28_1519_932,True,2019_Jun_28_1519,2IFCnew,3,HACA03,
2IFCnew,16,0,16,0,0.402140680933,4,Yes,7.8,-1,Miss,0.464112946764,True,False,stimulusHACA03_2IFCnew_2019_Jun_28_1519_933,stimulusHACA03_2IFCnew_2019_Jun_28_1519_934,True,2019_Jun_28_1519,2IFCnew,3,HACA03,
2IFCnew,17,0,17,0,0.500400079414,3,Yes,4.4,-1,Correct Rejection,0.434073538287,False,True,stimulusHACA03_2IFCnew_2019_Jun_28_1519_935,stimulusHACA03_2IFCnew_2019_Jun_28_1519_936,True,2019_Jun_28_1519,2IFCnew,3,HACA03,
2IFCnew,18,0,18,0,0.401237474754,1,No,5.7,-1,Hit,0.567667186493,True,False,stimulusHACA03_2IFCnew_2019_Jun_28_1519_937,stimulusHACA03_2IFCnew_2019_Jun_28_1519_938,True,2019_Jun_28_1519,2IFCnew,3,HACA03,
2IFCnew,19,0,19,0,0.333491257392,2,No,5.7,-1,False Alarm,0.466430902481,False,True,stimulusHACA03_2IFCnew_2019_Jun_28_1519_939,stimulusHACA03_2IFCnew_2019_Jun_28_1519_940,True,2019_Jun_28_1519,2IFCnew,3,HACA03,
2IFCnew,20,0,20,0,0.267281722743,2,No,4.4,-1,False Alarm,0.467089011334,False,True,stimulusHACA03_2IFCnew_2019_Jun_28_1519_941,stimulusHACA03_2IFCnew_2019_Jun_28_1519_942,True,2019_Jun_28_1519,2IFCnew,3,HACA03,
2IFCnew,21,0,21,0,0.400942290435,3,Yes,4.4,-1,Correct Rejection,0.469005040359,False,True,stimulusHACA03_2IFCnew_2019_Jun_28_1519_943,stimulusHACA03_2IFCnew_2019_Jun_28_1519_944,True,2019_Jun_28_1519,2IFCnew,3,HACA03,
2IFCnew,22,0,22,0,0.399838736514,3,Yes,7.8,-1,Correct Rejection,0.400633557932,False,True,stimulusHACA03_2IFCnew_2019_Jun_28_1519_945,stimulusHACA03_2IFCnew_2019_Jun_28_1519_946,True,2019_Jun_28_1519,2IFCnew,3,HACA03,
2IFCnew,23,0,23,0,0.368290973827,6,No,6.7,-1,Miss,0.398604217917,True,False,stimulusHACA03_2IFCnew_2019_Jun_28_1519_947,stimulusHACA03_2IFCnew_2019_Jun_28_1519_948,True,2019_Jun_28_1519,2IFCnew,3,HACA03,
2IFCnew,24,0,24,0,0.300770968664,1,No,11.1,-1,Hit,0.602120810421,True,False,stimulusHACA03_2IFCnew_2019_Jun_28_1519_949,stimulusHACA03_2IFCnew_2019_Jun_28_1519_950,True,2019_Jun_28_1519,2IFCnew,3,HACA03,
2IFCnew,25,0,25,0,0.467674863758,3,Yes,5.7,-1,Correct Rejection,0.567463144194,False,True,stimulusHACA03_2IFCnew_2019_Jun_28_1519_951,stimulusHACA03_2IFCnew_2019_Jun_28_1519_952,True,2019_Jun_28_1519,2IFCnew,3,HACA03,
2IFCnew,26,0,26,0,0.333884152351,8,No,8.8,-1,Correct Rejection,0.401481340406,False,True,stimulusHACA03_2IFCnew_2019_Jun_28_1519_953,stimulusHACA03_2IFCnew_2019_Jun_28_1519_954,True,2019_Jun_28_1519,2IFCnew,3,HACA03,
2IFCnew,27,0,27,0,0.537433999125,8,No,2.7,-1,Correct Rejection,0.467173584504,False,True,stimulusHACA03_2IFCnew_2019_Jun_28_1519_955,stimulusHACA03_2IFCnew_2019_Jun_28_1519_956,True,2019_Jun_28_1519,2IFCnew,3,HACA03,
2IFCnew,28,0,28,0,0.576069878647,7,Yes,6.7,-1,Hit,0.368081594119,True,False,stimulusHACA03_2IFCnew_2019_Jun_28_1519_957,stimulusHACA03_2IFCnew_2019_Jun_28_1519_958,True,2019_Jun_28_1519,2IFCnew,3,HACA03,
2IFCnew,29,0,29,0,0.268046163721,6,No,4.4,-1,Miss,0.568074861076,True,False,stimulusHACA03_2IFCnew_2019_Jun_28_1519_959,stimulusHACA03_2IFCnew_2019_Jun_28_1519_960,True,2019_Jun_28_1519,2IFCnew,3,HACA03,
