Task,trials.thisRepN,trials.thisTrialN,trials.thisN,trials.thisIndex,signal_intensity,constant Value,response,time_response,signal_on_stimuluspos1,signal_on_stimuluspos2,stimulus_name_pos1,stimulus_name_pos2,random_intensity,date,expName,session,participant,
2IFC,0,0,0,0,4.4,-1,correct answer,0.704621583223,True,False,stimulusHACA03_2IFC_2019_Jun_28_1438_1,stimulusHACA03_2IFC_2019_Jun_28_1438_2,True,2019_Jun_28_1438,2IFC,,HACA03,
2IFC,1,0,1,0,4.4,-1,correct answer,0.532959843753,False,True,stimulusHACA03_2IFC_2019_Jun_28_1438_3,stimulusHACA03_2IFC_2019_Jun_28_1438_4,True,2019_Jun_28_1438,2IFC,,HACA03,
2IFC,2,0,2,0,7.8,-1,correct answer,0.568516200408,False,True,stimulusHACA03_2IFC_2019_Jun_28_1438_5,stimulusHACA03_2IFC_2019_Jun_28_1438_6,True,2019_Jun_28_1438,2IFC,,HACA03,
2IFC,3,0,3,0,8.8,-1,correct answer,0.463973360369,True,False,stimulusHACA03_2IFC_2019_Jun_28_1438_7,stimulusHACA03_2IFC_2019_Jun_28_1438_8,True,2019_Jun_28_1438,2IFC,,HACA03,
2IFC,4,0,4,0,4.4,-1,wrong answer,0.636109282961,False,True,stimulusHACA03_2IFC_2019_Jun_28_1438_9,stimulusHACA03_2IFC_2019_Jun_28_1438_10,True,2019_Jun_28_1438,2IFC,,HACA03,
2IFC,5,0,5,0,11.1,-1,correct answer,0.431623796467,False,True,stimulusHACA03_2IFC_2019_Jun_28_1438_11,stimulusHACA03_2IFC_2019_Jun_28_1438_12,True,2019_Jun_28_1438,2IFC,,HACA03,
2IFC,6,0,6,0,11.1,-1,correct answer,0.501858757576,False,True,stimulusHACA03_2IFC_2019_Jun_28_1438_13,stimulusHACA03_2IFC_2019_Jun_28_1438_14,True,2019_Jun_28_1438,2IFC,,HACA03,
2IFC,7,0,7,0,5.7,-1,correct answer,0.50056635146,False,True,stimulusHACA03_2IFC_2019_Jun_28_1438_15,stimulusHACA03_2IFC_2019_Jun_28_1438_16,True,2019_Jun_28_1438,2IFC,,HACA03,
2IFC,8,0,8,0,11.1,-1,correct answer,0.600620666984,True,False,stimulusHACA03_2IFC_2019_Jun_28_1438_17,stimulusHACA03_2IFC_2019_Jun_28_1438_18,True,2019_Jun_28_1438,2IFC,,HACA03,
2IFC,9,0,9,0,4.4,-1,correct answer,0.501205985667,False,True,stimulusHACA03_2IFC_2019_Jun_28_1438_19,stimulusHACA03_2IFC_2019_Jun_28_1438_20,True,2019_Jun_28_1438,2IFC,,HACA03,
2IFC,10,0,10,0,5.7,-1,correct answer,0.500709632877,True,False,stimulusHACA03_2IFC_2019_Jun_28_1438_21,stimulusHACA03_2IFC_2019_Jun_28_1438_22,True,2019_Jun_28_1438,2IFC,,HACA03,
2IFC,11,0,11,0,7.8,-1,correct answer,0.567494345596,False,True,stimulusHACA03_2IFC_2019_Jun_28_1438_23,stimulusHACA03_2IFC_2019_Jun_28_1438_24,True,2019_Jun_28_1438,2IFC,,HACA03,
2IFC,12,0,12,0,4.4,-1,correct answer,0.767189144157,True,False,stimulusHACA03_2IFC_2019_Jun_28_1438_25,stimulusHACA03_2IFC_2019_Jun_28_1438_26,True,2019_Jun_28_1438,2IFC,,HACA03,
2IFC,13,0,13,0,6.7,-1,correct answer,0.439125745557,False,True,stimulusHACA03_2IFC_2019_Jun_28_1438_27,stimulusHACA03_2IFC_2019_Jun_28_1438_28,True,2019_Jun_28_1438,2IFC,,HACA03,
2IFC,14,0,14,0,5.7,-1,correct answer,0.535945761483,False,True,stimulusHACA03_2IFC_2019_Jun_28_1438_29,stimulusHACA03_2IFC_2019_Jun_28_1438_30,True,2019_Jun_28_1438,2IFC,,HACA03,
2IFC,15,0,15,0,2.7,-1,correct answer,0.666406105272,True,False,stimulusHACA03_2IFC_2019_Jun_28_1438_31,stimulusHACA03_2IFC_2019_Jun_28_1438_32,True,2019_Jun_28_1438,2IFC,,HACA03,
2IFC,16,0,16,0,8.8,-1,correct answer,0.472016822547,False,True,stimulusHACA03_2IFC_2019_Jun_28_1438_33,stimulusHACA03_2IFC_2019_Jun_28_1438_34,True,2019_Jun_28_1438,2IFC,,HACA03,
2IFC,17,0,17,0,9.8,-1,correct answer,0.467915855581,True,False,stimulusHACA03_2IFC_2019_Jun_28_1438_35,stimulusHACA03_2IFC_2019_Jun_28_1438_36,True,2019_Jun_28_1438,2IFC,,HACA03,
2IFC,18,0,18,0,4.4,-1,correct answer,0.634604623541,True,False,stimulusHACA03_2IFC_2019_Jun_28_1438_37,stimulusHACA03_2IFC_2019_Jun_28_1438_38,True,2019_Jun_28_1438,2IFC,,HACA03,
2IFC,19,0,19,0,8.8,-1,correct answer,0.467431408586,True,False,stimulusHACA03_2IFC_2019_Jun_28_1438_39,stimulusHACA03_2IFC_2019_Jun_28_1438_40,True,2019_Jun_28_1438,2IFC,,HACA03,
2IFC,20,0,20,0,6.7,-1,correct answer,0.430499304784,False,True,stimulusHACA03_2IFC_2019_Jun_28_1438_41,stimulusHACA03_2IFC_2019_Jun_28_1438_42,True,2019_Jun_28_1438,2IFC,,HACA03,
2IFC,21,0,21,0,8.8,-1,correct answer,0.400104772067,False,True,stimulusHACA03_2IFC_2019_Jun_28_1438_43,stimulusHACA03_2IFC_2019_Jun_28_1438_44,True,2019_Jun_28_1438,2IFC,,HACA03,
2IFC,22,0,22,0,6.7,-1,wrong answer,0.534386499319,False,True,stimulusHACA03_2IFC_2019_Jun_28_1438_45,stimulusHACA03_2IFC_2019_Jun_28_1438_46,True,2019_Jun_28_1438,2IFC,,HACA03,
2IFC,23,0,23,0,4.4,-1,correct answer,0.534144275822,False,True,stimulusHACA03_2IFC_2019_Jun_28_1438_47,stimulusHACA03_2IFC_2019_Jun_28_1438_48,True,2019_Jun_28_1438,2IFC,,HACA03,
2IFC,24,0,24,0,7.8,-1,correct answer,0.367530227639,True,False,stimulusHACA03_2IFC_2019_Jun_28_1438_49,stimulusHACA03_2IFC_2019_Jun_28_1438_50,True,2019_Jun_28_1438,2IFC,,HACA03,
2IFC,25,0,25,0,5.7,-1,correct answer,0.466467851773,True,False,stimulusHACA03_2IFC_2019_Jun_28_1438_51,stimulusHACA03_2IFC_2019_Jun_28_1438_52,True,2019_Jun_28_1438,2IFC,,HACA03,
2IFC,26,0,26,0,8.8,-1,correct answer,0.468027935363,False,True,stimulusHACA03_2IFC_2019_Jun_28_1438_53,stimulusHACA03_2IFC_2019_Jun_28_1438_54,True,2019_Jun_28_1438,2IFC,,HACA03,
2IFC,27,0,27,0,6.7,-1,correct answer,0.468471327564,True,False,stimulusHACA03_2IFC_2019_Jun_28_1438_55,stimulusHACA03_2IFC_2019_Jun_28_1438_56,True,2019_Jun_28_1438,2IFC,,HACA03,
2IFC,28,0,28,0,5.7,-1,correct answer,0.399871580536,True,False,stimulusHACA03_2IFC_2019_Jun_28_1438_57,stimulusHACA03_2IFC_2019_Jun_28_1438_58,True,2019_Jun_28_1438,2IFC,,HACA03,
2IFC,29,0,29,0,7.8,-1,correct answer,0.535540960962,True,False,stimulusHACA03_2IFC_2019_Jun_28_1438_59,stimulusHACA03_2IFC_2019_Jun_28_1438_60,True,2019_Jun_28_1438,2IFC,,HACA03,
2IFC,30,0,30,0,4.4,-1,correct answer,0.46712760278,True,False,stimulusHACA03_2IFC_2019_Jun_28_1438_61,stimulusHACA03_2IFC_2019_Jun_28_1438_62,True,2019_Jun_28_1438,2IFC,,HACA03,
2IFC,31,0,31,0,8.8,-1,correct answer,0.534223511582,False,True,stimulusHACA03_2IFC_2019_Jun_28_1438_63,stimulusHACA03_2IFC_2019_Jun_28_1438_64,True,2019_Jun_28_1438,2IFC,,HACA03,
2IFC,32,0,32,0,8.8,-1,correct answer,0.567975918995,False,True,stimulusHACA03_2IFC_2019_Jun_28_1438_65,stimulusHACA03_2IFC_2019_Jun_28_1438_66,True,2019_Jun_28_1438,2IFC,,HACA03,
2IFC,33,0,33,0,2.7,-1,correct answer,0.499689009739,False,True,stimulusHACA03_2IFC_2019_Jun_28_1438_67,stimulusHACA03_2IFC_2019_Jun_28_1438_68,True,2019_Jun_28_1438,2IFC,,HACA03,
2IFC,34,0,34,0,4.4,-1,correct answer,0.565689164912,False,True,stimulusHACA03_2IFC_2019_Jun_28_1438_69,stimulusHACA03_2IFC_2019_Jun_28_1438_70,True,2019_Jun_28_1438,2IFC,,HACA03,
2IFC,35,0,35,0,11.1,-1,correct answer,0.468021366745,False,True,stimulusHACA03_2IFC_2019_Jun_28_1438_71,stimulusHACA03_2IFC_2019_Jun_28_1438_72,True,2019_Jun_28_1438,2IFC,,HACA03,
2IFC,36,0,36,0,8.8,-1,correct answer,0.562557502417,False,True,stimulusHACA03_2IFC_2019_Jun_28_1438_73,stimulusHACA03_2IFC_2019_Jun_28_1438_74,True,2019_Jun_28_1438,2IFC,,HACA03,
2IFC,37,0,37,0,4.4,-1,wrong answer,0.735546954907,True,False,stimulusHACA03_2IFC_2019_Jun_28_1438_75,stimulusHACA03_2IFC_2019_Jun_28_1438_76,True,2019_Jun_28_1438,2IFC,,HACA03,
2IFC,38,0,38,0,8.8,-1,correct answer,0.469767017756,True,False,stimulusHACA03_2IFC_2019_Jun_28_1438_77,stimulusHACA03_2IFC_2019_Jun_28_1438_78,True,2019_Jun_28_1438,2IFC,,HACA03,
2IFC,39,0,39,0,4.4,-1,wrong answer,0.466845966876,True,False,stimulusHACA03_2IFC_2019_Jun_28_1438_79,stimulusHACA03_2IFC_2019_Jun_28_1438_80,True,2019_Jun_28_1438,2IFC,,HACA03,
2IFC,40,0,40,0,9.8,-1,correct answer,0.466953940922,True,False,stimulusHACA03_2IFC_2019_Jun_28_1438_81,stimulusHACA03_2IFC_2019_Jun_28_1438_82,True,2019_Jun_28_1438,2IFC,,HACA03,
2IFC,41,0,41,0,4.4,-1,wrong answer,0.665916731581,True,False,stimulusHACA03_2IFC_2019_Jun_28_1438_83,stimulusHACA03_2IFC_2019_Jun_28_1438_84,True,2019_Jun_28_1438,2IFC,,HACA03,
2IFC,42,0,42,0,2.7,-1,wrong answer,0.599808191881,False,True,stimulusHACA03_2IFC_2019_Jun_28_1438_85,stimulusHACA03_2IFC_2019_Jun_28_1438_86,True,2019_Jun_28_1438,2IFC,,HACA03,
2IFC,43,0,43,0,5.7,-1,correct answer,0.63454878889,False,True,stimulusHACA03_2IFC_2019_Jun_28_1438_87,stimulusHACA03_2IFC_2019_Jun_28_1438_88,True,2019_Jun_28_1438,2IFC,,HACA03,
2IFC,44,0,44,0,2.7,-1,wrong answer,0.534320811275,True,False,stimulusHACA03_2IFC_2019_Jun_28_1438_89,stimulusHACA03_2IFC_2019_Jun_28_1438_90,True,2019_Jun_28_1438,2IFC,,HACA03,
2IFC,45,0,45,0,7.8,-1,correct answer,0.667987537337,False,True,stimulusHACA03_2IFC_2019_Jun_28_1438_91,stimulusHACA03_2IFC_2019_Jun_28_1438_92,True,2019_Jun_28_1438,2IFC,,HACA03,
2IFC,46,0,46,0,6.7,-1,correct answer,0.500983058009,False,True,stimulusHACA03_2IFC_2019_Jun_28_1438_93,stimulusHACA03_2IFC_2019_Jun_28_1438_94,True,2019_Jun_28_1438,2IFC,,HACA03,
2IFC,47,0,47,0,6.7,-1,correct answer,0.534725612029,False,True,stimulusHACA03_2IFC_2019_Jun_28_1438_95,stimulusHACA03_2IFC_2019_Jun_28_1438_96,True,2019_Jun_28_1438,2IFC,,HACA03,
2IFC,48,0,48,0,5.7,-1,correct answer,0.500644766027,True,False,stimulusHACA03_2IFC_2019_Jun_28_1438_97,stimulusHACA03_2IFC_2019_Jun_28_1438_98,True,2019_Jun_28_1438,2IFC,,HACA03,
2IFC,49,0,49,0,6.7,-1,correct answer,0.469347848091,True,False,stimulusHACA03_2IFC_2019_Jun_28_1438_99,stimulusHACA03_2IFC_2019_Jun_28_1438_100,True,2019_Jun_28_1438,2IFC,,HACA03,
2IFC,50,0,50,0,5.7,-1,correct answer,0.431871767621,False,True,stimulusHACA03_2IFC_2019_Jun_28_1438_101,stimulusHACA03_2IFC_2019_Jun_28_1438_102,True,2019_Jun_28_1438,2IFC,,HACA03,
2IFC,51,0,51,0,5.7,-1,correct answer,0.500982647296,False,True,stimulusHACA03_2IFC_2019_Jun_28_1438_103,stimulusHACA03_2IFC_2019_Jun_28_1438_104,True,2019_Jun_28_1438,2IFC,,HACA03,
2IFC,52,0,52,0,9.8,-1,correct answer,0.535364014795,False,True,stimulusHACA03_2IFC_2019_Jun_28_1438_105,stimulusHACA03_2IFC_2019_Jun_28_1438_106,True,2019_Jun_28_1438,2IFC,,HACA03,
2IFC,53,0,53,0,2.7,-1,wrong answer,0.600692512933,True,False,stimulusHACA03_2IFC_2019_Jun_28_1438_107,stimulusHACA03_2IFC_2019_Jun_28_1438_108,True,2019_Jun_28_1438,2IFC,,HACA03,
2IFC,54,0,54,0,2.7,-1,correct answer,0.498895419762,False,True,stimulusHACA03_2IFC_2019_Jun_28_1438_109,stimulusHACA03_2IFC_2019_Jun_28_1438_110,True,2019_Jun_28_1438,2IFC,,HACA03,
2IFC,55,0,55,0,2.7,-1,wrong answer,0.567694693338,True,False,stimulusHACA03_2IFC_2019_Jun_28_1438_111,stimulusHACA03_2IFC_2019_Jun_28_1438_112,True,2019_Jun_28_1438,2IFC,,HACA03,
2IFC,56,0,56,0,9.8,-1,correct answer,0.53433805448,False,True,stimulusHACA03_2IFC_2019_Jun_28_1438_113,stimulusHACA03_2IFC_2019_Jun_28_1438_114,True,2019_Jun_28_1438,2IFC,,HACA03,
2IFC,57,0,57,0,2.7,-1,correct answer,0.67062818422,False,True,stimulusHACA03_2IFC_2019_Jun_28_1438_115,stimulusHACA03_2IFC_2019_Jun_28_1438_116,True,2019_Jun_28_1438,2IFC,,HACA03,
2IFC,58,0,58,0,8.8,-1,correct answer,0.529435286531,True,False,stimulusHACA03_2IFC_2019_Jun_28_1438_117,stimulusHACA03_2IFC_2019_Jun_28_1438_118,True,2019_Jun_28_1438,2IFC,,HACA03,
2IFC,59,0,59,0,11.1,-1,correct answer,0.366651243763,False,True,stimulusHACA03_2IFC_2019_Jun_28_1438_119,stimulusHACA03_2IFC_2019_Jun_28_1438_120,True,2019_Jun_28_1438,2IFC,,HACA03,
2IFC,60,0,60,0,2.7,-1,wrong answer,0.534539223183,True,False,stimulusHACA03_2IFC_2019_Jun_28_1438_121,stimulusHACA03_2IFC_2019_Jun_28_1438_122,True,2019_Jun_28_1438,2IFC,,HACA03,
2IFC,61,0,61,0,9.8,-1,correct answer,0.333403810626,False,True,stimulusHACA03_2IFC_2019_Jun_28_1438_123,stimulusHACA03_2IFC_2019_Jun_28_1438_124,True,2019_Jun_28_1438,2IFC,,HACA03,
2IFC,62,0,62,0,4.4,-1,correct answer,0.735611411044,True,False,stimulusHACA03_2IFC_2019_Jun_28_1438_125,stimulusHACA03_2IFC_2019_Jun_28_1438_126,True,2019_Jun_28_1438,2IFC,,HACA03,
2IFC,63,0,63,0,8.8,-1,correct answer,0.534063397674,True,False,stimulusHACA03_2IFC_2019_Jun_28_1438_127,stimulusHACA03_2IFC_2019_Jun_28_1438_128,True,2019_Jun_28_1438,2IFC,,HACA03,
2IFC,64,0,64,0,9.8,-1,correct answer,0.502500854898,False,True,stimulusHACA03_2IFC_2019_Jun_28_1438_129,stimulusHACA03_2IFC_2019_Jun_28_1438_130,True,2019_Jun_28_1438,2IFC,,HACA03,
2IFC,65,0,65,0,2.7,-1,correct answer,0.634319703095,False,True,stimulusHACA03_2IFC_2019_Jun_28_1438_131,stimulusHACA03_2IFC_2019_Jun_28_1438_132,True,2019_Jun_28_1438,2IFC,,HACA03,
2IFC,66,0,66,0,7.8,-1,correct answer,0.543092996813,False,True,stimulusHACA03_2IFC_2019_Jun_28_1438_133,stimulusHACA03_2IFC_2019_Jun_28_1438_134,True,2019_Jun_28_1438,2IFC,,HACA03,
2IFC,67,0,67,0,9.8,-1,correct answer,0.434326846618,False,True,stimulusHACA03_2IFC_2019_Jun_28_1438_135,stimulusHACA03_2IFC_2019_Jun_28_1438_136,True,2019_Jun_28_1438,2IFC,,HACA03,
2IFC,68,0,68,0,9.8,-1,correct answer,0.434463148471,False,True,stimulusHACA03_2IFC_2019_Jun_28_1438_137,stimulusHACA03_2IFC_2019_Jun_28_1438_138,True,2019_Jun_28_1438,2IFC,,HACA03,
2IFC,69,0,69,0,11.1,-1,correct answer,0.334224907449,True,False,stimulusHACA03_2IFC_2019_Jun_28_1438_139,stimulusHACA03_2IFC_2019_Jun_28_1438_140,True,2019_Jun_28_1438,2IFC,,HACA03,
2IFC,70,0,70,0,2.7,-1,wrong answer,0.501387037337,True,False,stimulusHACA03_2IFC_2019_Jun_28_1438_141,stimulusHACA03_2IFC_2019_Jun_28_1438_142,True,2019_Jun_28_1438,2IFC,,HACA03,
2IFC,71,0,71,0,5.7,-1,correct answer,0.502371942857,True,False,stimulusHACA03_2IFC_2019_Jun_28_1438_143,stimulusHACA03_2IFC_2019_Jun_28_1438_144,True,2019_Jun_28_1438,2IFC,,HACA03,
2IFC,72,0,72,0,4.4,-1,correct answer,0.567621615715,True,False,stimulusHACA03_2IFC_2019_Jun_28_1438_145,stimulusHACA03_2IFC_2019_Jun_28_1438_146,True,2019_Jun_28_1438,2IFC,,HACA03,
2IFC,73,0,73,0,4.4,-1,correct answer,0.601092797471,True,False,stimulusHACA03_2IFC_2019_Jun_28_1438_147,stimulusHACA03_2IFC_2019_Jun_28_1438_148,True,2019_Jun_28_1438,2IFC,,HACA03,
2IFC,74,0,74,0,7.8,-1,correct answer,0.535166541114,False,True,stimulusHACA03_2IFC_2019_Jun_28_1438_149,stimulusHACA03_2IFC_2019_Jun_28_1438_150,True,2019_Jun_28_1438,2IFC,,HACA03,
2IFC,0,0,0,0,11.1,-1,wrong answer,0.768001208548,True,False,stimulusHACA03_2IFC_2019_Jun_28_1438_151,stimulusHACA03_2IFC_2019_Jun_28_1438_152,True,2019_Jun_28_1438,2IFC,,HACA03,
2IFC,1,0,1,0,2.7,-1,wrong answer,0.600678143557,True,False,stimulusHACA03_2IFC_2019_Jun_28_1438_153,stimulusHACA03_2IFC_2019_Jun_28_1438_154,True,2019_Jun_28_1438,2IFC,,HACA03,
2IFC,2,0,2,0,5.7,-1,correct answer,0.436073729536,False,True,stimulusHACA03_2IFC_2019_Jun_28_1438_155,stimulusHACA03_2IFC_2019_Jun_28_1438_156,True,2019_Jun_28_1438,2IFC,,HACA03,
2IFC,3,0,3,0,4.4,-1,correct answer,0.535175983561,False,True,stimulusHACA03_2IFC_2019_Jun_28_1438_157,stimulusHACA03_2IFC_2019_Jun_28_1438_158,True,2019_Jun_28_1438,2IFC,,HACA03,
2IFC,4,0,4,0,4.4,-1,correct answer,0.663011691999,True,False,stimulusHACA03_2IFC_2019_Jun_28_1438_159,stimulusHACA03_2IFC_2019_Jun_28_1438_160,True,2019_Jun_28_1438,2IFC,,HACA03,
2IFC,5,0,5,0,8.8,-1,correct answer,0.468236083165,True,False,stimulusHACA03_2IFC_2019_Jun_28_1438_161,stimulusHACA03_2IFC_2019_Jun_28_1438_162,True,2019_Jun_28_1438,2IFC,,HACA03,
2IFC,6,0,6,0,9.8,-1,correct answer,0.433396133594,False,True,stimulusHACA03_2IFC_2019_Jun_28_1438_163,stimulusHACA03_2IFC_2019_Jun_28_1438_164,True,2019_Jun_28_1438,2IFC,,HACA03,
2IFC,7,0,7,0,6.7,-1,correct answer,0.6034271752,True,False,stimulusHACA03_2IFC_2019_Jun_28_1438_165,stimulusHACA03_2IFC_2019_Jun_28_1438_166,True,2019_Jun_28_1438,2IFC,,HACA03,
2IFC,8,0,8,0,9.8,-1,correct answer,0.467325487174,True,False,stimulusHACA03_2IFC_2019_Jun_28_1438_167,stimulusHACA03_2IFC_2019_Jun_28_1438_168,True,2019_Jun_28_1438,2IFC,,HACA03,
2IFC,9,0,9,0,7.8,-1,correct answer,0.535226891749,True,False,stimulusHACA03_2IFC_2019_Jun_28_1438_169,stimulusHACA03_2IFC_2019_Jun_28_1438_170,True,2019_Jun_28_1438,2IFC,,HACA03,
2IFC,10,0,10,0,2.7,-1,correct answer,0.519274626859,True,False,stimulusHACA03_2IFC_2019_Jun_28_1438_171,stimulusHACA03_2IFC_2019_Jun_28_1438_172,True,2019_Jun_28_1438,2IFC,,HACA03,
2IFC,11,0,11,0,6.7,-1,correct answer,0.537144152215,False,True,stimulusHACA03_2IFC_2019_Jun_28_1438_173,stimulusHACA03_2IFC_2019_Jun_28_1438_174,True,2019_Jun_28_1438,2IFC,,HACA03,
2IFC,12,0,12,0,6.7,-1,correct answer,0.498893367127,False,True,stimulusHACA03_2IFC_2019_Jun_28_1438_175,stimulusHACA03_2IFC_2019_Jun_28_1438_176,True,2019_Jun_28_1438,2IFC,,HACA03,
2IFC,13,0,13,0,9.8,-1,correct answer,0.504892709432,True,False,stimulusHACA03_2IFC_2019_Jun_28_1438_177,stimulusHACA03_2IFC_2019_Jun_28_1438_178,True,2019_Jun_28_1438,2IFC,,HACA03,
2IFC,14,0,14,0,6.7,-1,correct answer,0.664456821978,True,False,stimulusHACA03_2IFC_2019_Jun_28_1438_179,stimulusHACA03_2IFC_2019_Jun_28_1438_180,True,2019_Jun_28_1438,2IFC,,HACA03,
2IFC,15,0,15,0,4.4,-1,wrong answer,0.468092801981,True,False,stimulusHACA03_2IFC_2019_Jun_28_1438_181,stimulusHACA03_2IFC_2019_Jun_28_1438_182,True,2019_Jun_28_1438,2IFC,,HACA03,
2IFC,16,0,16,0,9.8,-1,correct answer,0.566796824103,True,False,stimulusHACA03_2IFC_2019_Jun_28_1438_183,stimulusHACA03_2IFC_2019_Jun_28_1438_184,True,2019_Jun_28_1438,2IFC,,HACA03,
2IFC,17,0,17,0,8.8,-1,correct answer,0.637233774876,False,True,stimulusHACA03_2IFC_2019_Jun_28_1438_185,stimulusHACA03_2IFC_2019_Jun_28_1438_186,True,2019_Jun_28_1438,2IFC,,HACA03,
2IFC,18,0,18,0,9.8,-1,correct answer,0.337084376486,True,False,stimulusHACA03_2IFC_2019_Jun_28_1438_187,stimulusHACA03_2IFC_2019_Jun_28_1438_188,True,2019_Jun_28_1438,2IFC,,HACA03,
2IFC,19,0,19,0,5.7,-1,correct answer,0.534343802137,True,False,stimulusHACA03_2IFC_2019_Jun_28_1438_189,stimulusHACA03_2IFC_2019_Jun_28_1438_190,True,2019_Jun_28_1438,2IFC,,HACA03,
2IFC,20,0,20,0,11.1,-1,correct answer,0.442052955041,True,False,stimulusHACA03_2IFC_2019_Jun_28_1438_191,stimulusHACA03_2IFC_2019_Jun_28_1438_192,True,2019_Jun_28_1438,2IFC,,HACA03,
2IFC,21,0,21,0,2.7,-1,correct answer,0.56776120211,True,False,stimulusHACA03_2IFC_2019_Jun_28_1438_193,stimulusHACA03_2IFC_2019_Jun_28_1438_194,True,2019_Jun_28_1438,2IFC,,HACA03,
2IFC,22,0,22,0,5.7,-1,wrong answer,0.603583183605,True,False,stimulusHACA03_2IFC_2019_Jun_28_1438_195,stimulusHACA03_2IFC_2019_Jun_28_1438_196,True,2019_Jun_28_1438,2IFC,,HACA03,
2IFC,23,0,23,0,9.8,-1,correct answer,0.501326276222,False,True,stimulusHACA03_2IFC_2019_Jun_28_1438_197,stimulusHACA03_2IFC_2019_Jun_28_1438_198,True,2019_Jun_28_1438,2IFC,,HACA03,
2IFC,24,0,24,0,9.8,-1,correct answer,0.502098928206,False,True,stimulusHACA03_2IFC_2019_Jun_28_1438_199,stimulusHACA03_2IFC_2019_Jun_28_1438_200,True,2019_Jun_28_1438,2IFC,,HACA03,
2IFC,25,0,25,0,2.7,-1,correct answer,0.801717898343,True,False,stimulusHACA03_2IFC_2019_Jun_28_1438_201,stimulusHACA03_2IFC_2019_Jun_28_1438_202,True,2019_Jun_28_1438,2IFC,,HACA03,
2IFC,26,0,26,0,2.7,-1,correct answer,0.497377212159,True,False,stimulusHACA03_2IFC_2019_Jun_28_1438_203,stimulusHACA03_2IFC_2019_Jun_28_1438_204,True,2019_Jun_28_1438,2IFC,,HACA03,
2IFC,27,0,27,0,8.8,-1,wrong answer,0.634415771114,True,False,stimulusHACA03_2IFC_2019_Jun_28_1438_205,stimulusHACA03_2IFC_2019_Jun_28_1438_206,True,2019_Jun_28_1438,2IFC,,HACA03,
2IFC,28,0,28,0,9.8,-1,correct answer,0.567411825527,True,False,stimulusHACA03_2IFC_2019_Jun_28_1438_207,stimulusHACA03_2IFC_2019_Jun_28_1438_208,True,2019_Jun_28_1438,2IFC,,HACA03,
2IFC,29,0,29,0,6.7,-1,correct answer,0.534668135457,False,True,stimulusHACA03_2IFC_2019_Jun_28_1438_209,stimulusHACA03_2IFC_2019_Jun_28_1438_210,True,2019_Jun_28_1438,2IFC,,HACA03,
2IFC,30,0,30,0,2.7,-1,wrong answer,0.700115405023,True,False,stimulusHACA03_2IFC_2019_Jun_28_1438_211,stimulusHACA03_2IFC_2019_Jun_28_1438_212,True,2019_Jun_28_1438,2IFC,,HACA03,
2IFC,31,0,31,0,4.4,-1,correct answer,0.844749518437,True,False,stimulusHACA03_2IFC_2019_Jun_28_1438_213,stimulusHACA03_2IFC_2019_Jun_28_1438_214,True,2019_Jun_28_1438,2IFC,,HACA03,
2IFC,32,0,32,0,5.7,-1,correct answer,0.768206482753,True,False,stimulusHACA03_2IFC_2019_Jun_28_1438_215,stimulusHACA03_2IFC_2019_Jun_28_1438_216,True,2019_Jun_28_1438,2IFC,,HACA03,
2IFC,33,0,33,0,9.8,-1,wrong answer,0.706117210677,False,True,stimulusHACA03_2IFC_2019_Jun_28_1438_217,stimulusHACA03_2IFC_2019_Jun_28_1438_218,True,2019_Jun_28_1438,2IFC,,HACA03,
2IFC,34,0,34,0,7.8,-1,correct answer,0.634435067186,True,False,stimulusHACA03_2IFC_2019_Jun_28_1438_219,stimulusHACA03_2IFC_2019_Jun_28_1438_220,True,2019_Jun_28_1438,2IFC,,HACA03,
2IFC,35,0,35,0,11.1,-1,correct answer,0.470115573378,False,True,stimulusHACA03_2IFC_2019_Jun_28_1438_221,stimulusHACA03_2IFC_2019_Jun_28_1438_222,True,2019_Jun_28_1438,2IFC,,HACA03,
2IFC,36,0,36,0,2.7,-1,wrong answer,0.430023068795,True,False,stimulusHACA03_2IFC_2019_Jun_28_1438_223,stimulusHACA03_2IFC_2019_Jun_28_1438_224,True,2019_Jun_28_1438,2IFC,,HACA03,
2IFC,37,0,37,0,5.7,-1,correct answer,0.700707005104,True,False,stimulusHACA03_2IFC_2019_Jun_28_1438_225,stimulusHACA03_2IFC_2019_Jun_28_1438_226,True,2019_Jun_28_1438,2IFC,,HACA03,
2IFC,38,0,38,0,5.7,-1,correct answer,0.632191010052,True,False,stimulusHACA03_2IFC_2019_Jun_28_1438_227,stimulusHACA03_2IFC_2019_Jun_28_1438_228,True,2019_Jun_28_1438,2IFC,,HACA03,
2IFC,39,0,39,0,11.1,-1,correct answer,0.365259895567,True,False,stimulusHACA03_2IFC_2019_Jun_28_1438_229,stimulusHACA03_2IFC_2019_Jun_28_1438_230,True,2019_Jun_28_1438,2IFC,,HACA03,
2IFC,40,0,40,0,5.7,-1,correct answer,0.534948950401,False,True,stimulusHACA03_2IFC_2019_Jun_28_1438_231,stimulusHACA03_2IFC_2019_Jun_28_1438_232,True,2019_Jun_28_1438,2IFC,,HACA03,
2IFC,41,0,41,0,11.1,-1,correct answer,0.506050044904,False,True,stimulusHACA03_2IFC_2019_Jun_28_1438_233,stimulusHACA03_2IFC_2019_Jun_28_1438_234,True,2019_Jun_28_1438,2IFC,,HACA03,
2IFC,42,0,42,0,11.1,-1,correct answer,0.463140357751,True,False,stimulusHACA03_2IFC_2019_Jun_28_1438_235,stimulusHACA03_2IFC_2019_Jun_28_1438_236,True,2019_Jun_28_1438,2IFC,,HACA03,
2IFC,43,0,43,0,6.7,-1,correct answer,0.584578902693,False,True,stimulusHACA03_2IFC_2019_Jun_28_1438_237,stimulusHACA03_2IFC_2019_Jun_28_1438_238,True,2019_Jun_28_1438,2IFC,,HACA03,
2IFC,44,0,44,0,5.7,-1,correct answer,0.468012334546,True,False,stimulusHACA03_2IFC_2019_Jun_28_1438_239,stimulusHACA03_2IFC_2019_Jun_28_1438_240,True,2019_Jun_28_1438,2IFC,,HACA03,
2IFC,45,0,45,0,11.1,-1,correct answer,0.534456703113,True,False,stimulusHACA03_2IFC_2019_Jun_28_1438_241,stimulusHACA03_2IFC_2019_Jun_28_1438_242,True,2019_Jun_28_1438,2IFC,,HACA03,
2IFC,46,0,46,0,11.1,-1,wrong answer,0.467039334821,False,True,stimulusHACA03_2IFC_2019_Jun_28_1438_243,stimulusHACA03_2IFC_2019_Jun_28_1438_244,True,2019_Jun_28_1438,2IFC,,HACA03,
2IFC,47,0,47,0,9.8,-1,correct answer,0.635797676863,False,True,stimulusHACA03_2IFC_2019_Jun_28_1438_245,stimulusHACA03_2IFC_2019_Jun_28_1438_246,True,2019_Jun_28_1438,2IFC,,HACA03,
2IFC,48,0,48,0,2.7,-1,wrong answer,0.667330249446,False,True,stimulusHACA03_2IFC_2019_Jun_28_1438_247,stimulusHACA03_2IFC_2019_Jun_28_1438_248,True,2019_Jun_28_1438,2IFC,,HACA03,
2IFC,49,0,49,0,11.1,-1,correct answer,0.567805541446,False,True,stimulusHACA03_2IFC_2019_Jun_28_1438_249,stimulusHACA03_2IFC_2019_Jun_28_1438_250,True,2019_Jun_28_1438,2IFC,,HACA03,
2IFC,50,0,50,0,7.8,-1,correct answer,0.46890363493,False,True,stimulusHACA03_2IFC_2019_Jun_28_1438_251,stimulusHACA03_2IFC_2019_Jun_28_1438_252,True,2019_Jun_28_1438,2IFC,,HACA03,
2IFC,51,0,51,0,11.1,-1,correct answer,0.568771561375,True,False,stimulusHACA03_2IFC_2019_Jun_28_1438_253,stimulusHACA03_2IFC_2019_Jun_28_1438_254,True,2019_Jun_28_1438,2IFC,,HACA03,
2IFC,52,0,52,0,5.7,-1,correct answer,0.534257587045,False,True,stimulusHACA03_2IFC_2019_Jun_28_1438_255,stimulusHACA03_2IFC_2019_Jun_28_1438_256,True,2019_Jun_28_1438,2IFC,,HACA03,
2IFC,53,0,53,0,6.7,-1,wrong answer,0.667894753395,False,True,stimulusHACA03_2IFC_2019_Jun_28_1438_257,stimulusHACA03_2IFC_2019_Jun_28_1438_258,True,2019_Jun_28_1438,2IFC,,HACA03,
2IFC,54,0,54,0,5.7,-1,correct answer,0.601376075763,False,True,stimulusHACA03_2IFC_2019_Jun_28_1438_259,stimulusHACA03_2IFC_2019_Jun_28_1438_260,True,2019_Jun_28_1438,2IFC,,HACA03,
2IFC,55,0,55,0,9.8,-1,correct answer,0.500666524982,True,False,stimulusHACA03_2IFC_2019_Jun_28_1438_261,stimulusHACA03_2IFC_2019_Jun_28_1438_262,True,2019_Jun_28_1438,2IFC,,HACA03,
2IFC,56,0,56,0,9.8,-1,correct answer,0.600987697253,False,True,stimulusHACA03_2IFC_2019_Jun_28_1438_263,stimulusHACA03_2IFC_2019_Jun_28_1438_264,True,2019_Jun_28_1438,2IFC,,HACA03,
2IFC,57,0,57,0,9.8,-1,correct answer,0.568053102121,True,False,stimulusHACA03_2IFC_2019_Jun_28_1438_265,stimulusHACA03_2IFC_2019_Jun_28_1438_266,True,2019_Jun_28_1438,2IFC,,HACA03,
2IFC,58,0,58,0,8.8,-1,correct answer,0.567881082417,True,False,stimulusHACA03_2IFC_2019_Jun_28_1438_267,stimulusHACA03_2IFC_2019_Jun_28_1438_268,True,2019_Jun_28_1438,2IFC,,HACA03,
2IFC,59,0,59,0,4.4,-1,correct answer,0.467141971923,True,False,stimulusHACA03_2IFC_2019_Jun_28_1438_269,stimulusHACA03_2IFC_2019_Jun_28_1438_270,True,2019_Jun_28_1438,2IFC,,HACA03,
2IFC,60,0,60,0,6.7,-1,correct answer,0.534506379394,False,True,stimulusHACA03_2IFC_2019_Jun_28_1438_271,stimulusHACA03_2IFC_2019_Jun_28_1438_272,True,2019_Jun_28_1438,2IFC,,HACA03,
2IFC,61,0,61,0,7.8,-1,wrong answer,0.435321605066,False,True,stimulusHACA03_2IFC_2019_Jun_28_1438_273,stimulusHACA03_2IFC_2019_Jun_28_1438_274,True,2019_Jun_28_1438,2IFC,,HACA03,
2IFC,62,0,62,0,5.7,-1,correct answer,0.601767738815,False,True,stimulusHACA03_2IFC_2019_Jun_28_1438_275,stimulusHACA03_2IFC_2019_Jun_28_1438_276,True,2019_Jun_28_1438,2IFC,,HACA03,
2IFC,63,0,63,0,6.7,-1,correct answer,0.534453008091,True,False,stimulusHACA03_2IFC_2019_Jun_28_1438_277,stimulusHACA03_2IFC_2019_Jun_28_1438_278,True,2019_Jun_28_1438,2IFC,,HACA03,
2IFC,64,0,64,0,4.4,-1,correct answer,0.608839022694,False,True,stimulusHACA03_2IFC_2019_Jun_28_1438_279,stimulusHACA03_2IFC_2019_Jun_28_1438_280,True,2019_Jun_28_1438,2IFC,,HACA03,
2IFC,65,0,65,0,5.7,-1,wrong answer,0.733388702618,False,True,stimulusHACA03_2IFC_2019_Jun_28_1438_281,stimulusHACA03_2IFC_2019_Jun_28_1438_282,True,2019_Jun_28_1438,2IFC,,HACA03,
2IFC,66,0,66,0,11.1,-1,correct answer,0.601180654718,False,True,stimulusHACA03_2IFC_2019_Jun_28_1438_283,stimulusHACA03_2IFC_2019_Jun_28_1438_284,True,2019_Jun_28_1438,2IFC,,HACA03,
2IFC,67,0,67,0,2.7,-1,correct answer,0.635581317823,False,True,stimulusHACA03_2IFC_2019_Jun_28_1438_285,stimulusHACA03_2IFC_2019_Jun_28_1438_286,True,2019_Jun_28_1438,2IFC,,HACA03,
2IFC,68,0,68,0,11.1,-1,correct answer,0.534541686531,True,False,stimulusHACA03_2IFC_2019_Jun_28_1438_287,stimulusHACA03_2IFC_2019_Jun_28_1438_288,True,2019_Jun_28_1438,2IFC,,HACA03,
2IFC,69,0,69,0,7.8,-1,correct answer,0.60283311177,False,True,stimulusHACA03_2IFC_2019_Jun_28_1438_289,stimulusHACA03_2IFC_2019_Jun_28_1438_290,True,2019_Jun_28_1438,2IFC,,HACA03,
2IFC,70,0,70,0,8.8,-1,correct answer,0.534810595447,False,True,stimulusHACA03_2IFC_2019_Jun_28_1438_291,stimulusHACA03_2IFC_2019_Jun_28_1438_292,True,2019_Jun_28_1438,2IFC,,HACA03,
2IFC,71,0,71,0,7.8,-1,correct answer,0.599856636487,False,True,stimulusHACA03_2IFC_2019_Jun_28_1438_293,stimulusHACA03_2IFC_2019_Jun_28_1438_294,True,2019_Jun_28_1438,2IFC,,HACA03,
2IFC,72,0,72,0,8.8,-1,correct answer,0.532837500563,True,False,stimulusHACA03_2IFC_2019_Jun_28_1438_295,stimulusHACA03_2IFC_2019_Jun_28_1438_296,True,2019_Jun_28_1438,2IFC,,HACA03,
2IFC,73,0,73,0,2.7,-1,correct answer,0.534043691354,False,True,stimulusHACA03_2IFC_2019_Jun_28_1438_297,stimulusHACA03_2IFC_2019_Jun_28_1438_298,True,2019_Jun_28_1438,2IFC,,HACA03,
2IFC,74,0,74,0,5.7,-1,no answer,-1,False,True,stimulusHACA03_2IFC_2019_Jun_28_1438_299,stimulusHACA03_2IFC_2019_Jun_28_1438_300,True,2019_Jun_28_1438,2IFC,,HACA03,
2IFC,0,0,0,0,11.1,-1,wrong answer,0.767317235237,False,True,stimulusHACA03_2IFC_2019_Jun_28_1438_301,stimulusHACA03_2IFC_2019_Jun_28_1438_302,True,2019_Jun_28_1438,2IFC,,HACA03,
2IFC,1,0,1,0,5.7,-1,wrong answer,0.599857046967,False,True,stimulusHACA03_2IFC_2019_Jun_28_1438_303,stimulusHACA03_2IFC_2019_Jun_28_1438_304,True,2019_Jun_28_1438,2IFC,,HACA03,
2IFC,2,0,2,0,4.4,-1,correct answer,0.500026069814,True,False,stimulusHACA03_2IFC_2019_Jun_28_1438_305,stimulusHACA03_2IFC_2019_Jun_28_1438_306,True,2019_Jun_28_1438,2IFC,,HACA03,
2IFC,3,0,3,0,4.4,-1,wrong answer,0.498229510617,False,True,stimulusHACA03_2IFC_2019_Jun_28_1438_307,stimulusHACA03_2IFC_2019_Jun_28_1438_308,True,2019_Jun_28_1438,2IFC,,HACA03,
2IFC,4,0,4,0,4.4,-1,correct answer,0.534833586076,True,False,stimulusHACA03_2IFC_2019_Jun_28_1438_309,stimulusHACA03_2IFC_2019_Jun_28_1438_310,True,2019_Jun_28_1438,2IFC,,HACA03,
2IFC,5,0,5,0,8.8,-1,correct answer,0.53401331068,False,True,stimulusHACA03_2IFC_2019_Jun_28_1438_311,stimulusHACA03_2IFC_2019_Jun_28_1438_312,True,2019_Jun_28_1438,2IFC,,HACA03,
2IFC,6,0,6,0,5.7,-1,wrong answer,0.601339536952,True,False,stimulusHACA03_2IFC_2019_Jun_28_1438_313,stimulusHACA03_2IFC_2019_Jun_28_1438_314,True,2019_Jun_28_1438,2IFC,,HACA03,
2IFC,7,0,7,0,7.8,-1,correct answer,0.601971781347,False,True,stimulusHACA03_2IFC_2019_Jun_28_1438_315,stimulusHACA03_2IFC_2019_Jun_28_1438_316,True,2019_Jun_28_1438,2IFC,,HACA03,
2IFC,8,0,8,0,9.8,-1,correct answer,0.434819914866,True,False,stimulusHACA03_2IFC_2019_Jun_28_1438_317,stimulusHACA03_2IFC_2019_Jun_28_1438_318,True,2019_Jun_28_1438,2IFC,,HACA03,
2IFC,9,0,9,0,4.4,-1,wrong answer,0.501025344245,False,True,stimulusHACA03_2IFC_2019_Jun_28_1438_319,stimulusHACA03_2IFC_2019_Jun_28_1438_320,True,2019_Jun_28_1438,2IFC,,HACA03,
2IFC,10,0,10,0,6.7,-1,correct answer,0.568005888723,True,False,stimulusHACA03_2IFC_2019_Jun_28_1438_321,stimulusHACA03_2IFC_2019_Jun_28_1438_322,True,2019_Jun_28_1438,2IFC,,HACA03,
2IFC,11,0,11,0,5.7,-1,correct answer,0.534419343108,False,True,stimulusHACA03_2IFC_2019_Jun_28_1438_323,stimulusHACA03_2IFC_2019_Jun_28_1438_324,True,2019_Jun_28_1438,2IFC,,HACA03,
2IFC,12,0,12,0,2.7,-1,correct answer,0.634940041462,False,True,stimulusHACA03_2IFC_2019_Jun_28_1438_325,stimulusHACA03_2IFC_2019_Jun_28_1438_326,True,2019_Jun_28_1438,2IFC,,HACA03,
2IFC,13,0,13,0,2.7,-1,correct answer,0.600511050317,True,False,stimulusHACA03_2IFC_2019_Jun_28_1438_327,stimulusHACA03_2IFC_2019_Jun_28_1438_328,True,2019_Jun_28_1438,2IFC,,HACA03,
2IFC,14,0,14,0,9.8,-1,correct answer,0.567674576305,False,True,stimulusHACA03_2IFC_2019_Jun_28_1438_329,stimulusHACA03_2IFC_2019_Jun_28_1438_330,True,2019_Jun_28_1438,2IFC,,HACA03,
2IFC,15,0,15,0,5.7,-1,correct answer,0.667386494577,False,True,stimulusHACA03_2IFC_2019_Jun_28_1438_331,stimulusHACA03_2IFC_2019_Jun_28_1438_332,True,2019_Jun_28_1438,2IFC,,HACA03,
2IFC,16,0,16,0,4.4,-1,correct answer,0.668747462332,True,False,stimulusHACA03_2IFC_2019_Jun_28_1438_333,stimulusHACA03_2IFC_2019_Jun_28_1438_334,True,2019_Jun_28_1438,2IFC,,HACA03,
2IFC,17,0,17,0,11.1,-1,correct answer,0.601261943579,True,False,stimulusHACA03_2IFC_2019_Jun_28_1438_335,stimulusHACA03_2IFC_2019_Jun_28_1438_336,True,2019_Jun_28_1438,2IFC,,HACA03,
2IFC,18,0,18,0,5.7,-1,correct answer,0.668504828354,False,True,stimulusHACA03_2IFC_2019_Jun_28_1438_337,stimulusHACA03_2IFC_2019_Jun_28_1438_338,True,2019_Jun_28_1438,2IFC,,HACA03,
2IFC,19,0,19,0,5.7,-1,correct answer,0.534208731959,False,True,stimulusHACA03_2IFC_2019_Jun_28_1438_339,stimulusHACA03_2IFC_2019_Jun_28_1438_340,True,2019_Jun_28_1438,2IFC,,HACA03,
2IFC,20,0,20,0,4.4,-1,correct answer,0.501970837126,True,False,stimulusHACA03_2IFC_2019_Jun_28_1438_341,stimulusHACA03_2IFC_2019_Jun_28_1438_342,True,2019_Jun_28_1438,2IFC,,HACA03,
2IFC,21,0,21,0,7.8,-1,correct answer,0.467738909414,True,False,stimulusHACA03_2IFC_2019_Jun_28_1438_343,stimulusHACA03_2IFC_2019_Jun_28_1438_344,True,2019_Jun_28_1438,2IFC,,HACA03,
2IFC,22,0,22,0,2.7,-1,correct answer,0.601224994054,True,False,stimulusHACA03_2IFC_2019_Jun_28_1438_345,stimulusHACA03_2IFC_2019_Jun_28_1438_346,True,2019_Jun_28_1438,2IFC,,HACA03,
2IFC,23,0,23,0,6.7,-1,correct answer,0.601536600152,True,False,stimulusHACA03_2IFC_2019_Jun_28_1438_347,stimulusHACA03_2IFC_2019_Jun_28_1438_348,True,2019_Jun_28_1438,2IFC,,HACA03,
2IFC,24,0,24,0,2.7,-1,correct answer,0.598912375513,False,True,stimulusHACA03_2IFC_2019_Jun_28_1438_349,stimulusHACA03_2IFC_2019_Jun_28_1438_350,True,2019_Jun_28_1438,2IFC,,HACA03,
2IFC,25,0,25,0,11.1,-1,correct answer,0.436572545674,False,True,stimulusHACA03_2IFC_2019_Jun_28_1438_351,stimulusHACA03_2IFC_2019_Jun_28_1438_352,True,2019_Jun_28_1438,2IFC,,HACA03,
2IFC,26,0,26,0,11.1,-1,correct answer,0.398193669738,True,False,stimulusHACA03_2IFC_2019_Jun_28_1438_353,stimulusHACA03_2IFC_2019_Jun_28_1438_354,True,2019_Jun_28_1438,2IFC,,HACA03,
2IFC,27,0,27,0,8.8,-1,correct answer,0.300832550973,True,False,stimulusHACA03_2IFC_2019_Jun_28_1438_355,stimulusHACA03_2IFC_2019_Jun_28_1438_356,True,2019_Jun_28_1438,2IFC,,HACA03,
2IFC,28,0,28,0,9.8,-1,correct answer,0.368615306914,False,True,stimulusHACA03_2IFC_2019_Jun_28_1438_357,stimulusHACA03_2IFC_2019_Jun_28_1438_358,True,2019_Jun_28_1438,2IFC,,HACA03,
2IFC,29,0,29,0,7.8,-1,correct answer,0.533597835805,False,True,stimulusHACA03_2IFC_2019_Jun_28_1438_359,stimulusHACA03_2IFC_2019_Jun_28_1438_360,True,2019_Jun_28_1438,2IFC,,HACA03,
2IFC,30,0,30,0,8.8,-1,correct answer,0.600821835455,True,False,stimulusHACA03_2IFC_2019_Jun_28_1438_361,stimulusHACA03_2IFC_2019_Jun_28_1438_362,True,2019_Jun_28_1438,2IFC,,HACA03,
2IFC,31,0,31,0,9.8,-1,correct answer,0.435808515409,True,False,stimulusHACA03_2IFC_2019_Jun_28_1438_363,stimulusHACA03_2IFC_2019_Jun_28_1438_364,True,2019_Jun_28_1438,2IFC,,HACA03,
2IFC,32,0,32,0,11.1,-1,correct answer,0.366415589117,False,True,stimulusHACA03_2IFC_2019_Jun_28_1438_365,stimulusHACA03_2IFC_2019_Jun_28_1438_366,True,2019_Jun_28_1438,2IFC,,HACA03,
2IFC,33,0,33,0,5.7,-1,correct answer,0.534619690618,False,True,stimulusHACA03_2IFC_2019_Jun_28_1438_367,stimulusHACA03_2IFC_2019_Jun_28_1438_368,True,2019_Jun_28_1438,2IFC,,HACA03,
2IFC,34,0,34,0,9.8,-1,wrong answer,0.533814194845,False,True,stimulusHACA03_2IFC_2019_Jun_28_1438_369,stimulusHACA03_2IFC_2019_Jun_28_1438_370,True,2019_Jun_28_1438,2IFC,,HACA03,
2IFC,35,0,35,0,11.1,-1,correct answer,0.502168721519,True,False,stimulusHACA03_2IFC_2019_Jun_28_1438_371,stimulusHACA03_2IFC_2019_Jun_28_1438_372,True,2019_Jun_28_1438,2IFC,,HACA03,
2IFC,36,0,36,0,6.7,-1,correct answer,0.532946295803,True,False,stimulusHACA03_2IFC_2019_Jun_28_1438_373,stimulusHACA03_2IFC_2019_Jun_28_1438_374,True,2019_Jun_28_1438,2IFC,,HACA03,
2IFC,37,0,37,0,9.8,-1,correct answer,0.634590664878,True,False,stimulusHACA03_2IFC_2019_Jun_28_1438_375,stimulusHACA03_2IFC_2019_Jun_28_1438_376,True,2019_Jun_28_1438,2IFC,,HACA03,
2IFC,38,0,38,0,6.7,-1,correct answer,0.634602570673,False,True,stimulusHACA03_2IFC_2019_Jun_28_1438_377,stimulusHACA03_2IFC_2019_Jun_28_1438_378,True,2019_Jun_28_1438,2IFC,,HACA03,
2IFC,39,0,39,0,11.1,-1,correct answer,0.467782427557,True,False,stimulusHACA03_2IFC_2019_Jun_28_1438_379,stimulusHACA03_2IFC_2019_Jun_28_1438_380,True,2019_Jun_28_1438,2IFC,,HACA03,
2IFC,40,0,40,0,7.8,-1,correct answer,0.433632198954,True,False,stimulusHACA03_2IFC_2019_Jun_28_1438_381,stimulusHACA03_2IFC_2019_Jun_28_1438_382,True,2019_Jun_28_1438,2IFC,,HACA03,
2IFC,41,0,41,0,8.8,-1,correct answer,0.610728776781,False,True,stimulusHACA03_2IFC_2019_Jun_28_1438_383,stimulusHACA03_2IFC_2019_Jun_28_1438_384,True,2019_Jun_28_1438,2IFC,,HACA03,
2IFC,42,0,42,0,7.8,-1,correct answer,0.4013343642,True,False,stimulusHACA03_2IFC_2019_Jun_28_1438_385,stimulusHACA03_2IFC_2019_Jun_28_1438_386,True,2019_Jun_28_1438,2IFC,,HACA03,
2IFC,43,0,43,0,7.8,-1,correct answer,0.399256579112,False,True,stimulusHACA03_2IFC_2019_Jun_28_1438_387,stimulusHACA03_2IFC_2019_Jun_28_1438_388,True,2019_Jun_28_1438,2IFC,,HACA03,
2IFC,44,0,44,0,4.4,-1,wrong answer,0.63394774613,False,True,stimulusHACA03_2IFC_2019_Jun_28_1438_389,stimulusHACA03_2IFC_2019_Jun_28_1438_390,True,2019_Jun_28_1438,2IFC,,HACA03,
2IFC,45,0,45,0,9.8,-1,correct answer,0.33406479354,True,False,stimulusHACA03_2IFC_2019_Jun_28_1438_391,stimulusHACA03_2IFC_2019_Jun_28_1438_392,True,2019_Jun_28_1438,2IFC,,HACA03,
2IFC,46,0,46,0,11.1,-1,correct answer,0.535982300527,True,False,stimulusHACA03_2IFC_2019_Jun_28_1438_393,stimulusHACA03_2IFC_2019_Jun_28_1438_394,True,2019_Jun_28_1438,2IFC,,HACA03,
2IFC,47,0,47,0,7.8,-1,correct answer,0.367094635963,True,False,stimulusHACA03_2IFC_2019_Jun_28_1438_395,stimulusHACA03_2IFC_2019_Jun_28_1438_396,True,2019_Jun_28_1438,2IFC,,HACA03,
2IFC,48,0,48,0,7.8,-1,correct answer,0.734309562482,True,False,stimulusHACA03_2IFC_2019_Jun_28_1438_397,stimulusHACA03_2IFC_2019_Jun_28_1438_398,True,2019_Jun_28_1438,2IFC,,HACA03,
2IFC,49,0,49,0,6.7,-1,correct answer,0.667707543354,True,False,stimulusHACA03_2IFC_2019_Jun_28_1438_399,stimulusHACA03_2IFC_2019_Jun_28_1438_400,True,2019_Jun_28_1438,2IFC,,HACA03,
2IFC,50,0,50,0,5.7,-1,correct answer,0.567670881283,False,True,stimulusHACA03_2IFC_2019_Jun_28_1438_401,stimulusHACA03_2IFC_2019_Jun_28_1438_402,True,2019_Jun_28_1438,2IFC,,HACA03,
2IFC,51,0,51,0,2.7,-1,correct answer,0.43441265123,True,False,stimulusHACA03_2IFC_2019_Jun_28_1438_403,stimulusHACA03_2IFC_2019_Jun_28_1438_404,True,2019_Jun_28_1438,2IFC,,HACA03,
2IFC,52,0,52,0,6.7,-1,correct answer,0.46755662607,False,True,stimulusHACA03_2IFC_2019_Jun_28_1438_405,stimulusHACA03_2IFC_2019_Jun_28_1438_406,True,2019_Jun_28_1438,2IFC,,HACA03,
2IFC,53,0,53,0,4.4,-1,wrong answer,0.466974468436,False,True,stimulusHACA03_2IFC_2019_Jun_28_1438_407,stimulusHACA03_2IFC_2019_Jun_28_1438_408,True,2019_Jun_28_1438,2IFC,,HACA03,
2IFC,54,0,54,0,11.1,-1,correct answer,0.339061166393,True,False,stimulusHACA03_2IFC_2019_Jun_28_1438_409,stimulusHACA03_2IFC_2019_Jun_28_1438_410,True,2019_Jun_28_1438,2IFC,,HACA03,
2IFC,55,0,55,0,8.8,-1,no answer,-1,True,False,stimulusHACA03_2IFC_2019_Jun_28_1438_411,stimulusHACA03_2IFC_2019_Jun_28_1438_412,True,2019_Jun_28_1438,2IFC,,HACA03,
2IFC,56,0,56,0,7.8,-1,wrong answer,0.633322070586,True,False,stimulusHACA03_2IFC_2019_Jun_28_1438_413,stimulusHACA03_2IFC_2019_Jun_28_1438_414,True,2019_Jun_28_1438,2IFC,,HACA03,
2IFC,57,0,57,0,4.4,-1,wrong answer,0.500057682162,False,True,stimulusHACA03_2IFC_2019_Jun_28_1438_415,stimulusHACA03_2IFC_2019_Jun_28_1438_416,True,2019_Jun_28_1438,2IFC,,HACA03,
2IFC,58,0,58,0,5.7,-1,correct answer,0.498006582726,False,True,stimulusHACA03_2IFC_2019_Jun_28_1438_417,stimulusHACA03_2IFC_2019_Jun_28_1438_418,True,2019_Jun_28_1438,2IFC,,HACA03,
2IFC,59,0,59,0,4.4,-1,correct answer,0.333935060306,True,False,stimulusHACA03_2IFC_2019_Jun_28_1438_419,stimulusHACA03_2IFC_2019_Jun_28_1438_420,True,2019_Jun_28_1438,2IFC,,HACA03,
2IFC,60,0,60,0,9.8,-1,correct answer,0.238764216891,True,False,stimulusHACA03_2IFC_2019_Jun_28_1438_421,stimulusHACA03_2IFC_2019_Jun_28_1438_422,True,2019_Jun_28_1438,2IFC,,HACA03,
2IFC,61,0,61,0,11.1,-1,correct answer,0.267588402377,True,False,stimulusHACA03_2IFC_2019_Jun_28_1438_423,stimulusHACA03_2IFC_2019_Jun_28_1438_424,True,2019_Jun_28_1438,2IFC,,HACA03,
2IFC,62,0,62,0,6.7,-1,correct answer,0.568574908655,False,True,stimulusHACA03_2IFC_2019_Jun_28_1438_425,stimulusHACA03_2IFC_2019_Jun_28_1438_426,True,2019_Jun_28_1438,2IFC,,HACA03,
2IFC,63,0,63,0,8.8,-1,correct answer,0.434226262383,False,True,stimulusHACA03_2IFC_2019_Jun_28_1438_427,stimulusHACA03_2IFC_2019_Jun_28_1438_428,True,2019_Jun_28_1438,2IFC,,HACA03,
2IFC,64,0,64,0,5.7,-1,wrong answer,0.366360575659,False,True,stimulusHACA03_2IFC_2019_Jun_28_1438_429,stimulusHACA03_2IFC_2019_Jun_28_1438_430,True,2019_Jun_28_1438,2IFC,,HACA03,
2IFC,65,0,65,0,4.4,-1,wrong answer,0.600664185127,True,False,stimulusHACA03_2IFC_2019_Jun_28_1438_431,stimulusHACA03_2IFC_2019_Jun_28_1438_432,True,2019_Jun_28_1438,2IFC,,HACA03,
2IFC,66,0,66,0,5.7,-1,correct answer,0.465747339418,True,False,stimulusHACA03_2IFC_2019_Jun_28_1438_433,stimulusHACA03_2IFC_2019_Jun_28_1438_434,True,2019_Jun_28_1438,2IFC,,HACA03,
2IFC,67,0,67,0,11.1,-1,correct answer,0.501400585519,False,True,stimulusHACA03_2IFC_2019_Jun_28_1438_435,stimulusHACA03_2IFC_2019_Jun_28_1438_436,True,2019_Jun_28_1438,2IFC,,HACA03,
2IFC,68,0,68,0,5.7,-1,correct answer,0.600550462957,False,True,stimulusHACA03_2IFC_2019_Jun_28_1438_437,stimulusHACA03_2IFC_2019_Jun_28_1438_438,True,2019_Jun_28_1438,2IFC,,HACA03,
2IFC,69,0,69,0,8.8,-1,correct answer,0.4336215246,True,False,stimulusHACA03_2IFC_2019_Jun_28_1438_439,stimulusHACA03_2IFC_2019_Jun_28_1438_440,True,2019_Jun_28_1438,2IFC,,HACA03,
2IFC,70,0,70,0,4.4,-1,correct answer,0.400558427675,False,True,stimulusHACA03_2IFC_2019_Jun_28_1438_441,stimulusHACA03_2IFC_2019_Jun_28_1438_442,True,2019_Jun_28_1438,2IFC,,HACA03,
2IFC,71,0,71,0,6.7,-1,correct answer,0.434332183795,True,False,stimulusHACA03_2IFC_2019_Jun_28_1438_443,stimulusHACA03_2IFC_2019_Jun_28_1438_444,True,2019_Jun_28_1438,2IFC,,HACA03,
2IFC,72,0,72,0,5.7,-1,correct answer,0.436527385376,False,True,stimulusHACA03_2IFC_2019_Jun_28_1438_445,stimulusHACA03_2IFC_2019_Jun_28_1438_446,True,2019_Jun_28_1438,2IFC,,HACA03,
2IFC,73,0,73,0,11.1,-1,correct answer,0.50076300418,False,True,stimulusHACA03_2IFC_2019_Jun_28_1438_447,stimulusHACA03_2IFC_2019_Jun_28_1438_448,True,2019_Jun_28_1438,2IFC,,HACA03,
2IFC,74,0,74,0,11.1,-1,correct answer,0.369236876955,True,False,stimulusHACA03_2IFC_2019_Jun_28_1438_449,stimulusHACA03_2IFC_2019_Jun_28_1438_450,True,2019_Jun_28_1438,2IFC,,HACA03,
2IFC,0,0,0,0,7.8,-1,correct answer,0.768777555553,False,True,stimulusHACA03_2IFC_2019_Jun_28_1438_451,stimulusHACA03_2IFC_2019_Jun_28_1438_452,True,2019_Jun_28_1438,2IFC,,HACA03,
2IFC,1,0,1,0,2.7,-1,correct answer,0.402596389642,True,False,stimulusHACA03_2IFC_2019_Jun_28_1438_453,stimulusHACA03_2IFC_2019_Jun_28_1438_454,True,2019_Jun_28_1438,2IFC,,HACA03,
2IFC,2,0,2,0,7.8,-1,wrong answer,0.368068866897,False,True,stimulusHACA03_2IFC_2019_Jun_28_1438_455,stimulusHACA03_2IFC_2019_Jun_28_1438_456,True,2019_Jun_28_1438,2IFC,,HACA03,
2IFC,3,0,3,0,4.4,-1,wrong answer,0.63367760554,True,False,stimulusHACA03_2IFC_2019_Jun_28_1438_457,stimulusHACA03_2IFC_2019_Jun_28_1438_458,True,2019_Jun_28_1438,2IFC,,HACA03,
2IFC,4,0,4,0,5.7,-1,correct answer,0.463298419025,False,True,stimulusHACA03_2IFC_2019_Jun_28_1438_459,stimulusHACA03_2IFC_2019_Jun_28_1438_460,True,2019_Jun_28_1438,2IFC,,HACA03,
2IFC,5,0,5,0,5.7,-1,correct answer,0.567583845463,False,True,stimulusHACA03_2IFC_2019_Jun_28_1438_461,stimulusHACA03_2IFC_2019_Jun_28_1438_462,True,2019_Jun_28_1438,2IFC,,HACA03,
2IFC,6,0,6,0,5.7,-1,correct answer,0.500260492787,False,True,stimulusHACA03_2IFC_2019_Jun_28_1438_463,stimulusHACA03_2IFC_2019_Jun_28_1438_464,True,2019_Jun_28_1438,2IFC,,HACA03,
2IFC,7,0,7,0,5.7,-1,wrong answer,0.40137418732,False,True,stimulusHACA03_2IFC_2019_Jun_28_1438_465,stimulusHACA03_2IFC_2019_Jun_28_1438_466,True,2019_Jun_28_1438,2IFC,,HACA03,
2IFC,8,0,8,0,5.7,-1,correct answer,0.473302249331,True,False,stimulusHACA03_2IFC_2019_Jun_28_1438_467,stimulusHACA03_2IFC_2019_Jun_28_1438_468,True,2019_Jun_28_1438,2IFC,,HACA03,
2IFC,9,0,9,0,6.7,-1,correct answer,0.601805509301,True,False,stimulusHACA03_2IFC_2019_Jun_28_1438_469,stimulusHACA03_2IFC_2019_Jun_28_1438_470,True,2019_Jun_28_1438,2IFC,,HACA03,
2IFC,10,0,10,0,7.8,-1,wrong answer,0.533681998495,False,True,stimulusHACA03_2IFC_2019_Jun_28_1438_471,stimulusHACA03_2IFC_2019_Jun_28_1438_472,True,2019_Jun_28_1438,2IFC,,HACA03,
2IFC,11,0,11,0,2.7,-1,wrong answer,0.468927036272,False,True,stimulusHACA03_2IFC_2019_Jun_28_1438_473,stimulusHACA03_2IFC_2019_Jun_28_1438_474,True,2019_Jun_28_1438,2IFC,,HACA03,
2IFC,12,0,12,0,11.1,-1,correct answer,0.4658191856,True,False,stimulusHACA03_2IFC_2019_Jun_28_1438_475,stimulusHACA03_2IFC_2019_Jun_28_1438_476,True,2019_Jun_28_1438,2IFC,,HACA03,
2IFC,13,0,13,0,6.7,-1,wrong answer,0.602782203583,True,False,stimulusHACA03_2IFC_2019_Jun_28_1438_477,stimulusHACA03_2IFC_2019_Jun_28_1438_478,True,2019_Jun_28_1438,2IFC,,HACA03,
2IFC,14,0,14,0,8.8,-1,wrong answer,0.467558267992,False,True,stimulusHACA03_2IFC_2019_Jun_28_1438_479,stimulusHACA03_2IFC_2019_Jun_28_1438_480,True,2019_Jun_28_1438,2IFC,,HACA03,
2IFC,15,0,15,0,4.4,-1,correct answer,0.566182643874,False,True,stimulusHACA03_2IFC_2019_Jun_28_1438_481,stimulusHACA03_2IFC_2019_Jun_28_1438_482,True,2019_Jun_28_1438,2IFC,,HACA03,
2IFC,16,0,16,0,11.1,-1,correct answer,0.469906604383,True,False,stimulusHACA03_2IFC_2019_Jun_28_1438_483,stimulusHACA03_2IFC_2019_Jun_28_1438_484,True,2019_Jun_28_1438,2IFC,,HACA03,
2IFC,17,0,17,0,4.4,-1,correct answer,0.467509823386,True,False,stimulusHACA03_2IFC_2019_Jun_28_1438_485,stimulusHACA03_2IFC_2019_Jun_28_1438_486,True,2019_Jun_28_1438,2IFC,,HACA03,
2IFC,18,0,18,0,5.7,-1,correct answer,0.568628280191,False,True,stimulusHACA03_2IFC_2019_Jun_28_1438_487,stimulusHACA03_2IFC_2019_Jun_28_1438_488,True,2019_Jun_28_1438,2IFC,,HACA03,
2IFC,19,0,19,0,9.8,-1,correct answer,0.667976452736,False,True,stimulusHACA03_2IFC_2019_Jun_28_1438_489,stimulusHACA03_2IFC_2019_Jun_28_1438_490,True,2019_Jun_28_1438,2IFC,,HACA03,
2IFC,20,0,20,0,4.4,-1,correct answer,0.606838420732,False,True,stimulusHACA03_2IFC_2019_Jun_28_1438_491,stimulusHACA03_2IFC_2019_Jun_28_1438_492,True,2019_Jun_28_1438,2IFC,,HACA03,
2IFC,21,0,21,0,7.8,-1,correct answer,0.634108270751,False,True,stimulusHACA03_2IFC_2019_Jun_28_1438_493,stimulusHACA03_2IFC_2019_Jun_28_1438_494,True,2019_Jun_28_1438,2IFC,,HACA03,
2IFC,22,0,22,0,6.7,-1,correct answer,0.534142222954,False,True,stimulusHACA03_2IFC_2019_Jun_28_1438_495,stimulusHACA03_2IFC_2019_Jun_28_1438_496,True,2019_Jun_28_1438,2IFC,,HACA03,
2IFC,23,0,23,0,11.1,-1,correct answer,0.525015734136,False,True,stimulusHACA03_2IFC_2019_Jun_28_1438_497,stimulusHACA03_2IFC_2019_Jun_28_1438_498,True,2019_Jun_28_1438,2IFC,,HACA03,
2IFC,24,0,24,0,8.8,-1,correct answer,0.668474858161,False,True,stimulusHACA03_2IFC_2019_Jun_28_1438_499,stimulusHACA03_2IFC_2019_Jun_28_1438_500,True,2019_Jun_28_1438,2IFC,,HACA03,
2IFC,25,0,25,0,7.8,-1,correct answer,0.567842080258,False,True,stimulusHACA03_2IFC_2019_Jun_28_1438_501,stimulusHACA03_2IFC_2019_Jun_28_1438_502,True,2019_Jun_28_1438,2IFC,,HACA03,
2IFC,26,0,26,0,2.7,-1,correct answer,0.380420212634,False,True,stimulusHACA03_2IFC_2019_Jun_28_1438_503,stimulusHACA03_2IFC_2019_Jun_28_1438_504,True,2019_Jun_28_1438,2IFC,,HACA03,
2IFC,27,0,27,0,11.1,-1,correct answer,0.4289182832,False,True,stimulusHACA03_2IFC_2019_Jun_28_1438_505,stimulusHACA03_2IFC_2019_Jun_28_1438_506,True,2019_Jun_28_1438,2IFC,,HACA03,
2IFC,28,0,28,0,7.8,-1,correct answer,0.534345033811,False,True,stimulusHACA03_2IFC_2019_Jun_28_1438_507,stimulusHACA03_2IFC_2019_Jun_28_1438_508,True,2019_Jun_28_1438,2IFC,,HACA03,
2IFC,29,0,29,0,11.1,-1,correct answer,0.367356976261,True,False,stimulusHACA03_2IFC_2019_Jun_28_1438_509,stimulusHACA03_2IFC_2019_Jun_28_1438_510,True,2019_Jun_28_1438,2IFC,,HACA03,
2IFC,30,0,30,0,4.4,-1,correct answer,0.867634712253,False,True,stimulusHACA03_2IFC_2019_Jun_28_1438_511,stimulusHACA03_2IFC_2019_Jun_28_1438_512,True,2019_Jun_28_1438,2IFC,,HACA03,
2IFC,31,0,31,0,9.8,-1,correct answer,0.567126083886,False,True,stimulusHACA03_2IFC_2019_Jun_28_1438_513,stimulusHACA03_2IFC_2019_Jun_28_1438_514,True,2019_Jun_28_1438,2IFC,,HACA03,
2IFC,32,0,32,0,6.7,-1,correct answer,0.467844830826,False,True,stimulusHACA03_2IFC_2019_Jun_28_1438_515,stimulusHACA03_2IFC_2019_Jun_28_1438_516,True,2019_Jun_28_1438,2IFC,,HACA03,
2IFC,33,0,33,0,5.7,-1,correct answer,0.500838134438,True,False,stimulusHACA03_2IFC_2019_Jun_28_1438_517,stimulusHACA03_2IFC_2019_Jun_28_1438_518,True,2019_Jun_28_1438,2IFC,,HACA03,
2IFC,34,0,34,0,9.8,-1,correct answer,0.601888029603,False,True,stimulusHACA03_2IFC_2019_Jun_28_1438_519,stimulusHACA03_2IFC_2019_Jun_28_1438_520,True,2019_Jun_28_1438,2IFC,,HACA03,
2IFC,35,0,35,0,6.7,-1,correct answer,0.266516050324,True,False,stimulusHACA03_2IFC_2019_Jun_28_1438_521,stimulusHACA03_2IFC_2019_Jun_28_1438_522,True,2019_Jun_28_1438,2IFC,,HACA03,
2IFC,36,0,36,0,4.4,-1,correct answer,0.401373776607,False,True,stimulusHACA03_2IFC_2019_Jun_28_1438_523,stimulusHACA03_2IFC_2019_Jun_28_1438_524,True,2019_Jun_28_1438,2IFC,,HACA03,
2IFC,37,0,37,0,7.8,-1,correct answer,0.30051355483,True,False,stimulusHACA03_2IFC_2019_Jun_28_1438_525,stimulusHACA03_2IFC_2019_Jun_28_1438_526,True,2019_Jun_28_1438,2IFC,,HACA03,
2IFC,38,0,38,0,6.7,-1,correct answer,0.334227370564,True,False,stimulusHACA03_2IFC_2019_Jun_28_1438_527,stimulusHACA03_2IFC_2019_Jun_28_1438_528,True,2019_Jun_28_1438,2IFC,,HACA03,
2IFC,39,0,39,0,5.7,-1,correct answer,0.469309256645,False,True,stimulusHACA03_2IFC_2019_Jun_28_1438_529,stimulusHACA03_2IFC_2019_Jun_28_1438_530,True,2019_Jun_28_1438,2IFC,,HACA03,
2IFC,40,0,40,0,4.4,-1,correct answer,0.567411825527,True,False,stimulusHACA03_2IFC_2019_Jun_28_1438_531,stimulusHACA03_2IFC_2019_Jun_28_1438_532,True,2019_Jun_28_1438,2IFC,,HACA03,
2IFC,41,0,41,0,5.7,-1,wrong answer,0.529447192559,True,False,stimulusHACA03_2IFC_2019_Jun_28_1438_533,stimulusHACA03_2IFC_2019_Jun_28_1438_534,True,2019_Jun_28_1438,2IFC,,HACA03,
2IFC,42,0,42,0,5.7,-1,correct answer,0.467920371797,True,False,stimulusHACA03_2IFC_2019_Jun_28_1438_535,stimulusHACA03_2IFC_2019_Jun_28_1438_536,True,2019_Jun_28_1438,2IFC,,HACA03,
2IFC,43,0,43,0,5.7,-1,correct answer,0.367502310313,False,True,stimulusHACA03_2IFC_2019_Jun_28_1438_537,stimulusHACA03_2IFC_2019_Jun_28_1438_538,True,2019_Jun_28_1438,2IFC,,HACA03,
2IFC,44,0,44,0,6.7,-1,wrong answer,0.267380254343,False,True,stimulusHACA03_2IFC_2019_Jun_28_1438_539,stimulusHACA03_2IFC_2019_Jun_28_1438_540,True,2019_Jun_28_1438,2IFC,,HACA03,
2IFC,45,0,45,0,6.7,-1,correct answer,0.401221463224,False,True,stimulusHACA03_2IFC_2019_Jun_28_1438_541,stimulusHACA03_2IFC_2019_Jun_28_1438_542,True,2019_Jun_28_1438,2IFC,,HACA03,
2IFC,46,0,46,0,4.4,-1,correct answer,0.501187921502,False,True,stimulusHACA03_2IFC_2019_Jun_28_1438_543,stimulusHACA03_2IFC_2019_Jun_28_1438_544,True,2019_Jun_28_1438,2IFC,,HACA03,
2IFC,47,0,47,0,4.4,-1,wrong answer,0.500914085889,True,False,stimulusHACA03_2IFC_2019_Jun_28_1438_545,stimulusHACA03_2IFC_2019_Jun_28_1438_546,True,2019_Jun_28_1438,2IFC,,HACA03,
2IFC,48,0,48,0,5.7,-1,correct answer,0.533883988159,False,True,stimulusHACA03_2IFC_2019_Jun_28_1438_547,stimulusHACA03_2IFC_2019_Jun_28_1438_548,True,2019_Jun_28_1438,2IFC,,HACA03,
2IFC,49,0,49,0,8.8,-1,correct answer,0.59969323827,False,True,stimulusHACA03_2IFC_2019_Jun_28_1438_549,stimulusHACA03_2IFC_2019_Jun_28_1438_550,True,2019_Jun_28_1438,2IFC,,HACA03,
2IFC,50,0,50,0,11.1,-1,correct answer,0.500730160158,True,False,stimulusHACA03_2IFC_2019_Jun_28_1438_551,stimulusHACA03_2IFC_2019_Jun_28_1438_552,True,2019_Jun_28_1438,2IFC,,HACA03,
2IFC,51,0,51,0,8.8,-1,correct answer,0.297741122078,True,False,stimulusHACA03_2IFC_2019_Jun_28_1438_553,stimulusHACA03_2IFC_2019_Jun_28_1438_554,True,2019_Jun_28_1438,2IFC,,HACA03,
2IFC,52,0,52,0,8.8,-1,correct answer,0.333890310489,True,False,stimulusHACA03_2IFC_2019_Jun_28_1438_555,stimulusHACA03_2IFC_2019_Jun_28_1438_556,True,2019_Jun_28_1438,2IFC,,HACA03,
2IFC,53,0,53,0,7.8,-1,correct answer,0.403894953663,True,False,stimulusHACA03_2IFC_2019_Jun_28_1438_557,stimulusHACA03_2IFC_2019_Jun_28_1438_558,True,2019_Jun_28_1438,2IFC,,HACA03,
2IFC,54,0,54,0,2.7,-1,correct answer,0.334377631312,False,True,stimulusHACA03_2IFC_2019_Jun_28_1438_559,stimulusHACA03_2IFC_2019_Jun_28_1438_560,True,2019_Jun_28_1438,2IFC,,HACA03,
2IFC,55,0,55,0,5.7,-1,wrong answer,0.534265798051,True,False,stimulusHACA03_2IFC_2019_Jun_28_1438_561,stimulusHACA03_2IFC_2019_Jun_28_1438_562,True,2019_Jun_28_1438,2IFC,,HACA03,
2IFC,56,0,56,0,8.8,-1,correct answer,0.335778832668,True,False,stimulusHACA03_2IFC_2019_Jun_28_1438_563,stimulusHACA03_2IFC_2019_Jun_28_1438_564,True,2019_Jun_28_1438,2IFC,,HACA03,
2IFC,57,0,57,0,9.8,-1,correct answer,0.435950975399,True,False,stimulusHACA03_2IFC_2019_Jun_28_1438_565,stimulusHACA03_2IFC_2019_Jun_28_1438_566,True,2019_Jun_28_1438,2IFC,,HACA03,
2IFC,58,0,58,0,2.7,-1,correct answer,0.537959500914,False,True,stimulusHACA03_2IFC_2019_Jun_28_1438_567,stimulusHACA03_2IFC_2019_Jun_28_1438_568,True,2019_Jun_28_1438,2IFC,,HACA03,
2IFC,59,0,59,0,8.8,-1,wrong answer,0.401877108961,False,True,stimulusHACA03_2IFC_2019_Jun_28_1438_569,stimulusHACA03_2IFC_2019_Jun_28_1438_570,True,2019_Jun_28_1438,2IFC,,HACA03,
2IFC,60,0,60,0,7.8,-1,correct answer,0.433282822138,True,False,stimulusHACA03_2IFC_2019_Jun_28_1438_571,stimulusHACA03_2IFC_2019_Jun_28_1438_572,True,2019_Jun_28_1438,2IFC,,HACA03,
2IFC,61,0,61,0,5.7,-1,correct answer,0.500742476666,False,True,stimulusHACA03_2IFC_2019_Jun_28_1438_573,stimulusHACA03_2IFC_2019_Jun_28_1438_574,True,2019_Jun_28_1438,2IFC,,HACA03,
2IFC,62,0,62,0,5.7,-1,wrong answer,0.836292633787,False,True,stimulusHACA03_2IFC_2019_Jun_28_1438_575,stimulusHACA03_2IFC_2019_Jun_28_1438_576,True,2019_Jun_28_1438,2IFC,,HACA03,
2IFC,63,0,63,0,6.7,-1,correct answer,0.504154543625,False,True,stimulusHACA03_2IFC_2019_Jun_28_1438_577,stimulusHACA03_2IFC_2019_Jun_28_1438_578,True,2019_Jun_28_1438,2IFC,,HACA03,
2IFC,64,0,64,0,7.8,-1,correct answer,0.334150187438,True,False,stimulusHACA03_2IFC_2019_Jun_28_1438_579,stimulusHACA03_2IFC_2019_Jun_28_1438_580,True,2019_Jun_28_1438,2IFC,,HACA03,
2IFC,65,0,65,0,5.7,-1,correct answer,0.534250607714,True,False,stimulusHACA03_2IFC_2019_Jun_28_1438_581,stimulusHACA03_2IFC_2019_Jun_28_1438_582,True,2019_Jun_28_1438,2IFC,,HACA03,
2IFC,66,0,66,0,8.8,-1,correct answer,0.368132502073,False,True,stimulusHACA03_2IFC_2019_Jun_28_1438_583,stimulusHACA03_2IFC_2019_Jun_28_1438_584,True,2019_Jun_28_1438,2IFC,,HACA03,
2IFC,67,0,67,0,9.8,-1,correct answer,0.59730877378,True,False,stimulusHACA03_2IFC_2019_Jun_28_1438_585,stimulusHACA03_2IFC_2019_Jun_28_1438_586,True,2019_Jun_28_1438,2IFC,,HACA03,
2IFC,68,0,68,0,7.8,-1,correct answer,0.535166130401,False,True,stimulusHACA03_2IFC_2019_Jun_28_1438_587,stimulusHACA03_2IFC_2019_Jun_28_1438_588,True,2019_Jun_28_1438,2IFC,,HACA03,
2IFC,69,0,69,0,4.4,-1,correct answer,0.367032643175,True,False,stimulusHACA03_2IFC_2019_Jun_28_1438_589,stimulusHACA03_2IFC_2019_Jun_28_1438_590,True,2019_Jun_28_1438,2IFC,,HACA03,
2IFC,70,0,70,0,11.1,-1,correct answer,0.301204918185,True,False,stimulusHACA03_2IFC_2019_Jun_28_1438_591,stimulusHACA03_2IFC_2019_Jun_28_1438_592,True,2019_Jun_28_1438,2IFC,,HACA03,
2IFC,71,0,71,0,2.7,-1,correct answer,0.303172265645,False,True,stimulusHACA03_2IFC_2019_Jun_28_1438_593,stimulusHACA03_2IFC_2019_Jun_28_1438_594,True,2019_Jun_28_1438,2IFC,,HACA03,
2IFC,72,0,72,0,5.7,-1,correct answer,0.244273364311,True,False,stimulusHACA03_2IFC_2019_Jun_28_1438_595,stimulusHACA03_2IFC_2019_Jun_28_1438_596,True,2019_Jun_28_1438,2IFC,,HACA03,
2IFC,73,0,73,0,11.1,-1,correct answer,0.300431034761,False,True,stimulusHACA03_2IFC_2019_Jun_28_1438_597,stimulusHACA03_2IFC_2019_Jun_28_1438_598,True,2019_Jun_28_1438,2IFC,,HACA03,
2IFC,74,0,74,0,2.7,-1,correct answer,0.400965281297,True,False,stimulusHACA03_2IFC_2019_Jun_28_1438_599,stimulusHACA03_2IFC_2019_Jun_28_1438_600,True,2019_Jun_28_1438,2IFC,,HACA03,
2IFC,0,0,0,0,11.1,-1,correct answer,0.601001655683,True,False,stimulusHACA03_2IFC_2019_Jun_28_1438_601,stimulusHACA03_2IFC_2019_Jun_28_1438_602,True,2019_Jun_28_1438,2IFC,,HACA03,
2IFC,1,0,1,0,9.8,-1,correct answer,0.43369952892,False,True,stimulusHACA03_2IFC_2019_Jun_28_1438_603,stimulusHACA03_2IFC_2019_Jun_28_1438_604,True,2019_Jun_28_1438,2IFC,,HACA03,
2IFC,2,0,2,0,2.7,-1,correct answer,0.500578257255,True,False,stimulusHACA03_2IFC_2019_Jun_28_1438_605,stimulusHACA03_2IFC_2019_Jun_28_1438_606,True,2019_Jun_28_1438,2IFC,,HACA03,
2IFC,3,0,3,0,8.8,-1,correct answer,0.537422504043,True,False,stimulusHACA03_2IFC_2019_Jun_28_1438_607,stimulusHACA03_2IFC_2019_Jun_28_1438_608,True,2019_Jun_28_1438,2IFC,,HACA03,
2IFC,4,0,4,0,8.8,-1,correct answer,0.499320337316,True,False,stimulusHACA03_2IFC_2019_Jun_28_1438_609,stimulusHACA03_2IFC_2019_Jun_28_1438_610,True,2019_Jun_28_1438,2IFC,,HACA03,
2IFC,5,0,5,0,8.8,-1,correct answer,0.500473567517,True,False,stimulusHACA03_2IFC_2019_Jun_28_1438_611,stimulusHACA03_2IFC_2019_Jun_28_1438_612,True,2019_Jun_28_1438,2IFC,,HACA03,
2IFC,6,0,6,0,6.7,-1,correct answer,0.542331019416,False,True,stimulusHACA03_2IFC_2019_Jun_28_1438_613,stimulusHACA03_2IFC_2019_Jun_28_1438_614,True,2019_Jun_28_1438,2IFC,,HACA03,
2IFC,7,0,7,0,8.8,-1,correct answer,0.334652698832,True,False,stimulusHACA03_2IFC_2019_Jun_28_1438_615,stimulusHACA03_2IFC_2019_Jun_28_1438_616,True,2019_Jun_28_1438,2IFC,,HACA03,
2IFC,8,0,8,0,7.8,-1,correct answer,0.503609745996,True,False,stimulusHACA03_2IFC_2019_Jun_28_1438_617,stimulusHACA03_2IFC_2019_Jun_28_1438_618,True,2019_Jun_28_1438,2IFC,,HACA03,
2IFC,9,0,9,0,8.8,-1,correct answer,0.467586596031,False,True,stimulusHACA03_2IFC_2019_Jun_28_1438_619,stimulusHACA03_2IFC_2019_Jun_28_1438_620,True,2019_Jun_28_1438,2IFC,,HACA03,
2IFC,10,0,10,0,6.7,-1,wrong answer,0.433853894938,True,False,stimulusHACA03_2IFC_2019_Jun_28_1438_621,stimulusHACA03_2IFC_2019_Jun_28_1438_622,True,2019_Jun_28_1438,2IFC,,HACA03,
2IFC,11,0,11,0,6.7,-1,correct answer,0.534303568536,True,False,stimulusHACA03_2IFC_2019_Jun_28_1438_623,stimulusHACA03_2IFC_2019_Jun_28_1438_624,True,2019_Jun_28_1438,2IFC,,HACA03,
2IFC,12,0,12,0,9.8,-1,correct answer,0.569513011724,False,True,stimulusHACA03_2IFC_2019_Jun_28_1438_625,stimulusHACA03_2IFC_2019_Jun_28_1438_626,True,2019_Jun_28_1438,2IFC,,HACA03,
2IFC,13,0,13,0,9.8,-1,correct answer,0.400968976086,False,True,stimulusHACA03_2IFC_2019_Jun_28_1438_627,stimulusHACA03_2IFC_2019_Jun_28_1438_628,True,2019_Jun_28_1438,2IFC,,HACA03,
2IFC,14,0,14,0,7.8,-1,correct answer,0.501691664336,True,False,stimulusHACA03_2IFC_2019_Jun_28_1438_629,stimulusHACA03_2IFC_2019_Jun_28_1438_630,True,2019_Jun_28_1438,2IFC,,HACA03,
2IFC,15,0,15,0,6.7,-1,wrong answer,0.301589191426,False,True,stimulusHACA03_2IFC_2019_Jun_28_1438_631,stimulusHACA03_2IFC_2019_Jun_28_1438_632,True,2019_Jun_28_1438,2IFC,,HACA03,
2IFC,16,0,16,0,7.8,-1,correct answer,0.26752723055,False,True,stimulusHACA03_2IFC_2019_Jun_28_1438_633,stimulusHACA03_2IFC_2019_Jun_28_1438_634,True,2019_Jun_28_1438,2IFC,,HACA03,
2IFC,17,0,17,0,11.1,-1,correct answer,0.501776237274,True,False,stimulusHACA03_2IFC_2019_Jun_28_1438_635,stimulusHACA03_2IFC_2019_Jun_28_1438_636,True,2019_Jun_28_1438,2IFC,,HACA03,
2IFC,18,0,18,0,6.7,-1,correct answer,0.300827213796,False,True,stimulusHACA03_2IFC_2019_Jun_28_1438_637,stimulusHACA03_2IFC_2019_Jun_28_1438_638,True,2019_Jun_28_1438,2IFC,,HACA03,
2IFC,19,0,19,0,4.4,-1,correct answer,0.401319584344,False,True,stimulusHACA03_2IFC_2019_Jun_28_1438_639,stimulusHACA03_2IFC_2019_Jun_28_1438_640,True,2019_Jun_28_1438,2IFC,,HACA03,
2IFC,20,0,20,0,5.7,-1,correct answer,0.234362317948,True,False,stimulusHACA03_2IFC_2019_Jun_28_1438_641,stimulusHACA03_2IFC_2019_Jun_28_1438_642,True,2019_Jun_28_1438,2IFC,,HACA03,
2IFC,21,0,21,0,9.8,-1,correct answer,0.434239810333,True,False,stimulusHACA03_2IFC_2019_Jun_28_1438_643,stimulusHACA03_2IFC_2019_Jun_28_1438_644,True,2019_Jun_28_1438,2IFC,,HACA03,
2IFC,22,0,22,0,5.7,-1,wrong answer,0.267305945046,True,False,stimulusHACA03_2IFC_2019_Jun_28_1438_645,stimulusHACA03_2IFC_2019_Jun_28_1438_646,True,2019_Jun_28_1438,2IFC,,HACA03,
2IFC,23,0,23,0,6.7,-1,correct answer,0.673644482391,True,False,stimulusHACA03_2IFC_2019_Jun_28_1438_647,stimulusHACA03_2IFC_2019_Jun_28_1438_648,True,2019_Jun_28_1438,2IFC,,HACA03,
2IFC,24,0,24,0,9.8,-1,correct answer,0.334339450346,True,False,stimulusHACA03_2IFC_2019_Jun_28_1438_649,stimulusHACA03_2IFC_2019_Jun_28_1438_650,True,2019_Jun_28_1438,2IFC,,HACA03,
2IFC,25,0,25,0,7.8,-1,correct answer,0.634780338267,True,False,stimulusHACA03_2IFC_2019_Jun_28_1438_651,stimulusHACA03_2IFC_2019_Jun_28_1438_652,True,2019_Jun_28_1438,2IFC,,HACA03,
2IFC,26,0,26,0,8.8,-1,correct answer,0.335031634662,False,True,stimulusHACA03_2IFC_2019_Jun_28_1438_653,stimulusHACA03_2IFC_2019_Jun_28_1438_654,True,2019_Jun_28_1438,2IFC,,HACA03,
2IFC,27,0,27,0,8.8,-1,wrong answer,0.368136607576,False,True,stimulusHACA03_2IFC_2019_Jun_28_1438_655,stimulusHACA03_2IFC_2019_Jun_28_1438_656,True,2019_Jun_28_1438,2IFC,,HACA03,
2IFC,28,0,28,0,2.7,-1,wrong answer,0.300564462785,True,False,stimulusHACA03_2IFC_2019_Jun_28_1438_657,stimulusHACA03_2IFC_2019_Jun_28_1438_658,True,2019_Jun_28_1438,2IFC,,HACA03,
2IFC,29,0,29,0,6.7,-1,wrong answer,0.567688124487,True,False,stimulusHACA03_2IFC_2019_Jun_28_1438_659,stimulusHACA03_2IFC_2019_Jun_28_1438_660,True,2019_Jun_28_1438,2IFC,,HACA03,
2IFC,30,0,30,0,9.8,-1,wrong answer,0.234217394376,False,True,stimulusHACA03_2IFC_2019_Jun_28_1438_661,stimulusHACA03_2IFC_2019_Jun_28_1438_662,True,2019_Jun_28_1438,2IFC,,HACA03,
2IFC,31,0,31,0,5.7,-1,correct answer,0.299691637279,True,False,stimulusHACA03_2IFC_2019_Jun_28_1438_663,stimulusHACA03_2IFC_2019_Jun_28_1438_664,True,2019_Jun_28_1438,2IFC,,HACA03,
2IFC,32,0,32,0,7.8,-1,correct answer,0.267701303121,True,False,stimulusHACA03_2IFC_2019_Jun_28_1438_665,stimulusHACA03_2IFC_2019_Jun_28_1438_666,True,2019_Jun_28_1438,2IFC,,HACA03,
2IFC,33,0,33,0,6.7,-1,correct answer,0.43388140155,False,True,stimulusHACA03_2IFC_2019_Jun_28_1438_667,stimulusHACA03_2IFC_2019_Jun_28_1438_668,True,2019_Jun_28_1438,2IFC,,HACA03,
2IFC,34,0,34,0,6.7,-1,correct answer,0.208902986022,True,False,stimulusHACA03_2IFC_2019_Jun_28_1438_669,stimulusHACA03_2IFC_2019_Jun_28_1438_670,True,2019_Jun_28_1438,2IFC,,HACA03,
2IFC,35,0,35,0,4.4,-1,correct answer,0.334290184546,False,True,stimulusHACA03_2IFC_2019_Jun_28_1438_671,stimulusHACA03_2IFC_2019_Jun_28_1438_672,True,2019_Jun_28_1438,2IFC,,HACA03,
2IFC,36,0,36,0,11.1,-1,correct answer,0.46955763828,True,False,stimulusHACA03_2IFC_2019_Jun_28_1438_673,stimulusHACA03_2IFC_2019_Jun_28_1438_674,True,2019_Jun_28_1438,2IFC,,HACA03,
2IFC,37,0,37,0,4.4,-1,correct answer,0.46656186739,True,False,stimulusHACA03_2IFC_2019_Jun_28_1438_675,stimulusHACA03_2IFC_2019_Jun_28_1438_676,True,2019_Jun_28_1438,2IFC,,HACA03,
2IFC,38,0,38,0,9.8,-1,correct answer,0.266714755679,True,False,stimulusHACA03_2IFC_2019_Jun_28_1438_677,stimulusHACA03_2IFC_2019_Jun_28_1438_678,True,2019_Jun_28_1438,2IFC,,HACA03,
2IFC,39,0,39,0,6.7,-1,wrong answer,0.46749175922,True,False,stimulusHACA03_2IFC_2019_Jun_28_1438_679,stimulusHACA03_2IFC_2019_Jun_28_1438_680,True,2019_Jun_28_1438,2IFC,,HACA03,
2IFC,40,0,40,0,8.8,-1,correct answer,0.400217672577,True,False,stimulusHACA03_2IFC_2019_Jun_28_1438_681,stimulusHACA03_2IFC_2019_Jun_28_1438_682,True,2019_Jun_28_1438,2IFC,,HACA03,
2IFC,41,0,41,0,5.7,-1,correct answer,0.237210291438,True,False,stimulusHACA03_2IFC_2019_Jun_28_1438_683,stimulusHACA03_2IFC_2019_Jun_28_1438_684,True,2019_Jun_28_1438,2IFC,,HACA03,
2IFC,42,0,42,0,8.8,-1,no answer,-1,True,False,stimulusHACA03_2IFC_2019_Jun_28_1438_685,stimulusHACA03_2IFC_2019_Jun_28_1438_686,True,2019_Jun_28_1438,2IFC,,HACA03,
2IFC,43,0,43,0,9.8,-1,correct answer,0.267262837384,True,False,stimulusHACA03_2IFC_2019_Jun_28_1438_687,stimulusHACA03_2IFC_2019_Jun_28_1438_688,True,2019_Jun_28_1438,2IFC,,HACA03,
2IFC,44,0,44,0,5.7,-1,correct answer,0.234237100696,True,False,stimulusHACA03_2IFC_2019_Jun_28_1438_689,stimulusHACA03_2IFC_2019_Jun_28_1438_690,True,2019_Jun_28_1438,2IFC,,HACA03,
2IFC,45,0,45,0,4.4,-1,correct answer,0.100330614485,True,False,stimulusHACA03_2IFC_2019_Jun_28_1438_691,stimulusHACA03_2IFC_2019_Jun_28_1438_692,True,2019_Jun_28_1438,2IFC,,HACA03,
2IFC,46,0,46,0,2.7,-1,wrong answer,0.30083870911,False,True,stimulusHACA03_2IFC_2019_Jun_28_1438_693,stimulusHACA03_2IFC_2019_Jun_28_1438_694,True,2019_Jun_28_1438,2IFC,,HACA03,
2IFC,47,0,47,0,6.7,-1,correct answer,0.536603460088,False,True,stimulusHACA03_2IFC_2019_Jun_28_1438_695,stimulusHACA03_2IFC_2019_Jun_28_1438_696,True,2019_Jun_28_1438,2IFC,,HACA03,
2IFC,48,0,48,0,6.7,-1,correct answer,0.233280112501,True,False,stimulusHACA03_2IFC_2019_Jun_28_1438_697,stimulusHACA03_2IFC_2019_Jun_28_1438_698,True,2019_Jun_28_1438,2IFC,,HACA03,
2IFC,49,0,49,0,8.8,-1,correct answer,0.400682002772,True,False,stimulusHACA03_2IFC_2019_Jun_28_1438_699,stimulusHACA03_2IFC_2019_Jun_28_1438_700,True,2019_Jun_28_1438,2IFC,,HACA03,
2IFC,50,0,50,0,5.7,-1,correct answer,0.201559919398,True,False,stimulusHACA03_2IFC_2019_Jun_28_1438_701,stimulusHACA03_2IFC_2019_Jun_28_1438_702,True,2019_Jun_28_1438,2IFC,,HACA03,
2IFC,51,0,51,0,8.8,-1,correct answer,0.200594309717,True,False,stimulusHACA03_2IFC_2019_Jun_28_1438_703,stimulusHACA03_2IFC_2019_Jun_28_1438_704,True,2019_Jun_28_1438,2IFC,,HACA03,
2IFC,52,0,52,0,8.8,-1,correct answer,0.23449779884,True,False,stimulusHACA03_2IFC_2019_Jun_28_1438_705,stimulusHACA03_2IFC_2019_Jun_28_1438_706,True,2019_Jun_28_1438,2IFC,,HACA03,
2IFC,53,0,53,0,6.7,-1,correct answer,0.232886396814,False,True,stimulusHACA03_2IFC_2019_Jun_28_1438_707,stimulusHACA03_2IFC_2019_Jun_28_1438_708,True,2019_Jun_28_1438,2IFC,,HACA03,
2IFC,54,0,54,0,4.4,-1,correct answer,0.302193518495,False,True,stimulusHACA03_2IFC_2019_Jun_28_1438_709,stimulusHACA03_2IFC_2019_Jun_28_1438_710,True,2019_Jun_28_1438,2IFC,,HACA03,
2IFC,55,0,55,0,5.7,-1,wrong answer,0.234617678914,False,True,stimulusHACA03_2IFC_2019_Jun_28_1438_711,stimulusHACA03_2IFC_2019_Jun_28_1438_712,True,2019_Jun_28_1438,2IFC,,HACA03,
2IFC,56,0,56,0,7.8,-1,correct answer,0.0675056357868,False,True,stimulusHACA03_2IFC_2019_Jun_28_1438_713,stimulusHACA03_2IFC_2019_Jun_28_1438_714,True,2019_Jun_28_1438,2IFC,,HACA03,
2IFC,57,0,57,0,7.8,-1,correct answer,0.400454969611,False,True,stimulusHACA03_2IFC_2019_Jun_28_1438_715,stimulusHACA03_2IFC_2019_Jun_28_1438_716,True,2019_Jun_28_1438,2IFC,,HACA03,
2IFC,58,0,58,0,8.8,-1,correct answer,0.0353794102557,True,False,stimulusHACA03_2IFC_2019_Jun_28_1438_717,stimulusHACA03_2IFC_2019_Jun_28_1438_718,True,2019_Jun_28_1438,2IFC,,HACA03,
2IFC,59,0,59,0,4.4,-1,correct answer,0.0346658772323,True,False,stimulusHACA03_2IFC_2019_Jun_28_1438_719,stimulusHACA03_2IFC_2019_Jun_28_1438_720,True,2019_Jun_28_1438,2IFC,,HACA03,
2IFC,60,0,60,0,11.1,-1,correct answer,0.133513591252,False,True,stimulusHACA03_2IFC_2019_Jun_28_1438_721,stimulusHACA03_2IFC_2019_Jun_28_1438_722,True,2019_Jun_28_1438,2IFC,,HACA03,
2IFC,61,0,61,0,7.8,-1,correct answer,0.109760498395,False,True,stimulusHACA03_2IFC_2019_Jun_28_1438_723,stimulusHACA03_2IFC_2019_Jun_28_1438_724,True,2019_Jun_28_1438,2IFC,,HACA03,
2IFC,62,0,62,0,5.7,-1,wrong answer,0.271362162195,True,False,stimulusHACA03_2IFC_2019_Jun_28_1438_725,stimulusHACA03_2IFC_2019_Jun_28_1438_726,True,2019_Jun_28_1438,2IFC,,HACA03,
2IFC,63,0,63,0,5.7,-1,correct answer,0.700043559307,True,False,stimulusHACA03_2IFC_2019_Jun_28_1438_727,stimulusHACA03_2IFC_2019_Jun_28_1438_728,True,2019_Jun_28_1438,2IFC,,HACA03,
2IFC,64,0,64,0,8.8,-1,wrong answer,0.437063151039,False,True,stimulusHACA03_2IFC_2019_Jun_28_1438_729,stimulusHACA03_2IFC_2019_Jun_28_1438_730,True,2019_Jun_28_1438,2IFC,,HACA03,
2IFC,65,0,65,0,2.7,-1,correct answer,0.495433266042,False,True,stimulusHACA03_2IFC_2019_Jun_28_1438_731,stimulusHACA03_2IFC_2019_Jun_28_1438_732,True,2019_Jun_28_1438,2IFC,,HACA03,
2IFC,66,0,66,0,5.7,-1,wrong answer,0.66697717784,False,True,stimulusHACA03_2IFC_2019_Jun_28_1438_733,stimulusHACA03_2IFC_2019_Jun_28_1438_734,True,2019_Jun_28_1438,2IFC,,HACA03,
2IFC,67,0,67,0,9.8,-1,correct answer,0.233979276149,True,False,stimulusHACA03_2IFC_2019_Jun_28_1438_735,stimulusHACA03_2IFC_2019_Jun_28_1438_736,True,2019_Jun_28_1438,2IFC,,HACA03,
2IFC,68,0,68,0,2.7,-1,correct answer,0.26889025094,False,True,stimulusHACA03_2IFC_2019_Jun_28_1438_737,stimulusHACA03_2IFC_2019_Jun_28_1438_738,True,2019_Jun_28_1438,2IFC,,HACA03,
2IFC,69,0,69,0,4.4,-1,correct answer,0.309573945357,True,False,stimulusHACA03_2IFC_2019_Jun_28_1438_739,stimulusHACA03_2IFC_2019_Jun_28_1438_740,True,2019_Jun_28_1438,2IFC,,HACA03,
2IFC,70,0,70,0,9.8,-1,correct answer,0.300672437064,False,True,stimulusHACA03_2IFC_2019_Jun_28_1438_741,stimulusHACA03_2IFC_2019_Jun_28_1438_742,True,2019_Jun_28_1438,2IFC,,HACA03,
2IFC,71,0,71,0,4.4,-1,correct answer,0.334332060535,False,True,stimulusHACA03_2IFC_2019_Jun_28_1438_743,stimulusHACA03_2IFC_2019_Jun_28_1438_744,True,2019_Jun_28_1438,2IFC,,HACA03,
2IFC,72,0,72,0,6.7,-1,correct answer,0.367894794559,True,False,stimulusHACA03_2IFC_2019_Jun_28_1438_745,stimulusHACA03_2IFC_2019_Jun_28_1438_746,True,2019_Jun_28_1438,2IFC,,HACA03,
2IFC,73,0,73,0,9.8,-1,correct answer,0.400305529824,False,True,stimulusHACA03_2IFC_2019_Jun_28_1438_747,stimulusHACA03_2IFC_2019_Jun_28_1438_748,True,2019_Jun_28_1438,2IFC,,HACA03,
2IFC,74,0,74,0,2.7,-1,wrong answer,0.133940561442,True,False,stimulusHACA03_2IFC_2019_Jun_28_1438_749,stimulusHACA03_2IFC_2019_Jun_28_1438_750,True,2019_Jun_28_1438,2IFC,,HACA03,
2IFC,0,0,0,0,5.7,-1,wrong answer,0.667399221798,False,True,stimulusHACA03_2IFC_2019_Jun_28_1438_751,stimulusHACA03_2IFC_2019_Jun_28_1438_752,True,2019_Jun_28_1438,2IFC,,HACA03,
2IFC,1,0,1,0,6.7,-1,correct answer,0.271188911051,True,False,stimulusHACA03_2IFC_2019_Jun_28_1438_753,stimulusHACA03_2IFC_2019_Jun_28_1438_754,True,2019_Jun_28_1438,2IFC,,HACA03,
2IFC,2,0,2,0,8.8,-1,correct answer,0.200134085026,True,False,stimulusHACA03_2IFC_2019_Jun_28_1438_755,stimulusHACA03_2IFC_2019_Jun_28_1438_756,True,2019_Jun_28_1438,2IFC,,HACA03,
2IFC,3,0,3,0,2.7,-1,correct answer,0.266532061622,True,False,stimulusHACA03_2IFC_2019_Jun_28_1438_757,stimulusHACA03_2IFC_2019_Jun_28_1438_758,True,2019_Jun_28_1438,2IFC,,HACA03,
2IFC,4,0,4,0,9.8,-1,correct answer,0.26775960112,False,True,stimulusHACA03_2IFC_2019_Jun_28_1438_759,stimulusHACA03_2IFC_2019_Jun_28_1438_760,True,2019_Jun_28_1438,2IFC,,HACA03,
2IFC,5,0,5,0,4.4,-1,wrong answer,0.333691194654,False,True,stimulusHACA03_2IFC_2019_Jun_28_1438_761,stimulusHACA03_2IFC_2019_Jun_28_1438_762,True,2019_Jun_28_1438,2IFC,,HACA03,
2IFC,6,0,6,0,5.7,-1,correct answer,0.434654874727,False,True,stimulusHACA03_2IFC_2019_Jun_28_1438_763,stimulusHACA03_2IFC_2019_Jun_28_1438_764,True,2019_Jun_28_1438,2IFC,,HACA03,
2IFC,7,0,7,0,4.4,-1,correct answer,0.23381505697,True,False,stimulusHACA03_2IFC_2019_Jun_28_1438_765,stimulusHACA03_2IFC_2019_Jun_28_1438_766,True,2019_Jun_28_1438,2IFC,,HACA03,
2IFC,8,0,8,0,11.1,-1,correct answer,0.268005519407,True,False,stimulusHACA03_2IFC_2019_Jun_28_1438_767,stimulusHACA03_2IFC_2019_Jun_28_1438_768,True,2019_Jun_28_1438,2IFC,,HACA03,
2IFC,9,0,9,0,4.4,-1,wrong answer,0.134368763538,False,True,stimulusHACA03_2IFC_2019_Jun_28_1438_769,stimulusHACA03_2IFC_2019_Jun_28_1438_770,True,2019_Jun_28_1438,2IFC,,HACA03,
2IFC,10,0,10,0,9.8,-1,correct answer,0.301962790312,True,False,stimulusHACA03_2IFC_2019_Jun_28_1438_771,stimulusHACA03_2IFC_2019_Jun_28_1438_772,True,2019_Jun_28_1438,2IFC,,HACA03,
2IFC,11,0,11,0,4.4,-1,correct answer,0.573202198604,True,False,stimulusHACA03_2IFC_2019_Jun_28_1438_773,stimulusHACA03_2IFC_2019_Jun_28_1438_774,True,2019_Jun_28_1438,2IFC,,HACA03,
2IFC,12,0,12,0,2.7,-1,correct answer,0.334086142248,False,True,stimulusHACA03_2IFC_2019_Jun_28_1438_775,stimulusHACA03_2IFC_2019_Jun_28_1438_776,True,2019_Jun_28_1438,2IFC,,HACA03,
2IFC,13,0,13,0,9.8,-1,correct answer,0.434835515916,False,True,stimulusHACA03_2IFC_2019_Jun_28_1438_777,stimulusHACA03_2IFC_2019_Jun_28_1438_778,True,2019_Jun_28_1438,2IFC,,HACA03,
2IFC,14,0,14,0,2.7,-1,correct answer,0.434681560379,False,True,stimulusHACA03_2IFC_2019_Jun_28_1438_779,stimulusHACA03_2IFC_2019_Jun_28_1438_780,True,2019_Jun_28_1438,2IFC,,HACA03,
2IFC,15,0,15,0,4.4,-1,correct answer,0.300845688442,True,False,stimulusHACA03_2IFC_2019_Jun_28_1438_781,stimulusHACA03_2IFC_2019_Jun_28_1438_782,True,2019_Jun_28_1438,2IFC,,HACA03,
2IFC,16,0,16,0,8.8,-1,correct answer,0.235104589257,True,False,stimulusHACA03_2IFC_2019_Jun_28_1438_783,stimulusHACA03_2IFC_2019_Jun_28_1438_784,True,2019_Jun_28_1438,2IFC,,HACA03,
2IFC,17,0,17,0,2.7,-1,wrong answer,0.334337808192,True,False,stimulusHACA03_2IFC_2019_Jun_28_1438_785,stimulusHACA03_2IFC_2019_Jun_28_1438_786,True,2019_Jun_28_1438,2IFC,,HACA03,
2IFC,18,0,18,0,5.7,-1,wrong answer,0.234283492668,False,True,stimulusHACA03_2IFC_2019_Jun_28_1438_787,stimulusHACA03_2IFC_2019_Jun_28_1438_788,True,2019_Jun_28_1438,2IFC,,HACA03,
2IFC,19,0,19,0,2.7,-1,correct answer,0.2665193344,True,False,stimulusHACA03_2IFC_2019_Jun_28_1438_789,stimulusHACA03_2IFC_2019_Jun_28_1438_790,True,2019_Jun_28_1438,2IFC,,HACA03,
2IFC,20,0,20,0,7.8,-1,correct answer,0.333900574362,False,True,stimulusHACA03_2IFC_2019_Jun_28_1438_791,stimulusHACA03_2IFC_2019_Jun_28_1438_792,True,2019_Jun_28_1438,2IFC,,HACA03,
2IFC,21,0,21,0,8.8,-1,correct answer,0.436249854974,True,False,stimulusHACA03_2IFC_2019_Jun_28_1438_793,stimulusHACA03_2IFC_2019_Jun_28_1438_794,True,2019_Jun_28_1438,2IFC,,HACA03,
2IFC,22,0,22,0,8.8,-1,correct answer,0.135370911798,True,False,stimulusHACA03_2IFC_2019_Jun_28_1438_795,stimulusHACA03_2IFC_2019_Jun_28_1438_796,True,2019_Jun_28_1438,2IFC,,HACA03,
2IFC,23,0,23,0,11.1,-1,correct answer,0.134289938258,True,False,stimulusHACA03_2IFC_2019_Jun_28_1438_797,stimulusHACA03_2IFC_2019_Jun_28_1438_798,True,2019_Jun_28_1438,2IFC,,HACA03,
2IFC,24,0,24,0,8.8,-1,correct answer,0.200766739901,False,True,stimulusHACA03_2IFC_2019_Jun_28_1438_799,stimulusHACA03_2IFC_2019_Jun_28_1438_800,True,2019_Jun_28_1438,2IFC,,HACA03,
2IFC,25,0,25,0,8.8,-1,correct answer,0.304417869309,True,False,stimulusHACA03_2IFC_2019_Jun_28_1438_801,stimulusHACA03_2IFC_2019_Jun_28_1438_802,True,2019_Jun_28_1438,2IFC,,HACA03,
2IFC,26,0,26,0,4.4,-1,correct answer,0.233428731095,True,False,stimulusHACA03_2IFC_2019_Jun_28_1438_803,stimulusHACA03_2IFC_2019_Jun_28_1438_804,True,2019_Jun_28_1438,2IFC,,HACA03,
2IFC,27,0,27,0,5.7,-1,correct answer,0.167807922466,False,True,stimulusHACA03_2IFC_2019_Jun_28_1438_805,stimulusHACA03_2IFC_2019_Jun_28_1438_806,True,2019_Jun_28_1438,2IFC,,HACA03,
2IFC,28,0,28,0,4.4,-1,no answer,-1,True,False,stimulusHACA03_2IFC_2019_Jun_28_1438_807,stimulusHACA03_2IFC_2019_Jun_28_1438_808,True,2019_Jun_28_1438,2IFC,,HACA03,
2IFC,29,0,29,0,6.7,-1,correct answer,0.533471797593,False,True,stimulusHACA03_2IFC_2019_Jun_28_1438_809,stimulusHACA03_2IFC_2019_Jun_28_1438_810,True,2019_Jun_28_1438,2IFC,,HACA03,
2IFC,30,0,30,0,11.1,-1,correct answer,0.273802050855,True,False,stimulusHACA03_2IFC_2019_Jun_28_1438_811,stimulusHACA03_2IFC_2019_Jun_28_1438_812,True,2019_Jun_28_1438,2IFC,,HACA03,
2IFC,31,0,31,0,4.4,-1,correct answer,0.399138341192,True,False,stimulusHACA03_2IFC_2019_Jun_28_1438_813,stimulusHACA03_2IFC_2019_Jun_28_1438_814,True,2019_Jun_28_1438,2IFC,,HACA03,
2IFC,32,0,32,0,4.4,-1,correct answer,0.23375183274,True,False,stimulusHACA03_2IFC_2019_Jun_28_1438_815,stimulusHACA03_2IFC_2019_Jun_28_1438_816,True,2019_Jun_28_1438,2IFC,,HACA03,
2IFC,33,0,33,0,11.1,-1,correct answer,0.167095621349,True,False,stimulusHACA03_2IFC_2019_Jun_28_1438_817,stimulusHACA03_2IFC_2019_Jun_28_1438_818,True,2019_Jun_28_1438,2IFC,,HACA03,
2IFC,34,0,34,0,9.8,-1,wrong answer,0.303047869354,False,True,stimulusHACA03_2IFC_2019_Jun_28_1438_819,stimulusHACA03_2IFC_2019_Jun_28_1438_820,True,2019_Jun_28_1438,2IFC,,HACA03,
2IFC,35,0,35,0,4.4,-1,correct answer,0.20454337378,True,False,stimulusHACA03_2IFC_2019_Jun_28_1438_821,stimulusHACA03_2IFC_2019_Jun_28_1438_822,True,2019_Jun_28_1438,2IFC,,HACA03,
2IFC,36,0,36,0,6.7,-1,correct answer,0.334336576518,False,True,stimulusHACA03_2IFC_2019_Jun_28_1438_823,stimulusHACA03_2IFC_2019_Jun_28_1438_824,True,2019_Jun_28_1438,2IFC,,HACA03,
2IFC,37,0,37,0,7.8,-1,correct answer,0.200626743026,True,False,stimulusHACA03_2IFC_2019_Jun_28_1438_825,stimulusHACA03_2IFC_2019_Jun_28_1438_826,True,2019_Jun_28_1438,2IFC,,HACA03,
2IFC,38,0,38,0,11.1,-1,correct answer,0.202498022234,True,False,stimulusHACA03_2IFC_2019_Jun_28_1438_827,stimulusHACA03_2IFC_2019_Jun_28_1438_828,True,2019_Jun_28_1438,2IFC,,HACA03,
2IFC,39,0,39,0,9.8,-1,wrong answer,0.53319796198,False,True,stimulusHACA03_2IFC_2019_Jun_28_1438_829,stimulusHACA03_2IFC_2019_Jun_28_1438_830,True,2019_Jun_28_1438,2IFC,,HACA03,
2IFC,40,0,40,0,11.1,-1,correct answer,0.202285358217,True,False,stimulusHACA03_2IFC_2019_Jun_28_1438_831,stimulusHACA03_2IFC_2019_Jun_28_1438_832,True,2019_Jun_28_1438,2IFC,,HACA03,
2IFC,41,0,41,0,7.8,-1,correct answer,0.267530104611,True,False,stimulusHACA03_2IFC_2019_Jun_28_1438_833,stimulusHACA03_2IFC_2019_Jun_28_1438_834,True,2019_Jun_28_1438,2IFC,,HACA03,
2IFC,42,0,42,0,4.4,-1,correct answer,0.465195973171,True,False,stimulusHACA03_2IFC_2019_Jun_28_1438_835,stimulusHACA03_2IFC_2019_Jun_28_1438_836,True,2019_Jun_28_1438,2IFC,,HACA03,
2IFC,43,0,43,0,8.8,-1,correct answer,0.336477996549,False,True,stimulusHACA03_2IFC_2019_Jun_28_1438_837,stimulusHACA03_2IFC_2019_Jun_28_1438_838,True,2019_Jun_28_1438,2IFC,,HACA03,
2IFC,44,0,44,0,7.8,-1,correct answer,0.532817794243,True,False,stimulusHACA03_2IFC_2019_Jun_28_1438_839,stimulusHACA03_2IFC_2019_Jun_28_1438_840,True,2019_Jun_28_1438,2IFC,,HACA03,
2IFC,45,0,45,0,11.1,-1,correct answer,0.233698871918,True,False,stimulusHACA03_2IFC_2019_Jun_28_1438_841,stimulusHACA03_2IFC_2019_Jun_28_1438_842,True,2019_Jun_28_1438,2IFC,,HACA03,
2IFC,46,0,46,0,7.8,-1,wrong answer,0.767593123717,True,False,stimulusHACA03_2IFC_2019_Jun_28_1438_843,stimulusHACA03_2IFC_2019_Jun_28_1438_844,True,2019_Jun_28_1438,2IFC,,HACA03,
2IFC,47,0,47,0,8.8,-1,wrong answer,0.267135978211,False,True,stimulusHACA03_2IFC_2019_Jun_28_1438_845,stimulusHACA03_2IFC_2019_Jun_28_1438_846,True,2019_Jun_28_1438,2IFC,,HACA03,
2IFC,48,0,48,0,2.7,-1,correct answer,0.533601120114,True,False,stimulusHACA03_2IFC_2019_Jun_28_1438_847,stimulusHACA03_2IFC_2019_Jun_28_1438_848,True,2019_Jun_28_1438,2IFC,,HACA03,
2IFC,49,0,49,0,7.8,-1,correct answer,0.4069806349,False,True,stimulusHACA03_2IFC_2019_Jun_28_1438_849,stimulusHACA03_2IFC_2019_Jun_28_1438_850,True,2019_Jun_28_1438,2IFC,,HACA03,
2IFC,50,0,50,0,8.8,-1,correct answer,0.534441512544,True,False,stimulusHACA03_2IFC_2019_Jun_28_1438_851,stimulusHACA03_2IFC_2019_Jun_28_1438_852,True,2019_Jun_28_1438,2IFC,,HACA03,
2IFC,51,0,51,0,5.7,-1,correct answer,0.567263207166,True,False,stimulusHACA03_2IFC_2019_Jun_28_1438_853,stimulusHACA03_2IFC_2019_Jun_28_1438_854,True,2019_Jun_28_1438,2IFC,,HACA03,
2IFC,52,0,52,0,5.7,-1,correct answer,0.467819376849,True,False,stimulusHACA03_2IFC_2019_Jun_28_1438_855,stimulusHACA03_2IFC_2019_Jun_28_1438_856,True,2019_Jun_28_1438,2IFC,,HACA03,
2IFC,53,0,53,0,11.1,-1,correct answer,0.334559093928,True,False,stimulusHACA03_2IFC_2019_Jun_28_1438_857,stimulusHACA03_2IFC_2019_Jun_28_1438_858,True,2019_Jun_28_1438,2IFC,,HACA03,
2IFC,54,0,54,0,2.7,-1,correct answer,0.437001158018,True,False,stimulusHACA03_2IFC_2019_Jun_28_1438_859,stimulusHACA03_2IFC_2019_Jun_28_1438_860,True,2019_Jun_28_1438,2IFC,,HACA03,
2IFC,55,0,55,0,9.8,-1,correct answer,0.43448203383,False,True,stimulusHACA03_2IFC_2019_Jun_28_1438_861,stimulusHACA03_2IFC_2019_Jun_28_1438_862,True,2019_Jun_28_1438,2IFC,,HACA03,
2IFC,56,0,56,0,11.1,-1,correct answer,0.502717213938,False,True,stimulusHACA03_2IFC_2019_Jun_28_1438_863,stimulusHACA03_2IFC_2019_Jun_28_1438_864,True,2019_Jun_28_1438,2IFC,,HACA03,
2IFC,57,0,57,0,4.4,-1,correct answer,0.234302788507,False,True,stimulusHACA03_2IFC_2019_Jun_28_1438_865,stimulusHACA03_2IFC_2019_Jun_28_1438_866,True,2019_Jun_28_1438,2IFC,,HACA03,
2IFC,58,0,58,0,4.4,-1,correct answer,0.300411328208,True,False,stimulusHACA03_2IFC_2019_Jun_28_1438_867,stimulusHACA03_2IFC_2019_Jun_28_1438_868,True,2019_Jun_28_1438,2IFC,,HACA03,
2IFC,59,0,59,0,5.7,-1,correct answer,0.132978236303,False,True,stimulusHACA03_2IFC_2019_Jun_28_1438_869,stimulusHACA03_2IFC_2019_Jun_28_1438_870,True,2019_Jun_28_1438,2IFC,,HACA03,
2IFC,60,0,60,0,8.8,-1,correct answer,0.234223962994,True,False,stimulusHACA03_2IFC_2019_Jun_28_1438_871,stimulusHACA03_2IFC_2019_Jun_28_1438_872,True,2019_Jun_28_1438,2IFC,,HACA03,
2IFC,61,0,61,0,5.7,-1,correct answer,0.867400699761,True,False,stimulusHACA03_2IFC_2019_Jun_28_1438_873,stimulusHACA03_2IFC_2019_Jun_28_1438_874,True,2019_Jun_28_1438,2IFC,,HACA03,
2IFC,62,0,62,0,2.7,-1,correct answer,0.568501010304,True,False,stimulusHACA03_2IFC_2019_Jun_28_1438_875,stimulusHACA03_2IFC_2019_Jun_28_1438_876,True,2019_Jun_28_1438,2IFC,,HACA03,
2IFC,63,0,63,0,7.8,-1,correct answer,0.434211071813,False,True,stimulusHACA03_2IFC_2019_Jun_28_1438_877,stimulusHACA03_2IFC_2019_Jun_28_1438_878,True,2019_Jun_28_1438,2IFC,,HACA03,
2IFC,64,0,64,0,11.1,-1,correct answer,0.471312321723,False,True,stimulusHACA03_2IFC_2019_Jun_28_1438_879,stimulusHACA03_2IFC_2019_Jun_28_1438_880,True,2019_Jun_28_1438,2IFC,,HACA03,
2IFC,65,0,65,0,9.8,-1,correct answer,0.234890283085,False,True,stimulusHACA03_2IFC_2019_Jun_28_1438_881,stimulusHACA03_2IFC_2019_Jun_28_1438_882,True,2019_Jun_28_1438,2IFC,,HACA03,
2IFC,66,0,66,0,7.8,-1,correct answer,0.367358207935,True,False,stimulusHACA03_2IFC_2019_Jun_28_1438_883,stimulusHACA03_2IFC_2019_Jun_28_1438_884,True,2019_Jun_28_1438,2IFC,,HACA03,
2IFC,67,0,67,0,11.1,-1,correct answer,0.533337548375,True,False,stimulusHACA03_2IFC_2019_Jun_28_1438_885,stimulusHACA03_2IFC_2019_Jun_28_1438_886,True,2019_Jun_28_1438,2IFC,,HACA03,
2IFC,68,0,68,0,7.8,-1,wrong answer,0.26767133316,False,True,stimulusHACA03_2IFC_2019_Jun_28_1438_887,stimulusHACA03_2IFC_2019_Jun_28_1438_888,True,2019_Jun_28_1438,2IFC,,HACA03,
2IFC,69,0,69,0,9.8,-1,correct answer,0.435927985003,False,True,stimulusHACA03_2IFC_2019_Jun_28_1438_889,stimulusHACA03_2IFC_2019_Jun_28_1438_890,True,2019_Jun_28_1438,2IFC,,HACA03,
2IFC,70,0,70,0,11.1,-1,correct answer,0.271215596469,True,False,stimulusHACA03_2IFC_2019_Jun_28_1438_891,stimulusHACA03_2IFC_2019_Jun_28_1438_892,True,2019_Jun_28_1438,2IFC,,HACA03,
2IFC,71,0,71,0,6.7,-1,wrong answer,0.500219437992,False,True,stimulusHACA03_2IFC_2019_Jun_28_1438_893,stimulusHACA03_2IFC_2019_Jun_28_1438_894,True,2019_Jun_28_1438,2IFC,,HACA03,
2IFC,72,0,72,0,5.7,-1,correct answer,0.399265200598,True,False,stimulusHACA03_2IFC_2019_Jun_28_1438_895,stimulusHACA03_2IFC_2019_Jun_28_1438_896,True,2019_Jun_28_1438,2IFC,,HACA03,
2IFC,73,0,73,0,8.8,-1,correct answer,0.433802166022,False,True,stimulusHACA03_2IFC_2019_Jun_28_1438_897,stimulusHACA03_2IFC_2019_Jun_28_1438_898,True,2019_Jun_28_1438,2IFC,,HACA03,
2IFC,74,0,74,0,2.7,-1,correct answer,0.574776240857,True,False,stimulusHACA03_2IFC_2019_Jun_28_1438_899,stimulusHACA03_2IFC_2019_Jun_28_1438_900,True,2019_Jun_28_1438,2IFC,,HACA03,
2IFC,0,0,0,0,4.4,-1,wrong answer,0.43397582788,True,False,stimulusHACA03_2IFC_2019_Jun_28_1438_901,stimulusHACA03_2IFC_2019_Jun_28_1438_902,True,2019_Jun_28_1438,2IFC,,HACA03,
2IFC,1,0,1,0,6.7,-1,wrong answer,0.366659454769,True,False,stimulusHACA03_2IFC_2019_Jun_28_1438_903,stimulusHACA03_2IFC_2019_Jun_28_1438_904,True,2019_Jun_28_1438,2IFC,,HACA03,
2IFC,2,0,2,0,7.8,-1,correct answer,0.401086803526,False,True,stimulusHACA03_2IFC_2019_Jun_28_1438_905,stimulusHACA03_2IFC_2019_Jun_28_1438_906,True,2019_Jun_28_1438,2IFC,,HACA03,
2IFC,3,0,3,0,6.7,-1,correct answer,0.40127976099,False,True,stimulusHACA03_2IFC_2019_Jun_28_1438_907,stimulusHACA03_2IFC_2019_Jun_28_1438_908,True,2019_Jun_28_1438,2IFC,,HACA03,
2IFC,4,0,4,0,4.4,-1,correct answer,0.300483174156,True,False,stimulusHACA03_2IFC_2019_Jun_28_1438_909,stimulusHACA03_2IFC_2019_Jun_28_1438_910,True,2019_Jun_28_1438,2IFC,,HACA03,
2IFC,5,0,5,0,11.1,-1,correct answer,0.533465639222,True,False,stimulusHACA03_2IFC_2019_Jun_28_1438_911,stimulusHACA03_2IFC_2019_Jun_28_1438_912,True,2019_Jun_28_1438,2IFC,,HACA03,
2IFC,6,0,6,0,8.8,-1,correct answer,0.434318225132,False,True,stimulusHACA03_2IFC_2019_Jun_28_1438_913,stimulusHACA03_2IFC_2019_Jun_28_1438_914,True,2019_Jun_28_1438,2IFC,,HACA03,
2IFC,7,0,7,0,6.7,-1,correct answer,0.234430468874,True,False,stimulusHACA03_2IFC_2019_Jun_28_1438_915,stimulusHACA03_2IFC_2019_Jun_28_1438_916,True,2019_Jun_28_1438,2IFC,,HACA03,
2IFC,8,0,8,0,2.7,-1,correct answer,0.400991145754,True,False,stimulusHACA03_2IFC_2019_Jun_28_1438_917,stimulusHACA03_2IFC_2019_Jun_28_1438_918,True,2019_Jun_28_1438,2IFC,,HACA03,
2IFC,9,0,9,0,11.1,-1,correct answer,0.267163074343,True,False,stimulusHACA03_2IFC_2019_Jun_28_1438_919,stimulusHACA03_2IFC_2019_Jun_28_1438_920,True,2019_Jun_28_1438,2IFC,,HACA03,
2IFC,10,0,10,0,5.7,-1,correct answer,0.234620142262,False,True,stimulusHACA03_2IFC_2019_Jun_28_1438_921,stimulusHACA03_2IFC_2019_Jun_28_1438_922,True,2019_Jun_28_1438,2IFC,,HACA03,
2IFC,11,0,11,0,6.7,-1,correct answer,0.234431290068,True,False,stimulusHACA03_2IFC_2019_Jun_28_1438_923,stimulusHACA03_2IFC_2019_Jun_28_1438_924,True,2019_Jun_28_1438,2IFC,,HACA03,
2IFC,12,0,12,0,9.8,-1,correct answer,0.369642087957,False,True,stimulusHACA03_2IFC_2019_Jun_28_1438_925,stimulusHACA03_2IFC_2019_Jun_28_1438_926,True,2019_Jun_28_1438,2IFC,,HACA03,
2IFC,13,0,13,0,8.8,-1,correct answer,0.332991620293,False,True,stimulusHACA03_2IFC_2019_Jun_28_1438_927,stimulusHACA03_2IFC_2019_Jun_28_1438_928,True,2019_Jun_28_1438,2IFC,,HACA03,
2IFC,14,0,14,0,8.8,-1,correct answer,0.500975257484,False,True,stimulusHACA03_2IFC_2019_Jun_28_1438_929,stimulusHACA03_2IFC_2019_Jun_28_1438_930,True,2019_Jun_28_1438,2IFC,,HACA03,
2IFC,15,0,15,0,9.8,-1,correct answer,0.337505188305,False,True,stimulusHACA03_2IFC_2019_Jun_28_1438_931,stimulusHACA03_2IFC_2019_Jun_28_1438_932,True,2019_Jun_28_1438,2IFC,,HACA03,
2IFC,16,0,16,0,7.8,-1,wrong answer,0.667614349164,True,False,stimulusHACA03_2IFC_2019_Jun_28_1438_933,stimulusHACA03_2IFC_2019_Jun_28_1438_934,True,2019_Jun_28_1438,2IFC,,HACA03,
2IFC,17,0,17,0,4.4,-1,wrong answer,0.300974600483,True,False,stimulusHACA03_2IFC_2019_Jun_28_1438_935,stimulusHACA03_2IFC_2019_Jun_28_1438_936,True,2019_Jun_28_1438,2IFC,,HACA03,
2IFC,18,0,18,0,5.7,-1,correct answer,0.532544368878,True,False,stimulusHACA03_2IFC_2019_Jun_28_1438_937,stimulusHACA03_2IFC_2019_Jun_28_1438_938,True,2019_Jun_28_1438,2IFC,,HACA03,
2IFC,19,0,19,0,2.7,-1,correct answer,0.602316231234,False,True,stimulusHACA03_2IFC_2019_Jun_28_1438_939,stimulusHACA03_2IFC_2019_Jun_28_1438_940,True,2019_Jun_28_1438,2IFC,,HACA03,
2IFC,20,0,20,0,6.7,-1,correct answer,0.368253203109,False,True,stimulusHACA03_2IFC_2019_Jun_28_1438_941,stimulusHACA03_2IFC_2019_Jun_28_1438_942,True,2019_Jun_28_1438,2IFC,,HACA03,
2IFC,21,0,21,0,4.4,-1,correct answer,0.467504075728,False,True,stimulusHACA03_2IFC_2019_Jun_28_1438_943,stimulusHACA03_2IFC_2019_Jun_28_1438_944,True,2019_Jun_28_1438,2IFC,,HACA03,
2IFC,22,0,22,0,2.7,-1,correct answer,0.301735757152,False,True,stimulusHACA03_2IFC_2019_Jun_28_1438_945,stimulusHACA03_2IFC_2019_Jun_28_1438_946,True,2019_Jun_28_1438,2IFC,,HACA03,
2IFC,23,0,23,0,9.8,-1,correct answer,0.234562665457,False,True,stimulusHACA03_2IFC_2019_Jun_28_1438_947,stimulusHACA03_2IFC_2019_Jun_28_1438_948,True,2019_Jun_28_1438,2IFC,,HACA03,
2IFC,24,0,24,0,6.7,-1,correct answer,0.165856175823,True,False,stimulusHACA03_2IFC_2019_Jun_28_1438_949,stimulusHACA03_2IFC_2019_Jun_28_1438_950,True,2019_Jun_28_1438,2IFC,,HACA03,
2IFC,25,0,25,0,4.4,-1,wrong answer,0.0340282956604,True,False,stimulusHACA03_2IFC_2019_Jun_28_1438_951,stimulusHACA03_2IFC_2019_Jun_28_1438_952,True,2019_Jun_28_1438,2IFC,,HACA03,
2IFC,26,0,26,0,5.7,-1,no answer,-1,True,False,stimulusHACA03_2IFC_2019_Jun_28_1438_953,stimulusHACA03_2IFC_2019_Jun_28_1438_954,True,2019_Jun_28_1438,2IFC,,HACA03,
2IFC,27,0,27,0,6.7,-1,correct answer,0.267552274046,False,True,stimulusHACA03_2IFC_2019_Jun_28_1438_955,stimulusHACA03_2IFC_2019_Jun_28_1438_956,True,2019_Jun_28_1438,2IFC,,HACA03,
2IFC,28,0,28,0,2.7,-1,wrong answer,0.402723248815,True,False,stimulusHACA03_2IFC_2019_Jun_28_1438_957,stimulusHACA03_2IFC_2019_Jun_28_1438_958,True,2019_Jun_28_1438,2IFC,,HACA03,
2IFC,29,0,29,0,8.8,-1,correct answer,0.301062047482,False,True,stimulusHACA03_2IFC_2019_Jun_28_1438_959,stimulusHACA03_2IFC_2019_Jun_28_1438_960,True,2019_Jun_28_1438,2IFC,,HACA03,
2IFC,30,0,30,0,2.7,-1,correct answer,0.301000054693,True,False,stimulusHACA03_2IFC_2019_Jun_28_1438_961,stimulusHACA03_2IFC_2019_Jun_28_1438_962,True,2019_Jun_28_1438,2IFC,,HACA03,
2IFC,31,0,31,0,9.8,-1,wrong answer,0.268596298527,False,True,stimulusHACA03_2IFC_2019_Jun_28_1438_963,stimulusHACA03_2IFC_2019_Jun_28_1438_964,True,2019_Jun_28_1438,2IFC,,HACA03,
2IFC,32,0,32,0,6.7,-1,wrong answer,0.199904588517,True,False,stimulusHACA03_2IFC_2019_Jun_28_1438_965,stimulusHACA03_2IFC_2019_Jun_28_1438_966,True,2019_Jun_28_1438,2IFC,,HACA03,
2IFC,33,0,33,0,4.4,-1,correct answer,0.500127475243,True,False,stimulusHACA03_2IFC_2019_Jun_28_1438_967,stimulusHACA03_2IFC_2019_Jun_28_1438_968,True,2019_Jun_28_1438,2IFC,,HACA03,
2IFC,34,0,34,0,4.4,-1,correct answer,0.467605891638,False,True,stimulusHACA03_2IFC_2019_Jun_28_1438_969,stimulusHACA03_2IFC_2019_Jun_28_1438_970,True,2019_Jun_28_1438,2IFC,,HACA03,
2IFC,35,0,35,0,5.7,-1,correct answer,0.0993284662254,True,False,stimulusHACA03_2IFC_2019_Jun_28_1438_971,stimulusHACA03_2IFC_2019_Jun_28_1438_972,True,2019_Jun_28_1438,2IFC,,HACA03,
2IFC,36,0,36,0,7.8,-1,correct answer,0.100583101856,True,False,stimulusHACA03_2IFC_2019_Jun_28_1438_973,stimulusHACA03_2IFC_2019_Jun_28_1438_974,True,2019_Jun_28_1438,2IFC,,HACA03,
2IFC,37,0,37,0,4.4,-1,wrong answer,0.334092710866,True,False,stimulusHACA03_2IFC_2019_Jun_28_1438_975,stimulusHACA03_2IFC_2019_Jun_28_1438_976,True,2019_Jun_28_1438,2IFC,,HACA03,
2IFC,38,0,38,0,2.7,-1,correct answer,0.234130358091,False,True,stimulusHACA03_2IFC_2019_Jun_28_1438_977,stimulusHACA03_2IFC_2019_Jun_28_1438_978,True,2019_Jun_28_1438,2IFC,,HACA03,
2IFC,39,0,39,0,8.8,-1,correct answer,0.233468143735,True,False,stimulusHACA03_2IFC_2019_Jun_28_1438_979,stimulusHACA03_2IFC_2019_Jun_28_1438_980,True,2019_Jun_28_1438,2IFC,,HACA03,
2IFC,40,0,40,0,9.8,-1,correct answer,0.534789657453,True,False,stimulusHACA03_2IFC_2019_Jun_28_1438_981,stimulusHACA03_2IFC_2019_Jun_28_1438_982,True,2019_Jun_28_1438,2IFC,,HACA03,
2IFC,41,0,41,0,5.7,-1,wrong answer,0.365611325018,True,False,stimulusHACA03_2IFC_2019_Jun_28_1438_983,stimulusHACA03_2IFC_2019_Jun_28_1438_984,True,2019_Jun_28_1438,2IFC,,HACA03,
2IFC,42,0,42,0,6.7,-1,correct answer,0.400950912153,False,True,stimulusHACA03_2IFC_2019_Jun_28_1438_985,stimulusHACA03_2IFC_2019_Jun_28_1438_986,True,2019_Jun_28_1438,2IFC,,HACA03,
2IFC,43,0,43,0,11.1,-1,correct answer,0.468605576782,False,True,stimulusHACA03_2IFC_2019_Jun_28_1438_987,stimulusHACA03_2IFC_2019_Jun_28_1438_988,True,2019_Jun_28_1438,2IFC,,HACA03,
2IFC,44,0,44,0,5.7,-1,wrong answer,0.477414711844,True,False,stimulusHACA03_2IFC_2019_Jun_28_1438_989,stimulusHACA03_2IFC_2019_Jun_28_1438_990,True,2019_Jun_28_1438,2IFC,,HACA03,
2IFC,45,0,45,0,8.8,-1,correct answer,0.434233241482,False,True,stimulusHACA03_2IFC_2019_Jun_28_1438_991,stimulusHACA03_2IFC_2019_Jun_28_1438_992,True,2019_Jun_28_1438,2IFC,,HACA03,
2IFC,46,0,46,0,4.4,-1,correct answer,0.501303285593,True,False,stimulusHACA03_2IFC_2019_Jun_28_1438_993,stimulusHACA03_2IFC_2019_Jun_28_1438_994,True,2019_Jun_28_1438,2IFC,,HACA03,
2IFC,47,0,47,0,8.8,-1,correct answer,0.502946710447,True,False,stimulusHACA03_2IFC_2019_Jun_28_1438_995,stimulusHACA03_2IFC_2019_Jun_28_1438_996,True,2019_Jun_28_1438,2IFC,,HACA03,
2IFC,48,0,48,0,7.8,-1,correct answer,0.53293562145,False,True,stimulusHACA03_2IFC_2019_Jun_28_1438_997,stimulusHACA03_2IFC_2019_Jun_28_1438_998,True,2019_Jun_28_1438,2IFC,,HACA03,
2IFC,49,0,49,0,11.1,-1,correct answer,0.569884968456,False,True,stimulusHACA03_2IFC_2019_Jun_28_1438_999,stimulusHACA03_2IFC_2019_Jun_28_1438_1000,True,2019_Jun_28_1438,2IFC,,HACA03,
2IFC,50,0,50,0,6.7,-1,wrong answer,0.66698333621,False,True,stimulusHACA03_2IFC_2019_Jun_28_1438_1001,stimulusHACA03_2IFC_2019_Jun_28_1438_1002,True,2019_Jun_28_1438,2IFC,,HACA03,
2IFC,51,0,51,0,6.7,-1,correct answer,0.434961554129,True,False,stimulusHACA03_2IFC_2019_Jun_28_1438_1003,stimulusHACA03_2IFC_2019_Jun_28_1438_1004,True,2019_Jun_28_1438,2IFC,,HACA03,
2IFC,52,0,52,0,2.7,-1,correct answer,0.466581163229,False,True,stimulusHACA03_2IFC_2019_Jun_28_1438_1005,stimulusHACA03_2IFC_2019_Jun_28_1438_1006,True,2019_Jun_28_1438,2IFC,,HACA03,
2IFC,53,0,53,0,2.7,-1,wrong answer,0.771355388453,True,False,stimulusHACA03_2IFC_2019_Jun_28_1438_1007,stimulusHACA03_2IFC_2019_Jun_28_1438_1008,True,2019_Jun_28_1438,2IFC,,HACA03,
2IFC,54,0,54,0,4.4,-1,correct answer,0.365607629996,False,True,stimulusHACA03_2IFC_2019_Jun_28_1438_1009,stimulusHACA03_2IFC_2019_Jun_28_1438_1010,True,2019_Jun_28_1438,2IFC,,HACA03,
2IFC,55,0,55,0,2.7,-1,correct answer,0.534150433959,False,True,stimulusHACA03_2IFC_2019_Jun_28_1438_1011,stimulusHACA03_2IFC_2019_Jun_28_1438_1012,True,2019_Jun_28_1438,2IFC,,HACA03,
2IFC,56,0,56,0,6.7,-1,correct answer,0.434094886761,True,False,stimulusHACA03_2IFC_2019_Jun_28_1438_1013,stimulusHACA03_2IFC_2019_Jun_28_1438_1014,True,2019_Jun_28_1438,2IFC,,HACA03,
2IFC,57,0,57,0,6.7,-1,correct answer,0.463380528614,True,False,stimulusHACA03_2IFC_2019_Jun_28_1438_1015,stimulusHACA03_2IFC_2019_Jun_28_1438_1016,True,2019_Jun_28_1438,2IFC,,HACA03,
2IFC,58,0,58,0,11.1,-1,correct answer,0.43417699635,True,False,stimulusHACA03_2IFC_2019_Jun_28_1438_1017,stimulusHACA03_2IFC_2019_Jun_28_1438_1018,True,2019_Jun_28_1438,2IFC,,HACA03,
2IFC,59,0,59,0,2.7,-1,correct answer,0.400314562023,False,True,stimulusHACA03_2IFC_2019_Jun_28_1438_1019,stimulusHACA03_2IFC_2019_Jun_28_1438_1020,True,2019_Jun_28_1438,2IFC,,HACA03,
2IFC,60,0,60,0,5.7,-1,correct answer,0.500841829227,True,False,stimulusHACA03_2IFC_2019_Jun_28_1438_1021,stimulusHACA03_2IFC_2019_Jun_28_1438_1022,True,2019_Jun_28_1438,2IFC,,HACA03,
2IFC,61,0,61,0,9.8,-1,correct answer,0.331665138714,False,True,stimulusHACA03_2IFC_2019_Jun_28_1438_1023,stimulusHACA03_2IFC_2019_Jun_28_1438_1024,True,2019_Jun_28_1438,2IFC,,HACA03,
2IFC,62,0,62,0,7.8,-1,correct answer,0.602020225953,False,True,stimulusHACA03_2IFC_2019_Jun_28_1438_1025,stimulusHACA03_2IFC_2019_Jun_28_1438_1026,True,2019_Jun_28_1438,2IFC,,HACA03,
2IFC,63,0,63,0,5.7,-1,wrong answer,0.633150461596,False,True,stimulusHACA03_2IFC_2019_Jun_28_1438_1027,stimulusHACA03_2IFC_2019_Jun_28_1438_1028,True,2019_Jun_28_1438,2IFC,,HACA03,
2IFC,64,0,64,0,6.7,-1,wrong answer,0.467932688072,True,False,stimulusHACA03_2IFC_2019_Jun_28_1438_1029,stimulusHACA03_2IFC_2019_Jun_28_1438_1030,True,2019_Jun_28_1438,2IFC,,HACA03,
2IFC,65,0,65,0,6.7,-1,correct answer,0.33425200358,False,True,stimulusHACA03_2IFC_2019_Jun_28_1438_1031,stimulusHACA03_2IFC_2019_Jun_28_1438_1032,True,2019_Jun_28_1438,2IFC,,HACA03,
2IFC,66,0,66,0,2.7,-1,correct answer,0.468377722427,False,True,stimulusHACA03_2IFC_2019_Jun_28_1438_1033,stimulusHACA03_2IFC_2019_Jun_28_1438_1034,True,2019_Jun_28_1438,2IFC,,HACA03,
2IFC,67,0,67,0,6.7,-1,wrong answer,0.601782518439,True,False,stimulusHACA03_2IFC_2019_Jun_28_1438_1035,stimulusHACA03_2IFC_2019_Jun_28_1438_1036,True,2019_Jun_28_1438,2IFC,,HACA03,
2IFC,68,0,68,0,2.7,-1,correct answer,0.301132251276,False,True,stimulusHACA03_2IFC_2019_Jun_28_1438_1037,stimulusHACA03_2IFC_2019_Jun_28_1438_1038,True,2019_Jun_28_1438,2IFC,,HACA03,
2IFC,69,0,69,0,11.1,-1,correct answer,0.401544154156,False,True,stimulusHACA03_2IFC_2019_Jun_28_1438_1039,stimulusHACA03_2IFC_2019_Jun_28_1438_1040,True,2019_Jun_28_1438,2IFC,,HACA03,
2IFC,70,0,70,0,7.8,-1,correct answer,0.371992477216,False,True,stimulusHACA03_2IFC_2019_Jun_28_1438_1041,stimulusHACA03_2IFC_2019_Jun_28_1438_1042,True,2019_Jun_28_1438,2IFC,,HACA03,
2IFC,71,0,71,0,5.7,-1,correct answer,0.469032136491,False,True,stimulusHACA03_2IFC_2019_Jun_28_1438_1043,stimulusHACA03_2IFC_2019_Jun_28_1438_1044,True,2019_Jun_28_1438,2IFC,,HACA03,
2IFC,72,0,72,0,5.7,-1,correct answer,0.53472232772,False,True,stimulusHACA03_2IFC_2019_Jun_28_1438_1045,stimulusHACA03_2IFC_2019_Jun_28_1438_1046,True,2019_Jun_28_1438,2IFC,,HACA03,
2IFC,73,0,73,0,2.7,-1,correct answer,0.40202736971,False,True,stimulusHACA03_2IFC_2019_Jun_28_1438_1047,stimulusHACA03_2IFC_2019_Jun_28_1438_1048,True,2019_Jun_28_1438,2IFC,,HACA03,
2IFC,74,0,74,0,4.4,-1,correct answer,0.435788808856,False,True,stimulusHACA03_2IFC_2019_Jun_28_1438_1049,stimulusHACA03_2IFC_2019_Jun_28_1438_1050,True,2019_Jun_28_1438,2IFC,,HACA03,
2IFC,0,0,0,0,9.8,-1,correct answer,0.66771205957,True,False,stimulusHACA03_2IFC_2019_Jun_28_1438_1051,stimulusHACA03_2IFC_2019_Jun_28_1438_1052,True,2019_Jun_28_1438,2IFC,,HACA03,
2IFC,1,0,1,0,4.4,-1,correct answer,0.501416596817,True,False,stimulusHACA03_2IFC_2019_Jun_28_1438_1053,stimulusHACA03_2IFC_2019_Jun_28_1438_1054,True,2019_Jun_28_1438,2IFC,,HACA03,
2IFC,2,0,2,0,8.8,-1,correct answer,0.26705468935,False,True,stimulusHACA03_2IFC_2019_Jun_28_1438_1055,stimulusHACA03_2IFC_2019_Jun_28_1438_1056,True,2019_Jun_28_1438,2IFC,,HACA03,
2IFC,3,0,3,0,9.8,-1,wrong answer,0.46596739348,False,True,stimulusHACA03_2IFC_2019_Jun_28_1438_1057,stimulusHACA03_2IFC_2019_Jun_28_1438_1058,True,2019_Jun_28_1438,2IFC,,HACA03,
2IFC,4,0,4,0,7.8,-1,correct answer,0.433560763253,True,False,stimulusHACA03_2IFC_2019_Jun_28_1438_1059,stimulusHACA03_2IFC_2019_Jun_28_1438_1060,True,2019_Jun_28_1438,2IFC,,HACA03,
2IFC,5,0,5,0,9.8,-1,correct answer,0.43402919895,False,True,stimulusHACA03_2IFC_2019_Jun_28_1438_1061,stimulusHACA03_2IFC_2019_Jun_28_1438_1062,True,2019_Jun_28_1438,2IFC,,HACA03,
2IFC,6,0,6,0,4.4,-1,correct answer,0.500525296666,True,False,stimulusHACA03_2IFC_2019_Jun_28_1438_1063,stimulusHACA03_2IFC_2019_Jun_28_1438_1064,True,2019_Jun_28_1438,2IFC,,HACA03,
2IFC,7,0,7,0,9.8,-1,correct answer,0.234316746937,True,False,stimulusHACA03_2IFC_2019_Jun_28_1438_1065,stimulusHACA03_2IFC_2019_Jun_28_1438_1066,True,2019_Jun_28_1438,2IFC,,HACA03,
2IFC,8,0,8,0,9.8,-1,correct answer,0.734372786945,False,True,stimulusHACA03_2IFC_2019_Jun_28_1438_1067,stimulusHACA03_2IFC_2019_Jun_28_1438_1068,True,2019_Jun_28_1438,2IFC,,HACA03,
2IFC,9,0,9,0,7.8,-1,correct answer,0.267468522303,True,False,stimulusHACA03_2IFC_2019_Jun_28_1438_1069,stimulusHACA03_2IFC_2019_Jun_28_1438_1070,True,2019_Jun_28_1438,2IFC,,HACA03,
2IFC,10,0,10,0,2.7,-1,wrong answer,0.370515734889,False,True,stimulusHACA03_2IFC_2019_Jun_28_1438_1071,stimulusHACA03_2IFC_2019_Jun_28_1438_1072,True,2019_Jun_28_1438,2IFC,,HACA03,
2IFC,11,0,11,0,7.8,-1,correct answer,0.0979001687374,False,True,stimulusHACA03_2IFC_2019_Jun_28_1438_1073,stimulusHACA03_2IFC_2019_Jun_28_1438_1074,True,2019_Jun_28_1438,2IFC,,HACA03,
2IFC,12,0,12,0,4.4,-1,correct answer,0.398701928323,False,True,stimulusHACA03_2IFC_2019_Jun_28_1438_1075,stimulusHACA03_2IFC_2019_Jun_28_1438_1076,True,2019_Jun_28_1438,2IFC,,HACA03,
2IFC,13,0,13,0,11.1,-1,wrong answer,0.466425565304,False,True,stimulusHACA03_2IFC_2019_Jun_28_1438_1077,stimulusHACA03_2IFC_2019_Jun_28_1438_1078,True,2019_Jun_28_1438,2IFC,,HACA03,
2IFC,14,0,14,0,6.7,-1,correct answer,0.36771825864,True,False,stimulusHACA03_2IFC_2019_Jun_28_1438_1079,stimulusHACA03_2IFC_2019_Jun_28_1438_1080,True,2019_Jun_28_1438,2IFC,,HACA03,
2IFC,15,0,15,0,9.8,-1,wrong answer,0.499363855459,False,True,stimulusHACA03_2IFC_2019_Jun_28_1438_1081,stimulusHACA03_2IFC_2019_Jun_28_1438_1082,True,2019_Jun_28_1438,2IFC,,HACA03,
2IFC,16,0,16,0,9.8,-1,correct answer,0.53922193707,False,True,stimulusHACA03_2IFC_2019_Jun_28_1438_1083,stimulusHACA03_2IFC_2019_Jun_28_1438_1084,True,2019_Jun_28_1438,2IFC,,HACA03,
2IFC,17,0,17,0,6.7,-1,correct answer,0.59942350816,False,True,stimulusHACA03_2IFC_2019_Jun_28_1438_1085,stimulusHACA03_2IFC_2019_Jun_28_1438_1086,True,2019_Jun_28_1438,2IFC,,HACA03,
2IFC,18,0,18,0,11.1,-1,correct answer,0.29992236523,True,False,stimulusHACA03_2IFC_2019_Jun_28_1438_1087,stimulusHACA03_2IFC_2019_Jun_28_1438_1088,True,2019_Jun_28_1438,2IFC,,HACA03,
2IFC,19,0,19,0,5.7,-1,correct answer,0.566550495336,True,False,stimulusHACA03_2IFC_2019_Jun_28_1438_1089,stimulusHACA03_2IFC_2019_Jun_28_1438_1090,True,2019_Jun_28_1438,2IFC,,HACA03,
2IFC,20,0,20,0,8.8,-1,correct answer,0.333022821927,True,False,stimulusHACA03_2IFC_2019_Jun_28_1438_1091,stimulusHACA03_2IFC_2019_Jun_28_1438_1092,True,2019_Jun_28_1438,2IFC,,HACA03,
2IFC,21,0,21,0,7.8,-1,correct answer,0.436332374811,True,False,stimulusHACA03_2IFC_2019_Jun_28_1438_1093,stimulusHACA03_2IFC_2019_Jun_28_1438_1094,True,2019_Jun_28_1438,2IFC,,HACA03,
2IFC,22,0,22,0,8.8,-1,correct answer,0.434176175157,False,True,stimulusHACA03_2IFC_2019_Jun_28_1438_1095,stimulusHACA03_2IFC_2019_Jun_28_1438_1096,True,2019_Jun_28_1438,2IFC,,HACA03,
2IFC,23,0,23,0,4.4,-1,correct answer,0.5667726018,True,False,stimulusHACA03_2IFC_2019_Jun_28_1438_1097,stimulusHACA03_2IFC_2019_Jun_28_1438_1098,True,2019_Jun_28_1438,2IFC,,HACA03,
2IFC,24,0,24,0,2.7,-1,wrong answer,0.601284523495,False,True,stimulusHACA03_2IFC_2019_Jun_28_1438_1099,stimulusHACA03_2IFC_2019_Jun_28_1438_1100,True,2019_Jun_28_1438,2IFC,,HACA03,
2IFC,25,0,25,0,11.1,-1,correct answer,0.377320162486,False,True,stimulusHACA03_2IFC_2019_Jun_28_1438_1101,stimulusHACA03_2IFC_2019_Jun_28_1438_1102,True,2019_Jun_28_1438,2IFC,,HACA03,
2IFC,26,0,26,0,4.4,-1,wrong answer,0.634823856177,True,False,stimulusHACA03_2IFC_2019_Jun_28_1438_1103,stimulusHACA03_2IFC_2019_Jun_28_1438_1104,True,2019_Jun_28_1438,2IFC,,HACA03,
2IFC,27,0,27,0,11.1,-1,correct answer,0.167032396886,True,False,stimulusHACA03_2IFC_2019_Jun_28_1438_1105,stimulusHACA03_2IFC_2019_Jun_28_1438_1106,True,2019_Jun_28_1438,2IFC,,HACA03,
