Task,trials.thisRepN,trials.thisTrialN,trials.thisN,trials.thisIndex,signal_intensity,constant Value,response,time_response,signal_on_stimuluspos1,signal_on_stimuluspos2,stimulus_name_pos1,stimulus_name_pos2,random_intensity,date,expName,session,participant,
Yes-No Task,0,0,0,0,8.8,-1,Miss,0.300981990295,True,-1,stimulus_HACA03_Yes-No Task_2019_Jun_28_1418_1,-1,True,2019_Jun_28_1418,Yes-No Task,3,HACA03,
Yes-No Task,1,0,1,0,7.8,-1,False Alarm,0.399015587289,False,-1,stimulus_HACA03_Yes-No Task_2019_Jun_28_1418_2,-1,True,2019_Jun_28_1418,Yes-No Task,3,HACA03,
Yes-No Task,2,0,2,0,9.8,-1,Hit,0.4346630855,True,-1,stimulus_HACA03_Yes-No Task_2019_Jun_28_1418_3,-1,True,2019_Jun_28_1418,Yes-No Task,3,HACA03,
Yes-No Task,3,0,3,0,9.8,-1,Hit,0.469141342444,True,-1,stimulus_HACA03_Yes-No Task_2019_Jun_28_1418_4,-1,True,2019_Jun_28_1418,Yes-No Task,3,HACA03,
Yes-No Task,4,0,4,0,9.8,-1,Hit,0.502114939503,True,-1,stimulus_HACA03_Yes-No Task_2019_Jun_28_1418_5,-1,True,2019_Jun_28_1418,Yes-No Task,3,HACA03,
Yes-No Task,5,0,5,0,9.8,-1,False Alarm,0.502938088961,False,-1,stimulus_HACA03_Yes-No Task_2019_Jun_28_1418_6,-1,True,2019_Jun_28_1418,Yes-No Task,3,HACA03,
Yes-No Task,6,0,6,0,4.4,-1,Hit,0.33176818653,True,-1,stimulus_HACA03_Yes-No Task_2019_Jun_28_1418_7,-1,True,2019_Jun_28_1418,Yes-No Task,3,HACA03,
Yes-No Task,7,0,7,0,4.4,-1,False Alarm,0.500478083501,False,-1,stimulus_HACA03_Yes-No Task_2019_Jun_28_1418_8,-1,True,2019_Jun_28_1418,Yes-No Task,3,HACA03,
Yes-No Task,8,0,8,0,4.4,-1,False Alarm,0.532215109095,False,-1,stimulus_HACA03_Yes-No Task_2019_Jun_28_1418_9,-1,True,2019_Jun_28_1418,Yes-No Task,3,HACA03,
Yes-No Task,9,0,9,0,6.7,-1,Correct Rejection,0.430550212506,False,-1,stimulus_HACA03_Yes-No Task_2019_Jun_28_1418_10,-1,True,2019_Jun_28_1418,Yes-No Task,3,HACA03,
Yes-No Task,10,0,10,0,5.7,-1,Hit,0.500973615097,True,-1,stimulus_HACA03_Yes-No Task_2019_Jun_28_1418_11,-1,True,2019_Jun_28_1418,Yes-No Task,3,HACA03,
Yes-No Task,11,0,11,0,11.1,-1,Hit,0.433664221549,True,-1,stimulus_HACA03_Yes-No Task_2019_Jun_28_1418_12,-1,True,2019_Jun_28_1418,Yes-No Task,3,HACA03,
Yes-No Task,12,0,12,0,7.8,-1,Miss,0.43368433835,True,-1,stimulus_HACA03_Yes-No Task_2019_Jun_28_1418_13,-1,True,2019_Jun_28_1418,Yes-No Task,3,HACA03,
Yes-No Task,13,0,13,0,6.7,-1,Hit,0.402393578552,True,-1,stimulus_HACA03_Yes-No Task_2019_Jun_28_1418_14,-1,True,2019_Jun_28_1418,Yes-No Task,3,HACA03,
Yes-No Task,14,0,14,0,5.7,-1,Hit,0.430801468203,True,-1,stimulus_HACA03_Yes-No Task_2019_Jun_28_1418_15,-1,True,2019_Jun_28_1418,Yes-No Task,3,HACA03,
Yes-No Task,15,0,15,0,5.7,-1,Hit,0.433763984824,True,-1,stimulus_HACA03_Yes-No Task_2019_Jun_28_1418_16,-1,True,2019_Jun_28_1418,Yes-No Task,3,HACA03,
Yes-No Task,16,0,16,0,7.8,-1,Hit,0.400163480313,True,-1,stimulus_HACA03_Yes-No Task_2019_Jun_28_1418_17,-1,True,2019_Jun_28_1418,Yes-No Task,3,HACA03,
Yes-No Task,17,0,17,0,9.8,-1,Hit,0.404075184604,True,-1,stimulus_HACA03_Yes-No Task_2019_Jun_28_1418_18,-1,True,2019_Jun_28_1418,Yes-No Task,3,HACA03,
Yes-No Task,18,0,18,0,4.4,-1,False Alarm,0.367333164439,False,-1,stimulus_HACA03_Yes-No Task_2019_Jun_28_1418_19,-1,True,2019_Jun_28_1418,Yes-No Task,3,HACA03,
Yes-No Task,19,0,19,0,11.1,-1,Hit,0.401326974155,True,-1,stimulus_HACA03_Yes-No Task_2019_Jun_28_1418_20,-1,True,2019_Jun_28_1418,Yes-No Task,3,HACA03,
Yes-No Task,20,0,20,0,4.4,-1,Hit,0.399649884319,True,-1,stimulus_HACA03_Yes-No Task_2019_Jun_28_1418_21,-1,True,2019_Jun_28_1418,Yes-No Task,3,HACA03,
Yes-No Task,21,0,21,0,4.4,-1,Hit,0.466055250727,True,-1,stimulus_HACA03_Yes-No Task_2019_Jun_28_1418_22,-1,True,2019_Jun_28_1418,Yes-No Task,3,HACA03,
Yes-No Task,22,0,22,0,7.8,-1,Hit,0.50232678256,True,-1,stimulus_HACA03_Yes-No Task_2019_Jun_28_1418_23,-1,True,2019_Jun_28_1418,Yes-No Task,3,HACA03,
Yes-No Task,23,0,23,0,9.8,-1,Hit,0.436336480547,True,-1,stimulus_HACA03_Yes-No Task_2019_Jun_28_1418_24,-1,True,2019_Jun_28_1418,Yes-No Task,3,HACA03,
Yes-No Task,24,0,24,0,5.7,-1,Correct Rejection,0.567228720989,False,-1,stimulus_HACA03_Yes-No Task_2019_Jun_28_1418_25,-1,True,2019_Jun_28_1418,Yes-No Task,3,HACA03,
Yes-No Task,25,0,25,0,5.7,-1,Miss,0.534036301542,True,-1,stimulus_HACA03_Yes-No Task_2019_Jun_28_1418_26,-1,True,2019_Jun_28_1418,Yes-No Task,3,HACA03,
Yes-No Task,26,0,26,0,6.7,-1,Correct Rejection,0.500591805438,False,-1,stimulus_HACA03_Yes-No Task_2019_Jun_28_1418_27,-1,True,2019_Jun_28_1418,Yes-No Task,3,HACA03,
Yes-No Task,27,0,27,0,8.8,-1,False Alarm,0.499714053003,False,-1,stimulus_HACA03_Yes-No Task_2019_Jun_28_1418_28,-1,True,2019_Jun_28_1418,Yes-No Task,3,HACA03,
Yes-No Task,28,0,28,0,6.7,-1,False Alarm,0.535944119561,False,-1,stimulus_HACA03_Yes-No Task_2019_Jun_28_1418_29,-1,True,2019_Jun_28_1418,Yes-No Task,3,HACA03,
Yes-No Task,29,0,29,0,2.7,-1,Miss,0.43399922899,True,-1,stimulus_HACA03_Yes-No Task_2019_Jun_28_1418_30,-1,True,2019_Jun_28_1418,Yes-No Task,3,HACA03,
Yes-No Task,30,0,30,0,8.8,-1,False Alarm,0.636556370184,False,-1,stimulus_HACA03_Yes-No Task_2019_Jun_28_1418_31,-1,True,2019_Jun_28_1418,Yes-No Task,3,HACA03,
Yes-No Task,31,0,31,0,11.1,-1,False Alarm,0.468426988227,False,-1,stimulus_HACA03_Yes-No Task_2019_Jun_28_1418_32,-1,True,2019_Jun_28_1418,Yes-No Task,3,HACA03,
Yes-No Task,32,0,32,0,2.7,-1,Hit,0.434638042236,True,-1,stimulus_HACA03_Yes-No Task_2019_Jun_28_1418_33,-1,True,2019_Jun_28_1418,Yes-No Task,3,HACA03,
Yes-No Task,33,0,33,0,6.7,-1,False Alarm,0.466431723675,False,-1,stimulus_HACA03_Yes-No Task_2019_Jun_28_1418_34,-1,True,2019_Jun_28_1418,Yes-No Task,3,HACA03,
Yes-No Task,34,0,34,0,7.8,-1,Correct Rejection,0.665220852243,False,-1,stimulus_HACA03_Yes-No Task_2019_Jun_28_1418_35,-1,True,2019_Jun_28_1418,Yes-No Task,3,HACA03,
Yes-No Task,35,0,35,0,5.7,-1,Hit,0.465389341582,True,-1,stimulus_HACA03_Yes-No Task_2019_Jun_28_1418_36,-1,True,2019_Jun_28_1418,Yes-No Task,3,HACA03,
Yes-No Task,36,0,36,0,4.4,-1,Hit,0.468004123541,True,-1,stimulus_HACA03_Yes-No Task_2019_Jun_28_1418_37,-1,True,2019_Jun_28_1418,Yes-No Task,3,HACA03,
Yes-No Task,37,0,37,0,4.4,-1,False Alarm,0.500515853986,False,-1,stimulus_HACA03_Yes-No Task_2019_Jun_28_1418_38,-1,True,2019_Jun_28_1418,Yes-No Task,3,HACA03,
Yes-No Task,38,0,38,0,5.7,-1,Hit,0.468031630153,True,-1,stimulus_HACA03_Yes-No Task_2019_Jun_28_1418_39,-1,True,2019_Jun_28_1418,Yes-No Task,3,HACA03,
Yes-No Task,39,0,39,0,7.8,-1,Hit,0.401946491795,True,-1,stimulus_HACA03_Yes-No Task_2019_Jun_28_1418_40,-1,True,2019_Jun_28_1418,Yes-No Task,3,HACA03,
Yes-No Task,40,0,40,0,5.7,-1,Hit,0.468947974034,True,-1,stimulus_HACA03_Yes-No Task_2019_Jun_28_1418_41,-1,True,2019_Jun_28_1418,Yes-No Task,3,HACA03,
Yes-No Task,41,0,41,0,6.7,-1,Correct Rejection,0.632484962465,False,-1,stimulus_HACA03_Yes-No Task_2019_Jun_28_1418_42,-1,True,2019_Jun_28_1418,Yes-No Task,3,HACA03,
Yes-No Task,42,0,42,0,7.8,-1,False Alarm,0.50370909879,False,-1,stimulus_HACA03_Yes-No Task_2019_Jun_28_1418_43,-1,True,2019_Jun_28_1418,Yes-No Task,3,HACA03,
Yes-No Task,43,0,43,0,4.4,-1,Hit,0.56639818172,True,-1,stimulus_HACA03_Yes-No Task_2019_Jun_28_1418_44,-1,True,2019_Jun_28_1418,Yes-No Task,3,HACA03,
Yes-No Task,44,0,44,0,9.8,-1,Correct Rejection,0.502460621065,False,-1,stimulus_HACA03_Yes-No Task_2019_Jun_28_1418_45,-1,True,2019_Jun_28_1418,Yes-No Task,3,HACA03,
Yes-No Task,45,0,45,0,11.1,-1,Hit,0.45967697259,True,-1,stimulus_HACA03_Yes-No Task_2019_Jun_28_1418_46,-1,True,2019_Jun_28_1418,Yes-No Task,3,HACA03,
Yes-No Task,46,0,46,0,4.4,-1,Hit,0.468829736114,True,-1,stimulus_HACA03_Yes-No Task_2019_Jun_28_1418_47,-1,True,2019_Jun_28_1418,Yes-No Task,3,HACA03,
Yes-No Task,47,0,47,0,2.7,-1,Correct Rejection,0.467281147838,False,-1,stimulus_HACA03_Yes-No Task_2019_Jun_28_1418_48,-1,True,2019_Jun_28_1418,Yes-No Task,3,HACA03,
Yes-No Task,48,0,48,0,2.7,-1,Correct Rejection,0.601156021934,False,-1,stimulus_HACA03_Yes-No Task_2019_Jun_28_1418_49,-1,True,2019_Jun_28_1418,Yes-No Task,3,HACA03,
Yes-No Task,49,0,49,0,7.8,-1,Correct Rejection,0.567801846424,False,-1,stimulus_HACA03_Yes-No Task_2019_Jun_28_1418_50,-1,True,2019_Jun_28_1418,Yes-No Task,3,HACA03,
Yes-No Task,50,0,50,0,5.7,-1,Hit,0.501354604261,True,-1,stimulus_HACA03_Yes-No Task_2019_Jun_28_1418_51,-1,True,2019_Jun_28_1418,Yes-No Task,3,HACA03,
Yes-No Task,51,0,51,0,9.8,-1,Correct Rejection,0.500836902531,False,-1,stimulus_HACA03_Yes-No Task_2019_Jun_28_1418_52,-1,True,2019_Jun_28_1418,Yes-No Task,3,HACA03,
Yes-No Task,52,0,52,0,8.8,-1,Hit,0.537519803736,True,-1,stimulus_HACA03_Yes-No Task_2019_Jun_28_1418_53,-1,True,2019_Jun_28_1418,Yes-No Task,3,HACA03,
Yes-No Task,53,0,53,0,5.7,-1,Hit,0.703532809159,True,-1,stimulus_HACA03_Yes-No Task_2019_Jun_28_1418_54,-1,True,2019_Jun_28_1418,Yes-No Task,3,HACA03,
Yes-No Task,54,0,54,0,11.1,-1,Correct Rejection,0.436562282033,False,-1,stimulus_HACA03_Yes-No Task_2019_Jun_28_1418_55,-1,True,2019_Jun_28_1418,Yes-No Task,3,HACA03,
Yes-No Task,55,0,55,0,7.8,-1,Hit,0.466737992363,True,-1,stimulus_HACA03_Yes-No Task_2019_Jun_28_1418_56,-1,True,2019_Jun_28_1418,Yes-No Task,3,HACA03,
Yes-No Task,56,0,56,0,9.8,-1,Correct Rejection,0.540901900735,False,-1,stimulus_HACA03_Yes-No Task_2019_Jun_28_1418_57,-1,True,2019_Jun_28_1418,Yes-No Task,3,HACA03,
Yes-No Task,57,0,57,0,4.4,-1,Hit,0.565555736655,True,-1,stimulus_HACA03_Yes-No Task_2019_Jun_28_1418_58,-1,True,2019_Jun_28_1418,Yes-No Task,3,HACA03,
Yes-No Task,58,0,58,0,11.1,-1,Correct Rejection,0.468991492176,False,-1,stimulus_HACA03_Yes-No Task_2019_Jun_28_1418_59,-1,True,2019_Jun_28_1418,Yes-No Task,3,HACA03,
Yes-No Task,59,0,59,0,4.4,-1,Hit,0.501845209161,True,-1,stimulus_HACA03_Yes-No Task_2019_Jun_28_1418_60,-1,True,2019_Jun_28_1418,Yes-No Task,3,HACA03,
Yes-No Task,60,0,60,0,9.8,-1,Hit,0.435453801649,True,-1,stimulus_HACA03_Yes-No Task_2019_Jun_28_1418_61,-1,True,2019_Jun_28_1418,Yes-No Task,3,HACA03,
Yes-No Task,61,0,61,0,5.7,-1,Miss,0.567594930064,True,-1,stimulus_HACA03_Yes-No Task_2019_Jun_28_1418_62,-1,True,2019_Jun_28_1418,Yes-No Task,3,HACA03,
Yes-No Task,62,0,62,0,2.7,-1,False Alarm,0.46866715909,False,-1,stimulus_HACA03_Yes-No Task_2019_Jun_28_1418_63,-1,True,2019_Jun_28_1418,Yes-No Task,3,HACA03,
Yes-No Task,63,0,63,0,4.4,-1,Correct Rejection,0.567669649841,False,-1,stimulus_HACA03_Yes-No Task_2019_Jun_28_1418_64,-1,True,2019_Jun_28_1418,Yes-No Task,3,HACA03,
Yes-No Task,64,0,64,0,2.7,-1,Miss,0.571076790104,True,-1,stimulus_HACA03_Yes-No Task_2019_Jun_28_1418_65,-1,True,2019_Jun_28_1418,Yes-No Task,3,HACA03,
Yes-No Task,65,0,65,0,4.4,-1,Correct Rejection,0.567538684933,False,-1,stimulus_HACA03_Yes-No Task_2019_Jun_28_1418_66,-1,True,2019_Jun_28_1418,Yes-No Task,3,HACA03,
Yes-No Task,66,0,66,0,4.4,-1,Correct Rejection,0.535354572115,False,-1,stimulus_HACA03_Yes-No Task_2019_Jun_28_1418_67,-1,True,2019_Jun_28_1418,Yes-No Task,3,HACA03,
Yes-No Task,67,0,67,0,4.4,-1,Correct Rejection,0.606087527936,False,-1,stimulus_HACA03_Yes-No Task_2019_Jun_28_1418_68,-1,True,2019_Jun_28_1418,Yes-No Task,3,HACA03,
Yes-No Task,68,0,68,0,5.7,-1,Hit,0.570326718269,True,-1,stimulus_HACA03_Yes-No Task_2019_Jun_28_1418_69,-1,True,2019_Jun_28_1418,Yes-No Task,3,HACA03,
Yes-No Task,69,0,69,0,9.8,-1,Correct Rejection,0.535240028985,False,-1,stimulus_HACA03_Yes-No Task_2019_Jun_28_1418_70,-1,True,2019_Jun_28_1418,Yes-No Task,3,HACA03,
Yes-No Task,70,0,70,0,9.8,-1,Miss,0.600927756866,True,-1,stimulus_HACA03_Yes-No Task_2019_Jun_28_1418_71,-1,True,2019_Jun_28_1418,Yes-No Task,3,HACA03,
Yes-No Task,71,0,71,0,11.1,-1,Hit,0.534599573817,True,-1,stimulus_HACA03_Yes-No Task_2019_Jun_28_1418_72,-1,True,2019_Jun_28_1418,Yes-No Task,3,HACA03,
Yes-No Task,72,0,72,0,11.1,-1,Correct Rejection,0.4686141985,False,-1,stimulus_HACA03_Yes-No Task_2019_Jun_28_1418_73,-1,True,2019_Jun_28_1418,Yes-No Task,3,HACA03,
Yes-No Task,73,0,73,0,11.1,-1,False Alarm,0.467541846214,False,-1,stimulus_HACA03_Yes-No Task_2019_Jun_28_1418_74,-1,True,2019_Jun_28_1418,Yes-No Task,3,HACA03,
Yes-No Task,74,0,74,0,6.7,-1,Correct Rejection,0.500741655473,False,-1,stimulus_HACA03_Yes-No Task_2019_Jun_28_1418_75,-1,True,2019_Jun_28_1418,Yes-No Task,3,HACA03,
Yes-No Task,0,0,0,0,5.7,-1,Correct Rejection,0.471962219803,False,-1,stimulus_HACA03_Yes-No Task_2019_Jun_28_1418_76,-1,True,2019_Jun_28_1418,Yes-No Task,3,HACA03,
Yes-No Task,1,0,1,0,2.7,-1,Correct Rejection,0.466744971927,False,-1,stimulus_HACA03_Yes-No Task_2019_Jun_28_1418_77,-1,True,2019_Jun_28_1418,Yes-No Task,3,HACA03,
Yes-No Task,2,0,2,0,5.7,-1,Correct Rejection,0.565249057021,False,-1,stimulus_HACA03_Yes-No Task_2019_Jun_28_1418_78,-1,True,2019_Jun_28_1418,Yes-No Task,3,HACA03,
Yes-No Task,3,0,3,0,7.8,-1,Hit,0.466873884201,True,-1,stimulus_HACA03_Yes-No Task_2019_Jun_28_1418_79,-1,True,2019_Jun_28_1418,Yes-No Task,3,HACA03,
Yes-No Task,4,0,4,0,5.7,-1,Hit,0.466166919796,True,-1,stimulus_HACA03_Yes-No Task_2019_Jun_28_1418_80,-1,True,2019_Jun_28_1418,Yes-No Task,3,HACA03,
Yes-No Task,5,0,5,0,5.7,-1,Miss,0.470721132122,True,-1,stimulus_HACA03_Yes-No Task_2019_Jun_28_1418_81,-1,True,2019_Jun_28_1418,Yes-No Task,3,HACA03,
Yes-No Task,6,0,6,0,4.4,-1,Correct Rejection,0.4676489993,False,-1,stimulus_HACA03_Yes-No Task_2019_Jun_28_1418_82,-1,True,2019_Jun_28_1418,Yes-No Task,3,HACA03,
Yes-No Task,7,0,7,0,9.8,-1,Correct Rejection,0.671618426684,False,-1,stimulus_HACA03_Yes-No Task_2019_Jun_28_1418_83,-1,True,2019_Jun_28_1418,Yes-No Task,3,HACA03,
Yes-No Task,8,0,8,0,6.7,-1,Correct Rejection,0.601127694128,False,-1,stimulus_HACA03_Yes-No Task_2019_Jun_28_1418_84,-1,True,2019_Jun_28_1418,Yes-No Task,3,HACA03,
Yes-No Task,9,0,9,0,11.1,-1,Correct Rejection,0.632542849984,False,-1,stimulus_HACA03_Yes-No Task_2019_Jun_28_1418_85,-1,True,2019_Jun_28_1418,Yes-No Task,3,HACA03,
Yes-No Task,10,0,10,0,6.7,-1,Hit,0.569144339534,True,-1,stimulus_HACA03_Yes-No Task_2019_Jun_28_1418_86,-1,True,2019_Jun_28_1418,Yes-No Task,3,HACA03,
Yes-No Task,11,0,11,0,5.7,-1,Hit,0.400514088571,True,-1,stimulus_HACA03_Yes-No Task_2019_Jun_28_1418_87,-1,True,2019_Jun_28_1418,Yes-No Task,3,HACA03,
Yes-No Task,12,0,12,0,2.7,-1,False Alarm,0.567491882481,False,-1,stimulus_HACA03_Yes-No Task_2019_Jun_28_1418_88,-1,True,2019_Jun_28_1418,Yes-No Task,3,HACA03,
Yes-No Task,13,0,13,0,2.7,-1,Hit,0.468066527043,True,-1,stimulus_HACA03_Yes-No Task_2019_Jun_28_1418_89,-1,True,2019_Jun_28_1418,Yes-No Task,3,HACA03,
Yes-No Task,14,0,14,0,7.8,-1,Hit,0.494305079337,True,-1,stimulus_HACA03_Yes-No Task_2019_Jun_28_1418_90,-1,True,2019_Jun_28_1418,Yes-No Task,3,HACA03,
Yes-No Task,15,0,15,0,8.8,-1,False Alarm,0.531003581127,False,-1,stimulus_HACA03_Yes-No Task_2019_Jun_28_1418_91,-1,True,2019_Jun_28_1418,Yes-No Task,3,HACA03,
Yes-No Task,16,0,16,0,5.7,-1,Hit,0.601158895763,True,-1,stimulus_HACA03_Yes-No Task_2019_Jun_28_1418_92,-1,True,2019_Jun_28_1418,Yes-No Task,3,HACA03,
Yes-No Task,17,0,17,0,5.7,-1,False Alarm,0.43412732007,False,-1,stimulus_HACA03_Yes-No Task_2019_Jun_28_1418_93,-1,True,2019_Jun_28_1418,Yes-No Task,3,HACA03,
Yes-No Task,18,0,18,0,5.7,-1,Correct Rejection,0.567670470802,False,-1,stimulus_HACA03_Yes-No Task_2019_Jun_28_1418_94,-1,True,2019_Jun_28_1418,Yes-No Task,3,HACA03,
Yes-No Task,19,0,19,0,8.8,-1,Correct Rejection,0.540125143249,False,-1,stimulus_HACA03_Yes-No Task_2019_Jun_28_1418_95,-1,True,2019_Jun_28_1418,Yes-No Task,3,HACA03,
Yes-No Task,20,0,20,0,6.7,-1,Correct Rejection,0.534558929503,False,-1,stimulus_HACA03_Yes-No Task_2019_Jun_28_1418_96,-1,True,2019_Jun_28_1418,Yes-No Task,3,HACA03,
Yes-No Task,21,0,21,0,7.8,-1,Hit,0.534139759606,True,-1,stimulus_HACA03_Yes-No Task_2019_Jun_28_1418_97,-1,True,2019_Jun_28_1418,Yes-No Task,3,HACA03,
Yes-No Task,22,0,22,0,9.8,-1,Hit,0.500926812878,True,-1,stimulus_HACA03_Yes-No Task_2019_Jun_28_1418_98,-1,True,2019_Jun_28_1418,Yes-No Task,3,HACA03,
Yes-No Task,23,0,23,0,4.4,-1,Correct Rejection,0.503413503757,False,-1,stimulus_HACA03_Yes-No Task_2019_Jun_28_1418_99,-1,True,2019_Jun_28_1418,Yes-No Task,3,HACA03,
Yes-No Task,24,0,24,0,5.7,-1,Hit,0.503849095665,True,-1,stimulus_HACA03_Yes-No Task_2019_Jun_28_1418_100,-1,True,2019_Jun_28_1418,Yes-No Task,3,HACA03,
Yes-No Task,25,0,25,0,9.8,-1,Correct Rejection,0.534096652176,False,-1,stimulus_HACA03_Yes-No Task_2019_Jun_28_1418_101,-1,True,2019_Jun_28_1418,Yes-No Task,3,HACA03,
Yes-No Task,26,0,26,0,11.1,-1,Correct Rejection,0.604135781527,False,-1,stimulus_HACA03_Yes-No Task_2019_Jun_28_1418_102,-1,True,2019_Jun_28_1418,Yes-No Task,3,HACA03,
Yes-No Task,27,0,27,0,4.4,-1,Hit,0.778548605042,True,-1,stimulus_HACA03_Yes-No Task_2019_Jun_28_1418_103,-1,True,2019_Jun_28_1418,Yes-No Task,3,HACA03,
Yes-No Task,28,0,28,0,5.7,-1,Correct Rejection,0.50206115772,False,-1,stimulus_HACA03_Yes-No Task_2019_Jun_28_1418_104,-1,True,2019_Jun_28_1418,Yes-No Task,3,HACA03,
Yes-No Task,29,0,29,0,9.8,-1,Correct Rejection,0.500799953239,False,-1,stimulus_HACA03_Yes-No Task_2019_Jun_28_1418_105,-1,True,2019_Jun_28_1418,Yes-No Task,3,HACA03,
Yes-No Task,30,0,30,0,11.1,-1,Hit,0.500762593467,True,-1,stimulus_HACA03_Yes-No Task_2019_Jun_28_1418_106,-1,True,2019_Jun_28_1418,Yes-No Task,3,HACA03,
Yes-No Task,31,0,31,0,7.8,-1,Correct Rejection,0.534157413291,False,-1,stimulus_HACA03_Yes-No Task_2019_Jun_28_1418_107,-1,True,2019_Jun_28_1418,Yes-No Task,3,HACA03,
Yes-No Task,32,0,32,0,8.8,-1,Correct Rejection,0.53333919053,False,-1,stimulus_HACA03_Yes-No Task_2019_Jun_28_1418_108,-1,True,2019_Jun_28_1418,Yes-No Task,3,HACA03,
Yes-No Task,33,0,33,0,5.7,-1,Miss,0.667342565954,True,-1,stimulus_HACA03_Yes-No Task_2019_Jun_28_1418_109,-1,True,2019_Jun_28_1418,Yes-No Task,3,HACA03,
Yes-No Task,34,0,34,0,5.7,-1,Hit,0.499757160665,True,-1,stimulus_HACA03_Yes-No Task_2019_Jun_28_1418_110,-1,True,2019_Jun_28_1418,Yes-No Task,3,HACA03,
Yes-No Task,35,0,35,0,7.8,-1,Correct Rejection,0.567336695036,False,-1,stimulus_HACA03_Yes-No Task_2019_Jun_28_1418_111,-1,True,2019_Jun_28_1418,Yes-No Task,3,HACA03,
Yes-No Task,36,0,36,0,7.8,-1,Correct Rejection,0.500925991684,False,-1,stimulus_HACA03_Yes-No Task_2019_Jun_28_1418_112,-1,True,2019_Jun_28_1418,Yes-No Task,3,HACA03,
Yes-No Task,37,0,37,0,2.7,-1,Correct Rejection,0.558733655605,False,-1,stimulus_HACA03_Yes-No Task_2019_Jun_28_1418_113,-1,True,2019_Jun_28_1418,Yes-No Task,3,HACA03,
Yes-No Task,38,0,38,0,4.4,-1,Hit,0.500269524986,True,-1,stimulus_HACA03_Yes-No Task_2019_Jun_28_1418_114,-1,True,2019_Jun_28_1418,Yes-No Task,3,HACA03,
Yes-No Task,39,0,39,0,2.7,-1,Miss,0.429208540823,True,-1,stimulus_HACA03_Yes-No Task_2019_Jun_28_1418_115,-1,True,2019_Jun_28_1418,Yes-No Task,3,HACA03,
Yes-No Task,40,0,40,0,7.8,-1,Hit,0.499298167648,True,-1,stimulus_HACA03_Yes-No Task_2019_Jun_28_1418_116,-1,True,2019_Jun_28_1418,Yes-No Task,3,HACA03,
Yes-No Task,41,0,41,0,2.7,-1,Miss,0.468439715216,True,-1,stimulus_HACA03_Yes-No Task_2019_Jun_28_1418_117,-1,True,2019_Jun_28_1418,Yes-No Task,3,HACA03,
Yes-No Task,42,0,42,0,11.1,-1,Correct Rejection,0.566346042091,False,-1,stimulus_HACA03_Yes-No Task_2019_Jun_28_1418_118,-1,True,2019_Jun_28_1418,Yes-No Task,3,HACA03,
Yes-No Task,43,0,43,0,9.8,-1,Correct Rejection,0.602007909678,False,-1,stimulus_HACA03_Yes-No Task_2019_Jun_28_1418_119,-1,True,2019_Jun_28_1418,Yes-No Task,3,HACA03,
Yes-No Task,44,0,44,0,11.1,-1,False Alarm,0.469359343639,False,-1,stimulus_HACA03_Yes-No Task_2019_Jun_28_1418_120,-1,True,2019_Jun_28_1418,Yes-No Task,3,HACA03,
Yes-No Task,45,0,45,0,5.7,-1,Miss,0.465995310806,True,-1,stimulus_HACA03_Yes-No Task_2019_Jun_28_1418_121,-1,True,2019_Jun_28_1418,Yes-No Task,3,HACA03,
Yes-No Task,46,0,46,0,4.4,-1,Correct Rejection,0.600366126979,False,-1,stimulus_HACA03_Yes-No Task_2019_Jun_28_1418_122,-1,True,2019_Jun_28_1418,Yes-No Task,3,HACA03,
Yes-No Task,47,0,47,0,2.7,-1,Miss,0.569091789192,True,-1,stimulus_HACA03_Yes-No Task_2019_Jun_28_1418_123,-1,True,2019_Jun_28_1418,Yes-No Task,3,HACA03,
Yes-No Task,48,0,48,0,11.1,-1,False Alarm,0.603948161006,False,-1,stimulus_HACA03_Yes-No Task_2019_Jun_28_1418_124,-1,True,2019_Jun_28_1418,Yes-No Task,3,HACA03,
Yes-No Task,49,0,49,0,9.8,-1,False Alarm,0.401033432223,False,-1,stimulus_HACA03_Yes-No Task_2019_Jun_28_1418_125,-1,True,2019_Jun_28_1418,Yes-No Task,3,HACA03,
Yes-No Task,50,0,50,0,11.1,-1,Hit,0.469880329212,True,-1,stimulus_HACA03_Yes-No Task_2019_Jun_28_1418_126,-1,True,2019_Jun_28_1418,Yes-No Task,3,HACA03,
Yes-No Task,51,0,51,0,4.4,-1,Correct Rejection,0.533823227044,False,-1,stimulus_HACA03_Yes-No Task_2019_Jun_28_1418_127,-1,True,2019_Jun_28_1418,Yes-No Task,3,HACA03,
Yes-No Task,52,0,52,0,9.8,-1,Correct Rejection,0.599992938573,False,-1,stimulus_HACA03_Yes-No Task_2019_Jun_28_1418_128,-1,True,2019_Jun_28_1418,Yes-No Task,3,HACA03,
Yes-No Task,53,0,53,0,9.8,-1,Correct Rejection,0.567635984858,False,-1,stimulus_HACA03_Yes-No Task_2019_Jun_28_1418_129,-1,True,2019_Jun_28_1418,Yes-No Task,3,HACA03,
Yes-No Task,54,0,54,0,11.1,-1,Correct Rejection,0.601534136804,False,-1,stimulus_HACA03_Yes-No Task_2019_Jun_28_1418_130,-1,True,2019_Jun_28_1418,Yes-No Task,3,HACA03,
Yes-No Task,55,0,55,0,5.7,-1,Correct Rejection,0.574412905611,False,-1,stimulus_HACA03_Yes-No Task_2019_Jun_28_1418_131,-1,True,2019_Jun_28_1418,Yes-No Task,3,HACA03,
Yes-No Task,56,0,56,0,6.7,-1,Miss,0.624675923493,True,-1,stimulus_HACA03_Yes-No Task_2019_Jun_28_1418_132,-1,True,2019_Jun_28_1418,Yes-No Task,3,HACA03,
Yes-No Task,57,0,57,0,9.8,-1,False Alarm,0.63456438994,False,-1,stimulus_HACA03_Yes-No Task_2019_Jun_28_1418_133,-1,True,2019_Jun_28_1418,Yes-No Task,3,HACA03,
Yes-No Task,58,0,58,0,6.7,-1,Hit,0.567828942556,True,-1,stimulus_HACA03_Yes-No Task_2019_Jun_28_1418_134,-1,True,2019_Jun_28_1418,Yes-No Task,3,HACA03,
Yes-No Task,59,0,59,0,11.1,-1,Hit,0.500002257992,True,-1,stimulus_HACA03_Yes-No Task_2019_Jun_28_1418_135,-1,True,2019_Jun_28_1418,Yes-No Task,3,HACA03,
Yes-No Task,60,0,60,0,7.8,-1,Hit,0.53352640057,True,-1,stimulus_HACA03_Yes-No Task_2019_Jun_28_1418_136,-1,True,2019_Jun_28_1418,Yes-No Task,3,HACA03,
Yes-No Task,61,0,61,0,7.8,-1,Hit,0.56778131891,True,-1,stimulus_HACA03_Yes-No Task_2019_Jun_28_1418_137,-1,True,2019_Jun_28_1418,Yes-No Task,3,HACA03,
Yes-No Task,62,0,62,0,5.7,-1,Miss,0.697298633168,True,-1,stimulus_HACA03_Yes-No Task_2019_Jun_28_1418_138,-1,True,2019_Jun_28_1418,Yes-No Task,3,HACA03,
Yes-No Task,63,0,63,0,4.4,-1,Miss,0.633831561077,True,-1,stimulus_HACA03_Yes-No Task_2019_Jun_28_1418_139,-1,True,2019_Jun_28_1418,Yes-No Task,3,HACA03,
Yes-No Task,64,0,64,0,9.8,-1,Correct Rejection,0.502008607611,False,-1,stimulus_HACA03_Yes-No Task_2019_Jun_28_1418_140,-1,True,2019_Jun_28_1418,Yes-No Task,3,HACA03,
Yes-No Task,65,0,65,0,2.7,-1,Correct Rejection,0.598354850896,False,-1,stimulus_HACA03_Yes-No Task_2019_Jun_28_1418_141,-1,True,2019_Jun_28_1418,Yes-No Task,3,HACA03,
Yes-No Task,66,0,66,0,5.7,-1,Hit,0.534740802366,True,-1,stimulus_HACA03_Yes-No Task_2019_Jun_28_1418_142,-1,True,2019_Jun_28_1418,Yes-No Task,3,HACA03,
Yes-No Task,67,0,67,0,5.7,-1,Hit,0.532355106203,True,-1,stimulus_HACA03_Yes-No Task_2019_Jun_28_1418_143,-1,True,2019_Jun_28_1418,Yes-No Task,3,HACA03,
Yes-No Task,68,0,68,0,9.8,-1,Correct Rejection,0.634197770152,False,-1,stimulus_HACA03_Yes-No Task_2019_Jun_28_1418_144,-1,True,2019_Jun_28_1418,Yes-No Task,3,HACA03,
Yes-No Task,69,0,69,0,9.8,-1,Hit,0.530312628252,True,-1,stimulus_HACA03_Yes-No Task_2019_Jun_28_1418_145,-1,True,2019_Jun_28_1418,Yes-No Task,3,HACA03,
Yes-No Task,70,0,70,0,6.7,-1,Miss,0.563972251723,True,-1,stimulus_HACA03_Yes-No Task_2019_Jun_28_1418_146,-1,True,2019_Jun_28_1418,Yes-No Task,3,HACA03,
Yes-No Task,71,0,71,0,5.7,-1,False Alarm,0.594550299691,False,-1,stimulus_HACA03_Yes-No Task_2019_Jun_28_1418_147,-1,True,2019_Jun_28_1418,Yes-No Task,3,HACA03,
Yes-No Task,72,0,72,0,11.1,-1,Correct Rejection,0.525521940319,False,-1,stimulus_HACA03_Yes-No Task_2019_Jun_28_1418_148,-1,True,2019_Jun_28_1418,Yes-No Task,3,HACA03,
Yes-No Task,73,0,73,0,4.4,-1,Miss,0.600226951065,True,-1,stimulus_HACA03_Yes-No Task_2019_Jun_28_1418_149,-1,True,2019_Jun_28_1418,Yes-No Task,3,HACA03,
Yes-No Task,74,0,74,0,9.8,-1,Correct Rejection,0.60964492918,False,-1,stimulus_HACA03_Yes-No Task_2019_Jun_28_1418_150,-1,True,2019_Jun_28_1418,Yes-No Task,3,HACA03,
Yes-No Task,0,0,0,0,6.7,-1,Correct Rejection,0.567615046864,False,-1,stimulus_HACA03_Yes-No Task_2019_Jun_28_1418_151,-1,True,2019_Jun_28_1418,Yes-No Task,3,HACA03,
Yes-No Task,1,0,1,0,2.7,-1,Miss,0.502093591262,True,-1,stimulus_HACA03_Yes-No Task_2019_Jun_28_1418_152,-1,True,2019_Jun_28_1418,Yes-No Task,3,HACA03,
Yes-No Task,2,0,2,0,5.7,-1,Correct Rejection,0.566028277623,False,-1,stimulus_HACA03_Yes-No Task_2019_Jun_28_1418_153,-1,True,2019_Jun_28_1418,Yes-No Task,3,HACA03,
Yes-No Task,3,0,3,0,4.4,-1,Correct Rejection,0.567275934154,False,-1,stimulus_HACA03_Yes-No Task_2019_Jun_28_1418_154,-1,True,2019_Jun_28_1418,Yes-No Task,3,HACA03,
Yes-No Task,4,0,4,0,6.7,-1,Hit,0.571187638212,True,-1,stimulus_HACA03_Yes-No Task_2019_Jun_28_1418_155,-1,True,2019_Jun_28_1418,Yes-No Task,3,HACA03,
Yes-No Task,5,0,5,0,7.8,-1,Hit,0.501507328125,True,-1,stimulus_HACA03_Yes-No Task_2019_Jun_28_1418_156,-1,True,2019_Jun_28_1418,Yes-No Task,3,HACA03,
Yes-No Task,6,0,6,0,9.8,-1,Correct Rejection,0.500893147895,False,-1,stimulus_HACA03_Yes-No Task_2019_Jun_28_1418_157,-1,True,2019_Jun_28_1418,Yes-No Task,3,HACA03,
Yes-No Task,7,0,7,0,2.7,-1,Correct Rejection,0.531043814961,False,-1,stimulus_HACA03_Yes-No Task_2019_Jun_28_1418_158,-1,True,2019_Jun_28_1418,Yes-No Task,3,HACA03,
Yes-No Task,8,0,8,0,6.7,-1,Correct Rejection,0.633107764414,False,-1,stimulus_HACA03_Yes-No Task_2019_Jun_28_1418_159,-1,True,2019_Jun_28_1418,Yes-No Task,3,HACA03,
Yes-No Task,9,0,9,0,7.8,-1,Correct Rejection,0.569062640192,False,-1,stimulus_HACA03_Yes-No Task_2019_Jun_28_1418_160,-1,True,2019_Jun_28_1418,Yes-No Task,3,HACA03,
Yes-No Task,10,0,10,0,11.1,-1,Hit,0.60115479026,True,-1,stimulus_HACA03_Yes-No Task_2019_Jun_28_1418_161,-1,True,2019_Jun_28_1418,Yes-No Task,3,HACA03,
Yes-No Task,11,0,11,0,2.7,-1,Correct Rejection,0.500843060901,False,-1,stimulus_HACA03_Yes-No Task_2019_Jun_28_1418_162,-1,True,2019_Jun_28_1418,Yes-No Task,3,HACA03,
Yes-No Task,12,0,12,0,6.7,-1,Hit,0.634471605998,True,-1,stimulus_HACA03_Yes-No Task_2019_Jun_28_1418_163,-1,True,2019_Jun_28_1418,Yes-No Task,3,HACA03,
Yes-No Task,13,0,13,0,4.4,-1,Correct Rejection,0.466880042339,False,-1,stimulus_HACA03_Yes-No Task_2019_Jun_28_1418_164,-1,True,2019_Jun_28_1418,Yes-No Task,3,HACA03,
Yes-No Task,14,0,14,0,4.4,-1,Miss,0.499622911448,True,-1,stimulus_HACA03_Yes-No Task_2019_Jun_28_1418_165,-1,True,2019_Jun_28_1418,Yes-No Task,3,HACA03,
Yes-No Task,15,0,15,0,2.7,-1,Correct Rejection,0.569398058113,False,-1,stimulus_HACA03_Yes-No Task_2019_Jun_28_1418_166,-1,True,2019_Jun_28_1418,Yes-No Task,3,HACA03,
Yes-No Task,16,0,16,0,11.1,-1,Hit,0.436687499285,True,-1,stimulus_HACA03_Yes-No Task_2019_Jun_28_1418_167,-1,True,2019_Jun_28_1418,Yes-No Task,3,HACA03,
Yes-No Task,17,0,17,0,7.8,-1,Correct Rejection,0.466081115417,False,-1,stimulus_HACA03_Yes-No Task_2019_Jun_28_1418_168,-1,True,2019_Jun_28_1418,Yes-No Task,3,HACA03,
Yes-No Task,18,0,18,0,9.8,-1,Correct Rejection,0.468615429942,False,-1,stimulus_HACA03_Yes-No Task_2019_Jun_28_1418_169,-1,True,2019_Jun_28_1418,Yes-No Task,3,HACA03,
Yes-No Task,19,0,19,0,5.7,-1,Hit,0.734141648281,True,-1,stimulus_HACA03_Yes-No Task_2019_Jun_28_1418_170,-1,True,2019_Jun_28_1418,Yes-No Task,3,HACA03,
Yes-No Task,20,0,20,0,9.8,-1,Hit,0.502597333863,True,-1,stimulus_HACA03_Yes-No Task_2019_Jun_28_1418_171,-1,True,2019_Jun_28_1418,Yes-No Task,3,HACA03,
Yes-No Task,21,0,21,0,8.8,-1,Miss,0.472455698764,True,-1,stimulus_HACA03_Yes-No Task_2019_Jun_28_1418_172,-1,True,2019_Jun_28_1418,Yes-No Task,3,HACA03,
Yes-No Task,22,0,22,0,5.7,-1,Miss,0.667426728411,True,-1,stimulus_HACA03_Yes-No Task_2019_Jun_28_1418_173,-1,True,2019_Jun_28_1418,Yes-No Task,3,HACA03,
Yes-No Task,23,0,23,0,8.8,-1,Correct Rejection,0.565247414866,False,-1,stimulus_HACA03_Yes-No Task_2019_Jun_28_1418_174,-1,True,2019_Jun_28_1418,Yes-No Task,3,HACA03,
Yes-No Task,24,0,24,0,4.4,-1,Correct Rejection,0.535830808338,False,-1,stimulus_HACA03_Yes-No Task_2019_Jun_28_1418_175,-1,True,2019_Jun_28_1418,Yes-No Task,3,HACA03,
Yes-No Task,25,0,25,0,11.1,-1,Hit,0.601389623946,True,-1,stimulus_HACA03_Yes-No Task_2019_Jun_28_1418_176,-1,True,2019_Jun_28_1418,Yes-No Task,3,HACA03,
Yes-No Task,26,0,26,0,2.7,-1,Correct Rejection,0.433775890619,False,-1,stimulus_HACA03_Yes-No Task_2019_Jun_28_1418_177,-1,True,2019_Jun_28_1418,Yes-No Task,3,HACA03,
Yes-No Task,27,0,27,0,11.1,-1,Correct Rejection,0.599905081326,False,-1,stimulus_HACA03_Yes-No Task_2019_Jun_28_1418_178,-1,True,2019_Jun_28_1418,Yes-No Task,3,HACA03,
Yes-No Task,28,0,28,0,8.8,-1,Hit,0.536164583871,True,-1,stimulus_HACA03_Yes-No Task_2019_Jun_28_1418_179,-1,True,2019_Jun_28_1418,Yes-No Task,3,HACA03,
Yes-No Task,29,0,29,0,9.8,-1,Hit,0.534649660811,True,-1,stimulus_HACA03_Yes-No Task_2019_Jun_28_1418_180,-1,True,2019_Jun_28_1418,Yes-No Task,3,HACA03,
Yes-No Task,30,0,30,0,8.8,-1,Hit,0.43275116221,True,-1,stimulus_HACA03_Yes-No Task_2019_Jun_28_1418_181,-1,True,2019_Jun_28_1418,Yes-No Task,3,HACA03,
Yes-No Task,31,0,31,0,11.1,-1,Hit,0.464384729741,True,-1,stimulus_HACA03_Yes-No Task_2019_Jun_28_1418_182,-1,True,2019_Jun_28_1418,Yes-No Task,3,HACA03,
Yes-No Task,32,0,32,0,11.1,-1,Correct Rejection,0.567509535933,False,-1,stimulus_HACA03_Yes-No Task_2019_Jun_28_1418_183,-1,True,2019_Jun_28_1418,Yes-No Task,3,HACA03,
Yes-No Task,33,0,33,0,7.8,-1,Correct Rejection,0.536109570414,False,-1,stimulus_HACA03_Yes-No Task_2019_Jun_28_1418_184,-1,True,2019_Jun_28_1418,Yes-No Task,3,HACA03,
Yes-No Task,34,0,34,0,8.8,-1,Correct Rejection,0.668530692812,False,-1,stimulus_HACA03_Yes-No Task_2019_Jun_28_1418_185,-1,True,2019_Jun_28_1418,Yes-No Task,3,HACA03,
Yes-No Task,35,0,35,0,7.8,-1,Correct Rejection,0.633453856455,False,-1,stimulus_HACA03_Yes-No Task_2019_Jun_28_1418_186,-1,True,2019_Jun_28_1418,Yes-No Task,3,HACA03,
Yes-No Task,36,0,36,0,9.8,-1,Correct Rejection,0.700872045709,False,-1,stimulus_HACA03_Yes-No Task_2019_Jun_28_1418_187,-1,True,2019_Jun_28_1418,Yes-No Task,3,HACA03,
Yes-No Task,37,0,37,0,9.8,-1,Hit,0.700934038498,True,-1,stimulus_HACA03_Yes-No Task_2019_Jun_28_1418_188,-1,True,2019_Jun_28_1418,Yes-No Task,3,HACA03,
Yes-No Task,38,0,38,0,5.7,-1,Correct Rejection,0.433178953594,False,-1,stimulus_HACA03_Yes-No Task_2019_Jun_28_1418_189,-1,True,2019_Jun_28_1418,Yes-No Task,3,HACA03,
Yes-No Task,39,0,39,0,6.7,-1,False Alarm,0.5995906014,False,-1,stimulus_HACA03_Yes-No Task_2019_Jun_28_1418_190,-1,True,2019_Jun_28_1418,Yes-No Task,3,HACA03,
Yes-No Task,40,0,40,0,4.4,-1,Correct Rejection,0.435078560375,False,-1,stimulus_HACA03_Yes-No Task_2019_Jun_28_1418_191,-1,True,2019_Jun_28_1418,Yes-No Task,3,HACA03,
Yes-No Task,41,0,41,0,8.8,-1,Correct Rejection,0.500632449519,False,-1,stimulus_HACA03_Yes-No Task_2019_Jun_28_1418_192,-1,True,2019_Jun_28_1418,Yes-No Task,3,HACA03,
Yes-No Task,42,0,42,0,9.8,-1,Hit,0.592116569402,True,-1,stimulus_HACA03_Yes-No Task_2019_Jun_28_1418_193,-1,True,2019_Jun_28_1418,Yes-No Task,3,HACA03,
Yes-No Task,43,0,43,0,9.8,-1,Correct Rejection,0.432308590971,False,-1,stimulus_HACA03_Yes-No Task_2019_Jun_28_1418_194,-1,True,2019_Jun_28_1418,Yes-No Task,3,HACA03,
Yes-No Task,44,0,44,0,5.7,-1,False Alarm,0.401888193795,False,-1,stimulus_HACA03_Yes-No Task_2019_Jun_28_1418_195,-1,True,2019_Jun_28_1418,Yes-No Task,3,HACA03,
Yes-No Task,45,0,45,0,9.8,-1,Correct Rejection,0.434184796875,False,-1,stimulus_HACA03_Yes-No Task_2019_Jun_28_1418_196,-1,True,2019_Jun_28_1418,Yes-No Task,3,HACA03,
Yes-No Task,46,0,46,0,7.8,-1,Miss,0.491034651641,True,-1,stimulus_HACA03_Yes-No Task_2019_Jun_28_1418_197,-1,True,2019_Jun_28_1418,Yes-No Task,3,HACA03,
Yes-No Task,47,0,47,0,2.7,-1,Correct Rejection,0.467508591712,False,-1,stimulus_HACA03_Yes-No Task_2019_Jun_28_1418_198,-1,True,2019_Jun_28_1418,Yes-No Task,3,HACA03,
Yes-No Task,48,0,48,0,9.8,-1,Hit,0.467289769556,True,-1,stimulus_HACA03_Yes-No Task_2019_Jun_28_1418_199,-1,True,2019_Jun_28_1418,Yes-No Task,3,HACA03,
Yes-No Task,49,0,49,0,2.7,-1,Correct Rejection,0.600445773453,False,-1,stimulus_HACA03_Yes-No Task_2019_Jun_28_1418_200,-1,True,2019_Jun_28_1418,Yes-No Task,3,HACA03,
Yes-No Task,50,0,50,0,8.8,-1,Hit,0.600148536265,True,-1,stimulus_HACA03_Yes-No Task_2019_Jun_28_1418_201,-1,True,2019_Jun_28_1418,Yes-No Task,3,HACA03,
Yes-No Task,51,0,51,0,5.7,-1,Hit,0.699132552603,True,-1,stimulus_HACA03_Yes-No Task_2019_Jun_28_1418_202,-1,True,2019_Jun_28_1418,Yes-No Task,3,HACA03,
Yes-No Task,52,0,52,0,6.7,-1,Correct Rejection,0.502282443224,False,-1,stimulus_HACA03_Yes-No Task_2019_Jun_28_1418_203,-1,True,2019_Jun_28_1418,Yes-No Task,3,HACA03,
Yes-No Task,53,0,53,0,7.8,-1,Hit,0.471263466636,True,-1,stimulus_HACA03_Yes-No Task_2019_Jun_28_1418_204,-1,True,2019_Jun_28_1418,Yes-No Task,3,HACA03,
Yes-No Task,54,0,54,0,8.8,-1,Correct Rejection,0.471216663951,False,-1,stimulus_HACA03_Yes-No Task_2019_Jun_28_1418_205,-1,True,2019_Jun_28_1418,Yes-No Task,3,HACA03,
Yes-No Task,55,0,55,0,9.8,-1,Hit,0.53856875468,True,-1,stimulus_HACA03_Yes-No Task_2019_Jun_28_1418_206,-1,True,2019_Jun_28_1418,Yes-No Task,3,HACA03,
Yes-No Task,56,0,56,0,5.7,-1,Hit,0.500887400005,True,-1,stimulus_HACA03_Yes-No Task_2019_Jun_28_1418_207,-1,True,2019_Jun_28_1418,Yes-No Task,3,HACA03,
Yes-No Task,57,0,57,0,7.8,-1,Miss,0.601649500895,True,-1,stimulus_HACA03_Yes-No Task_2019_Jun_28_1418_208,-1,True,2019_Jun_28_1418,Yes-No Task,3,HACA03,
Yes-No Task,58,0,58,0,4.4,-1,Correct Rejection,0.501063114731,False,-1,stimulus_HACA03_Yes-No Task_2019_Jun_28_1418_209,-1,True,2019_Jun_28_1418,Yes-No Task,3,HACA03,
Yes-No Task,59,0,59,0,4.4,-1,Correct Rejection,0.567737800768,False,-1,stimulus_HACA03_Yes-No Task_2019_Jun_28_1418_210,-1,True,2019_Jun_28_1418,Yes-No Task,3,HACA03,
Yes-No Task,60,0,60,0,8.8,-1,Correct Rejection,0.534702210687,False,-1,stimulus_HACA03_Yes-No Task_2019_Jun_28_1418_211,-1,True,2019_Jun_28_1418,Yes-No Task,3,HACA03,
Yes-No Task,61,0,61,0,5.7,-1,Miss,0.535414101556,True,-1,stimulus_HACA03_Yes-No Task_2019_Jun_28_1418_212,-1,True,2019_Jun_28_1418,Yes-No Task,3,HACA03,
Yes-No Task,62,0,62,0,7.8,-1,Hit,0.7385759803,True,-1,stimulus_HACA03_Yes-No Task_2019_Jun_28_1418_213,-1,True,2019_Jun_28_1418,Yes-No Task,3,HACA03,
Yes-No Task,63,0,63,0,9.8,-1,Hit,0.500517496141,True,-1,stimulus_HACA03_Yes-No Task_2019_Jun_28_1418_214,-1,True,2019_Jun_28_1418,Yes-No Task,3,HACA03,
Yes-No Task,64,0,64,0,11.1,-1,Hit,0.600186306983,True,-1,stimulus_HACA03_Yes-No Task_2019_Jun_28_1418_215,-1,True,2019_Jun_28_1418,Yes-No Task,3,HACA03,
Yes-No Task,65,0,65,0,9.8,-1,Miss,0.526911646361,True,-1,stimulus_HACA03_Yes-No Task_2019_Jun_28_1418_216,-1,True,2019_Jun_28_1418,Yes-No Task,3,HACA03,
Yes-No Task,66,0,66,0,5.7,-1,Correct Rejection,0.526040052297,False,-1,stimulus_HACA03_Yes-No Task_2019_Jun_28_1418_217,-1,True,2019_Jun_28_1418,Yes-No Task,3,HACA03,
Yes-No Task,67,0,67,0,6.7,-1,Hit,0.501020828262,True,-1,stimulus_HACA03_Yes-No Task_2019_Jun_28_1418_218,-1,True,2019_Jun_28_1418,Yes-No Task,3,HACA03,
Yes-No Task,68,0,68,0,11.1,-1,Hit,0.534134833142,True,-1,stimulus_HACA03_Yes-No Task_2019_Jun_28_1418_219,-1,True,2019_Jun_28_1418,Yes-No Task,3,HACA03,
Yes-No Task,69,0,69,0,11.1,-1,Miss,0.466265861876,True,-1,stimulus_HACA03_Yes-No Task_2019_Jun_28_1418_220,-1,True,2019_Jun_28_1418,Yes-No Task,3,HACA03,
Yes-No Task,70,0,70,0,5.7,-1,Hit,0.498972602887,True,-1,stimulus_HACA03_Yes-No Task_2019_Jun_28_1418_221,-1,True,2019_Jun_28_1418,Yes-No Task,3,HACA03,
Yes-No Task,71,0,71,0,2.7,-1,Hit,0.501199006336,True,-1,stimulus_HACA03_Yes-No Task_2019_Jun_28_1418_222,-1,True,2019_Jun_28_1418,Yes-No Task,3,HACA03,
Yes-No Task,72,0,72,0,4.4,-1,Miss,0.567401151173,True,-1,stimulus_HACA03_Yes-No Task_2019_Jun_28_1418_223,-1,True,2019_Jun_28_1418,Yes-No Task,3,HACA03,
Yes-No Task,73,0,73,0,7.8,-1,Miss,0.732648894656,True,-1,stimulus_HACA03_Yes-No Task_2019_Jun_28_1418_224,-1,True,2019_Jun_28_1418,Yes-No Task,3,HACA03,
Yes-No Task,74,0,74,0,7.8,-1,False Alarm,0.470923943212,False,-1,stimulus_HACA03_Yes-No Task_2019_Jun_28_1418_225,-1,True,2019_Jun_28_1418,Yes-No Task,3,HACA03,
Yes-No Task,0,0,0,0,8.8,-1,Miss,0.866668692091,True,-1,stimulus_HACA03_Yes-No Task_2019_Jun_28_1418_226,-1,True,2019_Jun_28_1418,Yes-No Task,3,HACA03,
Yes-No Task,1,0,1,0,11.1,-1,Hit,0.434519393835,True,-1,stimulus_HACA03_Yes-No Task_2019_Jun_28_1418_227,-1,True,2019_Jun_28_1418,Yes-No Task,3,HACA03,
Yes-No Task,2,0,2,0,11.1,-1,Correct Rejection,0.467646946432,False,-1,stimulus_HACA03_Yes-No Task_2019_Jun_28_1418_228,-1,True,2019_Jun_28_1418,Yes-No Task,3,HACA03,
Yes-No Task,3,0,3,0,6.7,-1,Miss,0.534227617085,True,-1,stimulus_HACA03_Yes-No Task_2019_Jun_28_1418_229,-1,True,2019_Jun_28_1418,Yes-No Task,3,HACA03,
Yes-No Task,4,0,4,0,2.7,-1,Miss,0.535164077766,True,-1,stimulus_HACA03_Yes-No Task_2019_Jun_28_1418_230,-1,True,2019_Jun_28_1418,Yes-No Task,3,HACA03,
Yes-No Task,5,0,5,0,9.8,-1,Hit,0.434112540213,True,-1,stimulus_HACA03_Yes-No Task_2019_Jun_28_1418_231,-1,True,2019_Jun_28_1418,Yes-No Task,3,HACA03,
Yes-No Task,6,0,6,0,7.8,-1,Hit,0.402484720573,True,-1,stimulus_HACA03_Yes-No Task_2019_Jun_28_1418_232,-1,True,2019_Jun_28_1418,Yes-No Task,3,HACA03,
Yes-No Task,7,0,7,0,8.8,-1,Hit,0.466741687618,True,-1,stimulus_HACA03_Yes-No Task_2019_Jun_28_1418_233,-1,True,2019_Jun_28_1418,Yes-No Task,3,HACA03,
Yes-No Task,8,0,8,0,11.1,-1,Hit,0.396559276618,True,-1,stimulus_HACA03_Yes-No Task_2019_Jun_28_1418_234,-1,True,2019_Jun_28_1418,Yes-No Task,3,HACA03,
Yes-No Task,9,0,9,0,8.8,-1,Correct Rejection,0.434090781258,False,-1,stimulus_HACA03_Yes-No Task_2019_Jun_28_1418_235,-1,True,2019_Jun_28_1418,Yes-No Task,3,HACA03,
Yes-No Task,10,0,10,0,8.8,-1,False Alarm,0.399963953998,False,-1,stimulus_HACA03_Yes-No Task_2019_Jun_28_1418_236,-1,True,2019_Jun_28_1418,Yes-No Task,3,HACA03,
Yes-No Task,11,0,11,0,2.7,-1,Correct Rejection,0.434050547658,False,-1,stimulus_HACA03_Yes-No Task_2019_Jun_28_1418_237,-1,True,2019_Jun_28_1418,Yes-No Task,3,HACA03,
Yes-No Task,12,0,12,0,8.8,-1,Correct Rejection,0.500318380073,False,-1,stimulus_HACA03_Yes-No Task_2019_Jun_28_1418_238,-1,True,2019_Jun_28_1418,Yes-No Task,3,HACA03,
Yes-No Task,13,0,13,0,2.7,-1,Miss,0.559949699556,True,-1,stimulus_HACA03_Yes-No Task_2019_Jun_28_1418_239,-1,True,2019_Jun_28_1418,Yes-No Task,3,HACA03,
Yes-No Task,14,0,14,0,6.7,-1,Correct Rejection,0.49328117189,False,-1,stimulus_HACA03_Yes-No Task_2019_Jun_28_1418_240,-1,True,2019_Jun_28_1418,Yes-No Task,3,HACA03,
Yes-No Task,15,0,15,0,8.8,-1,Correct Rejection,0.537059989525,False,-1,stimulus_HACA03_Yes-No Task_2019_Jun_28_1418_241,-1,True,2019_Jun_28_1418,Yes-No Task,3,HACA03,
Yes-No Task,16,0,16,0,7.8,-1,Correct Rejection,0.607166859554,False,-1,stimulus_HACA03_Yes-No Task_2019_Jun_28_1418_242,-1,True,2019_Jun_28_1418,Yes-No Task,3,HACA03,
Yes-No Task,17,0,17,0,5.7,-1,Miss,0.536851841724,True,-1,stimulus_HACA03_Yes-No Task_2019_Jun_28_1418_243,-1,True,2019_Jun_28_1418,Yes-No Task,3,HACA03,
Yes-No Task,18,0,18,0,6.7,-1,Correct Rejection,0.567366665229,False,-1,stimulus_HACA03_Yes-No Task_2019_Jun_28_1418_244,-1,True,2019_Jun_28_1418,Yes-No Task,3,HACA03,
Yes-No Task,19,0,19,0,6.7,-1,Correct Rejection,0.625105767511,False,-1,stimulus_HACA03_Yes-No Task_2019_Jun_28_1418_245,-1,True,2019_Jun_28_1418,Yes-No Task,3,HACA03,
Yes-No Task,20,0,20,0,6.7,-1,Miss,0.701094973367,True,-1,stimulus_HACA03_Yes-No Task_2019_Jun_28_1418_246,-1,True,2019_Jun_28_1418,Yes-No Task,3,HACA03,
Yes-No Task,21,0,21,0,8.8,-1,Hit,0.63159284112,True,-1,stimulus_HACA03_Yes-No Task_2019_Jun_28_1418_247,-1,True,2019_Jun_28_1418,Yes-No Task,3,HACA03,
Yes-No Task,22,0,22,0,8.8,-1,Hit,0.400808862178,True,-1,stimulus_HACA03_Yes-No Task_2019_Jun_28_1418_248,-1,True,2019_Jun_28_1418,Yes-No Task,3,HACA03,
Yes-No Task,23,0,23,0,6.7,-1,Correct Rejection,0.467541435501,False,-1,stimulus_HACA03_Yes-No Task_2019_Jun_28_1418_249,-1,True,2019_Jun_28_1418,Yes-No Task,3,HACA03,
Yes-No Task,24,0,24,0,8.8,-1,False Alarm,0.500210406026,False,-1,stimulus_HACA03_Yes-No Task_2019_Jun_28_1418_250,-1,True,2019_Jun_28_1418,Yes-No Task,3,HACA03,
Yes-No Task,25,0,25,0,9.8,-1,Miss,0.434164269362,True,-1,stimulus_HACA03_Yes-No Task_2019_Jun_28_1418_251,-1,True,2019_Jun_28_1418,Yes-No Task,3,HACA03,
Yes-No Task,26,0,26,0,11.1,-1,Correct Rejection,0.337323725922,False,-1,stimulus_HACA03_Yes-No Task_2019_Jun_28_1418_252,-1,True,2019_Jun_28_1418,Yes-No Task,3,HACA03,
Yes-No Task,27,0,27,0,7.8,-1,Correct Rejection,0.535301200813,False,-1,stimulus_HACA03_Yes-No Task_2019_Jun_28_1418_253,-1,True,2019_Jun_28_1418,Yes-No Task,3,HACA03,
Yes-No Task,28,0,28,0,7.8,-1,Correct Rejection,0.568817953346,False,-1,stimulus_HACA03_Yes-No Task_2019_Jun_28_1418_254,-1,True,2019_Jun_28_1418,Yes-No Task,3,HACA03,
Yes-No Task,29,0,29,0,4.4,-1,Correct Rejection,0.500113927061,False,-1,stimulus_HACA03_Yes-No Task_2019_Jun_28_1418_255,-1,True,2019_Jun_28_1418,Yes-No Task,3,HACA03,
Yes-No Task,30,0,30,0,5.7,-1,False Alarm,0.533952960046,False,-1,stimulus_HACA03_Yes-No Task_2019_Jun_28_1418_256,-1,True,2019_Jun_28_1418,Yes-No Task,3,HACA03,
Yes-No Task,31,0,31,0,9.8,-1,Correct Rejection,0.524954973022,False,-1,stimulus_HACA03_Yes-No Task_2019_Jun_28_1418_257,-1,True,2019_Jun_28_1418,Yes-No Task,3,HACA03,
Yes-No Task,32,0,32,0,5.7,-1,Miss,0.434903256362,True,-1,stimulus_HACA03_Yes-No Task_2019_Jun_28_1418_258,-1,True,2019_Jun_28_1418,Yes-No Task,3,HACA03,
Yes-No Task,33,0,33,0,8.8,-1,Hit,0.600759021472,True,-1,stimulus_HACA03_Yes-No Task_2019_Jun_28_1418_259,-1,True,2019_Jun_28_1418,Yes-No Task,3,HACA03,
Yes-No Task,34,0,34,0,9.8,-1,Correct Rejection,0.436134901131,False,-1,stimulus_HACA03_Yes-No Task_2019_Jun_28_1418_260,-1,True,2019_Jun_28_1418,Yes-No Task,3,HACA03,
Yes-No Task,35,0,35,0,6.7,-1,Correct Rejection,0.46586886188,False,-1,stimulus_HACA03_Yes-No Task_2019_Jun_28_1418_261,-1,True,2019_Jun_28_1418,Yes-No Task,3,HACA03,
Yes-No Task,36,0,36,0,9.8,-1,Hit,0.53738309117,True,-1,stimulus_HACA03_Yes-No Task_2019_Jun_28_1418_262,-1,True,2019_Jun_28_1418,Yes-No Task,3,HACA03,
Yes-No Task,37,0,37,0,11.1,-1,Correct Rejection,0.467171942117,False,-1,stimulus_HACA03_Yes-No Task_2019_Jun_28_1418_263,-1,True,2019_Jun_28_1418,Yes-No Task,3,HACA03,
Yes-No Task,38,0,38,0,8.8,-1,Correct Rejection,0.442153949756,False,-1,stimulus_HACA03_Yes-No Task_2019_Jun_28_1418_264,-1,True,2019_Jun_28_1418,Yes-No Task,3,HACA03,
Yes-No Task,39,0,39,0,9.8,-1,Correct Rejection,0.468232799089,False,-1,stimulus_HACA03_Yes-No Task_2019_Jun_28_1418_265,-1,True,2019_Jun_28_1418,Yes-No Task,3,HACA03,
Yes-No Task,40,0,40,0,8.8,-1,Miss,0.470584419556,True,-1,stimulus_HACA03_Yes-No Task_2019_Jun_28_1418_266,-1,True,2019_Jun_28_1418,Yes-No Task,3,HACA03,
Yes-No Task,41,0,41,0,6.7,-1,Miss,0.529415580444,True,-1,stimulus_HACA03_Yes-No Task_2019_Jun_28_1418_267,-1,True,2019_Jun_28_1418,Yes-No Task,3,HACA03,
Yes-No Task,42,0,42,0,11.1,-1,Hit,0.500125833089,True,-1,stimulus_HACA03_Yes-No Task_2019_Jun_28_1418_268,-1,True,2019_Jun_28_1418,Yes-No Task,3,HACA03,
Yes-No Task,43,0,43,0,9.8,-1,Correct Rejection,0.534360224148,False,-1,stimulus_HACA03_Yes-No Task_2019_Jun_28_1418_269,-1,True,2019_Jun_28_1418,Yes-No Task,3,HACA03,
Yes-No Task,44,0,44,0,8.8,-1,Correct Rejection,0.404749304755,False,-1,stimulus_HACA03_Yes-No Task_2019_Jun_28_1418_270,-1,True,2019_Jun_28_1418,Yes-No Task,3,HACA03,
Yes-No Task,45,0,45,0,8.8,-1,Correct Rejection,0.500797490124,False,-1,stimulus_HACA03_Yes-No Task_2019_Jun_28_1418_271,-1,True,2019_Jun_28_1418,Yes-No Task,3,HACA03,
Yes-No Task,46,0,46,0,6.7,-1,Correct Rejection,0.466976521071,False,-1,stimulus_HACA03_Yes-No Task_2019_Jun_28_1418_272,-1,True,2019_Jun_28_1418,Yes-No Task,3,HACA03,
Yes-No Task,47,0,47,0,2.7,-1,Correct Rejection,0.434178638738,False,-1,stimulus_HACA03_Yes-No Task_2019_Jun_28_1418_273,-1,True,2019_Jun_28_1418,Yes-No Task,3,HACA03,
Yes-No Task,48,0,48,0,2.7,-1,Correct Rejection,0.435730100609,False,-1,stimulus_HACA03_Yes-No Task_2019_Jun_28_1418_274,-1,True,2019_Jun_28_1418,Yes-No Task,3,HACA03,
Yes-No Task,49,0,49,0,2.7,-1,Correct Rejection,0.402646476403,False,-1,stimulus_HACA03_Yes-No Task_2019_Jun_28_1418_275,-1,True,2019_Jun_28_1418,Yes-No Task,3,HACA03,
Yes-No Task,50,0,50,0,2.7,-1,Miss,0.367127479753,True,-1,stimulus_HACA03_Yes-No Task_2019_Jun_28_1418_276,-1,True,2019_Jun_28_1418,Yes-No Task,3,HACA03,
Yes-No Task,51,0,51,0,8.8,-1,Hit,0.602152833249,True,-1,stimulus_HACA03_Yes-No Task_2019_Jun_28_1418_277,-1,True,2019_Jun_28_1418,Yes-No Task,3,HACA03,
Yes-No Task,52,0,52,0,5.7,-1,Miss,0.334333702689,True,-1,stimulus_HACA03_Yes-No Task_2019_Jun_28_1418_278,-1,True,2019_Jun_28_1418,Yes-No Task,3,HACA03,
Yes-No Task,53,0,53,0,9.8,-1,Correct Rejection,0.395075555192,False,-1,stimulus_HACA03_Yes-No Task_2019_Jun_28_1418_279,-1,True,2019_Jun_28_1418,Yes-No Task,3,HACA03,
Yes-No Task,54,0,54,0,4.4,-1,Correct Rejection,0.400551859057,False,-1,stimulus_HACA03_Yes-No Task_2019_Jun_28_1418_280,-1,True,2019_Jun_28_1418,Yes-No Task,3,HACA03,
Yes-No Task,55,0,55,0,6.7,-1,Hit,0.436650549993,True,-1,stimulus_HACA03_Yes-No Task_2019_Jun_28_1418_281,-1,True,2019_Jun_28_1418,Yes-No Task,3,HACA03,
Yes-No Task,56,0,56,0,9.8,-1,Miss,0.334266783437,True,-1,stimulus_HACA03_Yes-No Task_2019_Jun_28_1418_282,-1,True,2019_Jun_28_1418,Yes-No Task,3,HACA03,
Yes-No Task,57,0,57,0,2.7,-1,Miss,0.434160574572,True,-1,stimulus_HACA03_Yes-No Task_2019_Jun_28_1418_283,-1,True,2019_Jun_28_1418,Yes-No Task,3,HACA03,
Yes-No Task,58,0,58,0,11.1,-1,Correct Rejection,0.365671264939,False,-1,stimulus_HACA03_Yes-No Task_2019_Jun_28_1418_284,-1,True,2019_Jun_28_1418,Yes-No Task,3,HACA03,
Yes-No Task,59,0,59,0,2.7,-1,Correct Rejection,0.331885192543,False,-1,stimulus_HACA03_Yes-No Task_2019_Jun_28_1418_285,-1,True,2019_Jun_28_1418,Yes-No Task,3,HACA03,
Yes-No Task,60,0,60,0,11.1,-1,Correct Rejection,0.436033495935,False,-1,stimulus_HACA03_Yes-No Task_2019_Jun_28_1418_286,-1,True,2019_Jun_28_1418,Yes-No Task,3,HACA03,
Yes-No Task,61,0,61,0,5.7,-1,Miss,0.333796705585,True,-1,stimulus_HACA03_Yes-No Task_2019_Jun_28_1418_287,-1,True,2019_Jun_28_1418,Yes-No Task,3,HACA03,
Yes-No Task,62,0,62,0,6.7,-1,Correct Rejection,0.468133446295,False,-1,stimulus_HACA03_Yes-No Task_2019_Jun_28_1418_288,-1,True,2019_Jun_28_1418,Yes-No Task,3,HACA03,
Yes-No Task,63,0,63,0,7.8,-1,Hit,0.533958297456,True,-1,stimulus_HACA03_Yes-No Task_2019_Jun_28_1418_289,-1,True,2019_Jun_28_1418,Yes-No Task,3,HACA03,
Yes-No Task,64,0,64,0,9.8,-1,Hit,0.406436658464,True,-1,stimulus_HACA03_Yes-No Task_2019_Jun_28_1418_290,-1,True,2019_Jun_28_1418,Yes-No Task,3,HACA03,
Yes-No Task,65,0,65,0,7.8,-1,Hit,0.345109774498,True,-1,stimulus_HACA03_Yes-No Task_2019_Jun_28_1418_291,-1,True,2019_Jun_28_1418,Yes-No Task,3,HACA03,
Yes-No Task,66,0,66,0,9.8,-1,Correct Rejection,0.567050953628,False,-1,stimulus_HACA03_Yes-No Task_2019_Jun_28_1418_292,-1,True,2019_Jun_28_1418,Yes-No Task,3,HACA03,
Yes-No Task,67,0,67,0,8.8,-1,Miss,0.464578097919,True,-1,stimulus_HACA03_Yes-No Task_2019_Jun_28_1418_293,-1,True,2019_Jun_28_1418,Yes-No Task,3,HACA03,
Yes-No Task,68,0,68,0,5.7,-1,False Alarm,0.434917215025,False,-1,stimulus_HACA03_Yes-No Task_2019_Jun_28_1418_294,-1,True,2019_Jun_28_1418,Yes-No Task,3,HACA03,
Yes-No Task,69,0,69,0,8.8,-1,Correct Rejection,0.433329214109,False,-1,stimulus_HACA03_Yes-No Task_2019_Jun_28_1418_295,-1,True,2019_Jun_28_1418,Yes-No Task,3,HACA03,
Yes-No Task,70,0,70,0,6.7,-1,Correct Rejection,0.434244326316,False,-1,stimulus_HACA03_Yes-No Task_2019_Jun_28_1418_296,-1,True,2019_Jun_28_1418,Yes-No Task,3,HACA03,
Yes-No Task,71,0,71,0,9.8,-1,Correct Rejection,0.43543491629,False,-1,stimulus_HACA03_Yes-No Task_2019_Jun_28_1418_297,-1,True,2019_Jun_28_1418,Yes-No Task,3,HACA03,
Yes-No Task,72,0,72,0,6.7,-1,Hit,0.567435637116,True,-1,stimulus_HACA03_Yes-No Task_2019_Jun_28_1418_298,-1,True,2019_Jun_28_1418,Yes-No Task,3,HACA03,
Yes-No Task,73,0,73,0,7.8,-1,Correct Rejection,0.436789315427,False,-1,stimulus_HACA03_Yes-No Task_2019_Jun_28_1418_299,-1,True,2019_Jun_28_1418,Yes-No Task,3,HACA03,
Yes-No Task,74,0,74,0,7.8,-1,Miss,0.370286649093,True,-1,stimulus_HACA03_Yes-No Task_2019_Jun_28_1418_300,-1,True,2019_Jun_28_1418,Yes-No Task,3,HACA03,
Yes-No Task,0,0,0,0,5.7,-1,Miss,0.498085818719,True,-1,stimulus_HACA03_Yes-No Task_2019_Jun_28_1418_301,-1,True,2019_Jun_28_1418,Yes-No Task,3,HACA03,
Yes-No Task,1,0,1,0,4.4,-1,False Alarm,0.367747407872,False,-1,stimulus_HACA03_Yes-No Task_2019_Jun_28_1418_302,-1,True,2019_Jun_28_1418,Yes-No Task,3,HACA03,
Yes-No Task,2,0,2,0,8.8,-1,Correct Rejection,0.434611767065,False,-1,stimulus_HACA03_Yes-No Task_2019_Jun_28_1418_303,-1,True,2019_Jun_28_1418,Yes-No Task,3,HACA03,
Yes-No Task,3,0,3,0,8.8,-1,Miss,0.333924796665,True,-1,stimulus_HACA03_Yes-No Task_2019_Jun_28_1418_304,-1,True,2019_Jun_28_1418,Yes-No Task,3,HACA03,
Yes-No Task,4,0,4,0,8.8,-1,Miss,0.500582773471,True,-1,stimulus_HACA03_Yes-No Task_2019_Jun_28_1418_305,-1,True,2019_Jun_28_1418,Yes-No Task,3,HACA03,
Yes-No Task,5,0,5,0,9.8,-1,Hit,0.500809395919,True,-1,stimulus_HACA03_Yes-No Task_2019_Jun_28_1418_306,-1,True,2019_Jun_28_1418,Yes-No Task,3,HACA03,
Yes-No Task,6,0,6,0,8.8,-1,False Alarm,0.467499970226,False,-1,stimulus_HACA03_Yes-No Task_2019_Jun_28_1418_307,-1,True,2019_Jun_28_1418,Yes-No Task,3,HACA03,
Yes-No Task,7,0,7,0,5.7,-1,Miss,0.467504486209,True,-1,stimulus_HACA03_Yes-No Task_2019_Jun_28_1418_308,-1,True,2019_Jun_28_1418,Yes-No Task,3,HACA03,
Yes-No Task,8,0,8,0,6.7,-1,False Alarm,0.567745601293,False,-1,stimulus_HACA03_Yes-No Task_2019_Jun_28_1418_309,-1,True,2019_Jun_28_1418,Yes-No Task,3,HACA03,
Yes-No Task,9,0,9,0,2.7,-1,False Alarm,0.366969007999,False,-1,stimulus_HACA03_Yes-No Task_2019_Jun_28_1418_310,-1,True,2019_Jun_28_1418,Yes-No Task,3,HACA03,
Yes-No Task,10,0,10,0,5.7,-1,False Alarm,0.502155583818,False,-1,stimulus_HACA03_Yes-No Task_2019_Jun_28_1418_311,-1,True,2019_Jun_28_1418,Yes-No Task,3,HACA03,
Yes-No Task,11,0,11,0,7.8,-1,Hit,0.5005072325,True,-1,stimulus_HACA03_Yes-No Task_2019_Jun_28_1418_312,-1,True,2019_Jun_28_1418,Yes-No Task,3,HACA03,
Yes-No Task,12,0,12,0,4.4,-1,Hit,0.333014610922,True,-1,stimulus_HACA03_Yes-No Task_2019_Jun_28_1418_313,-1,True,2019_Jun_28_1418,Yes-No Task,3,HACA03,
Yes-No Task,13,0,13,0,6.7,-1,Hit,0.399190480821,True,-1,stimulus_HACA03_Yes-No Task_2019_Jun_28_1418_314,-1,True,2019_Jun_28_1418,Yes-No Task,3,HACA03,
Yes-No Task,14,0,14,0,2.7,-1,False Alarm,0.636062069796,False,-1,stimulus_HACA03_Yes-No Task_2019_Jun_28_1418_315,-1,True,2019_Jun_28_1418,Yes-No Task,3,HACA03,
Yes-No Task,15,0,15,0,11.1,-1,Hit,0.501079126261,True,-1,stimulus_HACA03_Yes-No Task_2019_Jun_28_1418_316,-1,True,2019_Jun_28_1418,Yes-No Task,3,HACA03,
Yes-No Task,16,0,16,0,2.7,-1,Correct Rejection,0.565434624907,False,-1,stimulus_HACA03_Yes-No Task_2019_Jun_28_1418_317,-1,True,2019_Jun_28_1418,Yes-No Task,3,HACA03,
Yes-No Task,17,0,17,0,2.7,-1,Miss,0.534154949943,True,-1,stimulus_HACA03_Yes-No Task_2019_Jun_28_1418_318,-1,True,2019_Jun_28_1418,Yes-No Task,3,HACA03,
Yes-No Task,18,0,18,0,8.8,-1,Hit,0.500758487964,True,-1,stimulus_HACA03_Yes-No Task_2019_Jun_28_1418_319,-1,True,2019_Jun_28_1418,Yes-No Task,3,HACA03,
Yes-No Task,19,0,19,0,7.8,-1,Hit,0.367449760204,True,-1,stimulus_HACA03_Yes-No Task_2019_Jun_28_1418_320,-1,True,2019_Jun_28_1418,Yes-No Task,3,HACA03,
Yes-No Task,20,0,20,0,8.8,-1,Correct Rejection,0.398900633678,False,-1,stimulus_HACA03_Yes-No Task_2019_Jun_28_1418_321,-1,True,2019_Jun_28_1418,Yes-No Task,3,HACA03,
Yes-No Task,21,0,21,0,7.8,-1,False Alarm,0.433731551515,False,-1,stimulus_HACA03_Yes-No Task_2019_Jun_28_1418_322,-1,True,2019_Jun_28_1418,Yes-No Task,3,HACA03,
Yes-No Task,22,0,22,0,2.7,-1,Hit,0.434066148475,True,-1,stimulus_HACA03_Yes-No Task_2019_Jun_28_1418_323,-1,True,2019_Jun_28_1418,Yes-No Task,3,HACA03,
Yes-No Task,23,0,23,0,8.8,-1,Miss,0.366579397814,True,-1,stimulus_HACA03_Yes-No Task_2019_Jun_28_1418_324,-1,True,2019_Jun_28_1418,Yes-No Task,3,HACA03,
Yes-No Task,24,0,24,0,5.7,-1,Hit,0.506470035994,True,-1,stimulus_HACA03_Yes-No Task_2019_Jun_28_1418_325,-1,True,2019_Jun_28_1418,Yes-No Task,3,HACA03,
Yes-No Task,25,0,25,0,8.8,-1,False Alarm,0.335978769697,False,-1,stimulus_HACA03_Yes-No Task_2019_Jun_28_1418_326,-1,True,2019_Jun_28_1418,Yes-No Task,3,HACA03,
Yes-No Task,26,0,26,0,2.7,-1,False Alarm,0.293127791025,False,-1,stimulus_HACA03_Yes-No Task_2019_Jun_28_1418_327,-1,True,2019_Jun_28_1418,Yes-No Task,3,HACA03,
Yes-No Task,27,0,27,0,9.8,-1,Hit,0.301260342123,True,-1,stimulus_HACA03_Yes-No Task_2019_Jun_28_1418_328,-1,True,2019_Jun_28_1418,Yes-No Task,3,HACA03,
Yes-No Task,28,0,28,0,4.4,-1,Miss,0.434166322229,True,-1,stimulus_HACA03_Yes-No Task_2019_Jun_28_1418_329,-1,True,2019_Jun_28_1418,Yes-No Task,3,HACA03,
Yes-No Task,29,0,29,0,5.7,-1,Miss,0.401152080623,True,-1,stimulus_HACA03_Yes-No Task_2019_Jun_28_1418_330,-1,True,2019_Jun_28_1418,Yes-No Task,3,HACA03,
Yes-No Task,30,0,30,0,4.4,-1,False Alarm,0.501083231764,False,-1,stimulus_HACA03_Yes-No Task_2019_Jun_28_1418_331,-1,True,2019_Jun_28_1418,Yes-No Task,3,HACA03,
Yes-No Task,31,0,31,0,6.7,-1,Correct Rejection,0.499773582676,False,-1,stimulus_HACA03_Yes-No Task_2019_Jun_28_1418_332,-1,True,2019_Jun_28_1418,Yes-No Task,3,HACA03,
Yes-No Task,32,0,32,0,5.7,-1,Correct Rejection,0.43409776059,False,-1,stimulus_HACA03_Yes-No Task_2019_Jun_28_1418_333,-1,True,2019_Jun_28_1418,Yes-No Task,3,HACA03,
Yes-No Task,33,0,33,0,7.8,-1,Miss,0.436929722782,True,-1,stimulus_HACA03_Yes-No Task_2019_Jun_28_1418_334,-1,True,2019_Jun_28_1418,Yes-No Task,3,HACA03,
Yes-No Task,34,0,34,0,9.8,-1,Miss,0.467745067552,True,-1,stimulus_HACA03_Yes-No Task_2019_Jun_28_1418_335,-1,True,2019_Jun_28_1418,Yes-No Task,3,HACA03,
Yes-No Task,35,0,35,0,11.1,-1,False Alarm,0.568571624579,False,-1,stimulus_HACA03_Yes-No Task_2019_Jun_28_1418_336,-1,True,2019_Jun_28_1418,Yes-No Task,3,HACA03,
Yes-No Task,36,0,36,0,4.4,-1,Correct Rejection,0.469595819479,False,-1,stimulus_HACA03_Yes-No Task_2019_Jun_28_1418_337,-1,True,2019_Jun_28_1418,Yes-No Task,3,HACA03,
Yes-No Task,37,0,37,0,11.1,-1,False Alarm,0.501885443227,False,-1,stimulus_HACA03_Yes-No Task_2019_Jun_28_1418_338,-1,True,2019_Jun_28_1418,Yes-No Task,3,HACA03,
Yes-No Task,38,0,38,0,7.8,-1,False Alarm,0.401716173859,False,-1,stimulus_HACA03_Yes-No Task_2019_Jun_28_1418_339,-1,True,2019_Jun_28_1418,Yes-No Task,3,HACA03,
Yes-No Task,39,0,39,0,6.7,-1,Hit,0.401010030881,True,-1,stimulus_HACA03_Yes-No Task_2019_Jun_28_1418_340,-1,True,2019_Jun_28_1418,Yes-No Task,3,HACA03,
Yes-No Task,40,0,40,0,2.7,-1,Miss,0.601096492494,True,-1,stimulus_HACA03_Yes-No Task_2019_Jun_28_1418_341,-1,True,2019_Jun_28_1418,Yes-No Task,3,HACA03,
Yes-No Task,41,0,41,0,5.7,-1,Miss,0.533878240502,True,-1,stimulus_HACA03_Yes-No Task_2019_Jun_28_1418_342,-1,True,2019_Jun_28_1418,Yes-No Task,3,HACA03,
Yes-No Task,42,0,42,0,5.7,-1,Hit,0.533273502719,True,-1,stimulus_HACA03_Yes-No Task_2019_Jun_28_1418_343,-1,True,2019_Jun_28_1418,Yes-No Task,3,HACA03,
Yes-No Task,43,0,43,0,6.7,-1,Hit,0.467043440323,True,-1,stimulus_HACA03_Yes-No Task_2019_Jun_28_1418_344,-1,True,2019_Jun_28_1418,Yes-No Task,3,HACA03,
Yes-No Task,44,0,44,0,9.8,-1,Correct Rejection,0.46732384502,False,-1,stimulus_HACA03_Yes-No Task_2019_Jun_28_1418_345,-1,True,2019_Jun_28_1418,Yes-No Task,3,HACA03,
Yes-No Task,45,0,45,0,2.7,-1,Correct Rejection,0.468488981016,False,-1,stimulus_HACA03_Yes-No Task_2019_Jun_28_1418_346,-1,True,2019_Jun_28_1418,Yes-No Task,3,HACA03,
Yes-No Task,46,0,46,0,4.4,-1,False Alarm,0.368573020212,False,-1,stimulus_HACA03_Yes-No Task_2019_Jun_28_1418_347,-1,True,2019_Jun_28_1418,Yes-No Task,3,HACA03,
Yes-No Task,47,0,47,0,8.8,-1,Hit,0.42546967743,True,-1,stimulus_HACA03_Yes-No Task_2019_Jun_28_1418_348,-1,True,2019_Jun_28_1418,Yes-No Task,3,HACA03,
Yes-No Task,48,0,48,0,4.4,-1,Correct Rejection,0.300789032597,False,-1,stimulus_HACA03_Yes-No Task_2019_Jun_28_1418_349,-1,True,2019_Jun_28_1418,Yes-No Task,3,HACA03,
Yes-No Task,49,0,49,0,2.7,-1,Correct Rejection,0.400705404114,False,-1,stimulus_HACA03_Yes-No Task_2019_Jun_28_1418_350,-1,True,2019_Jun_28_1418,Yes-No Task,3,HACA03,
Yes-No Task,50,0,50,0,2.7,-1,Correct Rejection,0.434863433242,False,-1,stimulus_HACA03_Yes-No Task_2019_Jun_28_1418_351,-1,True,2019_Jun_28_1418,Yes-No Task,3,HACA03,
Yes-No Task,51,0,51,0,11.1,-1,False Alarm,0.534515000647,False,-1,stimulus_HACA03_Yes-No Task_2019_Jun_28_1418_352,-1,True,2019_Jun_28_1418,Yes-No Task,3,HACA03,
Yes-No Task,52,0,52,0,9.8,-1,Miss,0.325197360944,True,-1,stimulus_HACA03_Yes-No Task_2019_Jun_28_1418_353,-1,True,2019_Jun_28_1418,Yes-No Task,3,HACA03,
Yes-No Task,53,0,53,0,6.7,-1,False Alarm,0.473901239457,False,-1,stimulus_HACA03_Yes-No Task_2019_Jun_28_1418_354,-1,True,2019_Jun_28_1418,Yes-No Task,3,HACA03,
Yes-No Task,54,0,54,0,7.8,-1,Hit,0.302747758571,True,-1,stimulus_HACA03_Yes-No Task_2019_Jun_28_1418_355,-1,True,2019_Jun_28_1418,Yes-No Task,3,HACA03,
Yes-No Task,55,0,55,0,11.1,-1,Correct Rejection,0.299890753115,False,-1,stimulus_HACA03_Yes-No Task_2019_Jun_28_1418_356,-1,True,2019_Jun_28_1418,Yes-No Task,3,HACA03,
Yes-No Task,56,0,56,0,2.7,-1,Miss,0.498102240497,True,-1,stimulus_HACA03_Yes-No Task_2019_Jun_28_1418_357,-1,True,2019_Jun_28_1418,Yes-No Task,3,HACA03,
Yes-No Task,57,0,57,0,4.4,-1,Hit,0.433301297016,True,-1,stimulus_HACA03_Yes-No Task_2019_Jun_28_1418_358,-1,True,2019_Jun_28_1418,Yes-No Task,3,HACA03,
Yes-No Task,58,0,58,0,7.8,-1,False Alarm,0.402715859236,False,-1,stimulus_HACA03_Yes-No Task_2019_Jun_28_1418_359,-1,True,2019_Jun_28_1418,Yes-No Task,3,HACA03,
Yes-No Task,59,0,59,0,7.8,-1,False Alarm,0.267014866462,False,-1,stimulus_HACA03_Yes-No Task_2019_Jun_28_1418_360,-1,True,2019_Jun_28_1418,Yes-No Task,3,HACA03,
Yes-No Task,60,0,60,0,6.7,-1,Correct Rejection,0.501281116158,False,-1,stimulus_HACA03_Yes-No Task_2019_Jun_28_1418_361,-1,True,2019_Jun_28_1418,Yes-No Task,3,HACA03,
Yes-No Task,61,0,61,0,9.8,-1,Hit,0.467731930083,True,-1,stimulus_HACA03_Yes-No Task_2019_Jun_28_1418_362,-1,True,2019_Jun_28_1418,Yes-No Task,3,HACA03,
Yes-No Task,62,0,62,0,7.8,-1,Correct Rejection,0.568445175653,False,-1,stimulus_HACA03_Yes-No Task_2019_Jun_28_1418_363,-1,True,2019_Jun_28_1418,Yes-No Task,3,HACA03,
Yes-No Task,63,0,63,0,6.7,-1,Hit,0.435567934066,True,-1,stimulus_HACA03_Yes-No Task_2019_Jun_28_1418_364,-1,True,2019_Jun_28_1418,Yes-No Task,3,HACA03,
Yes-No Task,64,0,64,0,2.7,-1,Miss,0.398739288095,True,-1,stimulus_HACA03_Yes-No Task_2019_Jun_28_1418_365,-1,True,2019_Jun_28_1418,Yes-No Task,3,HACA03,
Yes-No Task,65,0,65,0,2.7,-1,Hit,0.534189025406,True,-1,stimulus_HACA03_Yes-No Task_2019_Jun_28_1418_366,-1,True,2019_Jun_28_1418,Yes-No Task,3,HACA03,
Yes-No Task,66,0,66,0,11.1,-1,Hit,0.40386744705,True,-1,stimulus_HACA03_Yes-No Task_2019_Jun_28_1418_367,-1,True,2019_Jun_28_1418,Yes-No Task,3,HACA03,
Yes-No Task,67,0,67,0,2.7,-1,Correct Rejection,0.369022981264,False,-1,stimulus_HACA03_Yes-No Task_2019_Jun_28_1418_368,-1,True,2019_Jun_28_1418,Yes-No Task,3,HACA03,
Yes-No Task,68,0,68,0,11.1,-1,Hit,0.500596731901,True,-1,stimulus_HACA03_Yes-No Task_2019_Jun_28_1418_369,-1,True,2019_Jun_28_1418,Yes-No Task,3,HACA03,
Yes-No Task,69,0,69,0,5.7,-1,Correct Rejection,0.36670050933,False,-1,stimulus_HACA03_Yes-No Task_2019_Jun_28_1418_370,-1,True,2019_Jun_28_1418,Yes-No Task,3,HACA03,
Yes-No Task,70,0,70,0,7.8,-1,Hit,0.534155360423,True,-1,stimulus_HACA03_Yes-No Task_2019_Jun_28_1418_371,-1,True,2019_Jun_28_1418,Yes-No Task,3,HACA03,
Yes-No Task,71,0,71,0,2.7,-1,Miss,0.300772611052,True,-1,stimulus_HACA03_Yes-No Task_2019_Jun_28_1418_372,-1,True,2019_Jun_28_1418,Yes-No Task,3,HACA03,
Yes-No Task,72,0,72,0,2.7,-1,False Alarm,0.434222567361,False,-1,stimulus_HACA03_Yes-No Task_2019_Jun_28_1418_373,-1,True,2019_Jun_28_1418,Yes-No Task,3,HACA03,
Yes-No Task,73,0,73,0,11.1,-1,Correct Rejection,0.299949872075,False,-1,stimulus_HACA03_Yes-No Task_2019_Jun_28_1418_374,-1,True,2019_Jun_28_1418,Yes-No Task,3,HACA03,
Yes-No Task,74,0,74,0,6.7,-1,Correct Rejection,0.497399792308,False,-1,stimulus_HACA03_Yes-No Task_2019_Jun_28_1418_375,-1,True,2019_Jun_28_1418,Yes-No Task,3,HACA03,
Yes-No Task,0,0,0,0,11.1,-1,Correct Rejection,0.467380090151,False,-1,stimulus_HACA03_Yes-No Task_2019_Jun_28_1418_376,-1,True,2019_Jun_28_1418,Yes-No Task,3,HACA03,
Yes-No Task,1,0,1,0,9.8,-1,Hit,0.467425660929,True,-1,stimulus_HACA03_Yes-No Task_2019_Jun_28_1418_377,-1,True,2019_Jun_28_1418,Yes-No Task,3,HACA03,
Yes-No Task,2,0,2,0,2.7,-1,Hit,0.533994425554,True,-1,stimulus_HACA03_Yes-No Task_2019_Jun_28_1418_378,-1,True,2019_Jun_28_1418,Yes-No Task,3,HACA03,
Yes-No Task,3,0,3,0,6.7,-1,Hit,0.465957950801,True,-1,stimulus_HACA03_Yes-No Task_2019_Jun_28_1418_379,-1,True,2019_Jun_28_1418,Yes-No Task,3,HACA03,
Yes-No Task,4,0,4,0,11.1,-1,Miss,0.36741937953,True,-1,stimulus_HACA03_Yes-No Task_2019_Jun_28_1418_380,-1,True,2019_Jun_28_1418,Yes-No Task,3,HACA03,
Yes-No Task,5,0,5,0,8.8,-1,Correct Rejection,0.600712629734,False,-1,stimulus_HACA03_Yes-No Task_2019_Jun_28_1418_381,-1,True,2019_Jun_28_1418,Yes-No Task,3,HACA03,
Yes-No Task,6,0,6,0,6.7,-1,Hit,0.336066216463,True,-1,stimulus_HACA03_Yes-No Task_2019_Jun_28_1418_382,-1,True,2019_Jun_28_1418,Yes-No Task,3,HACA03,
Yes-No Task,7,0,7,0,6.7,-1,Hit,0.534281809581,True,-1,stimulus_HACA03_Yes-No Task_2019_Jun_28_1418_383,-1,True,2019_Jun_28_1418,Yes-No Task,3,HACA03,
Yes-No Task,8,0,8,0,4.4,-1,Correct Rejection,0.438718481688,False,-1,stimulus_HACA03_Yes-No Task_2019_Jun_28_1418_384,-1,True,2019_Jun_28_1418,Yes-No Task,3,HACA03,
Yes-No Task,9,0,9,0,9.8,-1,Correct Rejection,0.50062505994,False,-1,stimulus_HACA03_Yes-No Task_2019_Jun_28_1418_385,-1,True,2019_Jun_28_1418,Yes-No Task,3,HACA03,
Yes-No Task,10,0,10,0,4.4,-1,Correct Rejection,0.56799767795,False,-1,stimulus_HACA03_Yes-No Task_2019_Jun_28_1418_386,-1,True,2019_Jun_28_1418,Yes-No Task,3,HACA03,
Yes-No Task,11,0,11,0,6.7,-1,Hit,0.401163986651,True,-1,stimulus_HACA03_Yes-No Task_2019_Jun_28_1418_387,-1,True,2019_Jun_28_1418,Yes-No Task,3,HACA03,
Yes-No Task,12,0,12,0,2.7,-1,Miss,0.536503286101,True,-1,stimulus_HACA03_Yes-No Task_2019_Jun_28_1418_388,-1,True,2019_Jun_28_1418,Yes-No Task,3,HACA03,
Yes-No Task,13,0,13,0,2.7,-1,Miss,0.437765188515,True,-1,stimulus_HACA03_Yes-No Task_2019_Jun_28_1418_389,-1,True,2019_Jun_28_1418,Yes-No Task,3,HACA03,
Yes-No Task,14,0,14,0,4.4,-1,Hit,0.53417629865,True,-1,stimulus_HACA03_Yes-No Task_2019_Jun_28_1418_390,-1,True,2019_Jun_28_1418,Yes-No Task,3,HACA03,
Yes-No Task,15,0,15,0,7.8,-1,Hit,0.467503665248,True,-1,stimulus_HACA03_Yes-No Task_2019_Jun_28_1418_391,-1,True,2019_Jun_28_1418,Yes-No Task,3,HACA03,
Yes-No Task,16,0,16,0,2.7,-1,Correct Rejection,0.46754677291,False,-1,stimulus_HACA03_Yes-No Task_2019_Jun_28_1418_392,-1,True,2019_Jun_28_1418,Yes-No Task,3,HACA03,
Yes-No Task,17,0,17,0,8.8,-1,Correct Rejection,0.535862420453,False,-1,stimulus_HACA03_Yes-No Task_2019_Jun_28_1418_393,-1,True,2019_Jun_28_1418,Yes-No Task,3,HACA03,
Yes-No Task,18,0,18,0,9.8,-1,Hit,0.669443341671,True,-1,stimulus_HACA03_Yes-No Task_2019_Jun_28_1418_394,-1,True,2019_Jun_28_1418,Yes-No Task,3,HACA03,
Yes-No Task,19,0,19,0,5.7,-1,Hit,0.434152774047,True,-1,stimulus_HACA03_Yes-No Task_2019_Jun_28_1418_395,-1,True,2019_Jun_28_1418,Yes-No Task,3,HACA03,
Yes-No Task,20,0,20,0,6.7,-1,Hit,0.568237438099,True,-1,stimulus_HACA03_Yes-No Task_2019_Jun_28_1418_396,-1,True,2019_Jun_28_1418,Yes-No Task,3,HACA03,
Yes-No Task,21,0,21,0,6.7,-1,Correct Rejection,0.434056295315,False,-1,stimulus_HACA03_Yes-No Task_2019_Jun_28_1418_397,-1,True,2019_Jun_28_1418,Yes-No Task,3,HACA03,
Yes-No Task,22,0,22,0,5.7,-1,Hit,0.458391545806,True,-1,stimulus_HACA03_Yes-No Task_2019_Jun_28_1418_398,-1,True,2019_Jun_28_1418,Yes-No Task,3,HACA03,
Yes-No Task,23,0,23,0,5.7,-1,Hit,0.491816746071,True,-1,stimulus_HACA03_Yes-No Task_2019_Jun_28_1418_399,-1,True,2019_Jun_28_1418,Yes-No Task,3,HACA03,
Yes-No Task,24,0,24,0,7.8,-1,Correct Rejection,0.467920782045,False,-1,stimulus_HACA03_Yes-No Task_2019_Jun_28_1418_400,-1,True,2019_Jun_28_1418,Yes-No Task,3,HACA03,
Yes-No Task,25,0,25,0,8.8,-1,False Alarm,0.434437284013,False,-1,stimulus_HACA03_Yes-No Task_2019_Jun_28_1418_401,-1,True,2019_Jun_28_1418,Yes-No Task,3,HACA03,
Yes-No Task,26,0,26,0,9.8,-1,Hit,0.500962530496,True,-1,stimulus_HACA03_Yes-No Task_2019_Jun_28_1418_402,-1,True,2019_Jun_28_1418,Yes-No Task,3,HACA03,
Yes-No Task,27,0,27,0,6.7,-1,Correct Rejection,0.566580465296,False,-1,stimulus_HACA03_Yes-No Task_2019_Jun_28_1418_403,-1,True,2019_Jun_28_1418,Yes-No Task,3,HACA03,
Yes-No Task,28,0,28,0,9.8,-1,Hit,0.533856481314,True,-1,stimulus_HACA03_Yes-No Task_2019_Jun_28_1418_404,-1,True,2019_Jun_28_1418,Yes-No Task,3,HACA03,
Yes-No Task,29,0,29,0,8.8,-1,Correct Rejection,0.50046207197,False,-1,stimulus_HACA03_Yes-No Task_2019_Jun_28_1418_405,-1,True,2019_Jun_28_1418,Yes-No Task,3,HACA03,
Yes-No Task,30,0,30,0,4.4,-1,Hit,0.635475396411,True,-1,stimulus_HACA03_Yes-No Task_2019_Jun_28_1418_406,-1,True,2019_Jun_28_1418,Yes-No Task,3,HACA03,
Yes-No Task,31,0,31,0,7.8,-1,False Alarm,0.435930037638,False,-1,stimulus_HACA03_Yes-No Task_2019_Jun_28_1418_407,-1,True,2019_Jun_28_1418,Yes-No Task,3,HACA03,
Yes-No Task,32,0,32,0,5.7,-1,Correct Rejection,0.500991679495,False,-1,stimulus_HACA03_Yes-No Task_2019_Jun_28_1418_408,-1,True,2019_Jun_28_1418,Yes-No Task,3,HACA03,
Yes-No Task,33,0,33,0,2.7,-1,Miss,0.534428375075,True,-1,stimulus_HACA03_Yes-No Task_2019_Jun_28_1418_409,-1,True,2019_Jun_28_1418,Yes-No Task,3,HACA03,
Yes-No Task,34,0,34,0,9.8,-1,Hit,0.536541056819,True,-1,stimulus_HACA03_Yes-No Task_2019_Jun_28_1418_410,-1,True,2019_Jun_28_1418,Yes-No Task,3,HACA03,
Yes-No Task,35,0,35,0,4.4,-1,Correct Rejection,0.53560254327,False,-1,stimulus_HACA03_Yes-No Task_2019_Jun_28_1418_411,-1,True,2019_Jun_28_1418,Yes-No Task,3,HACA03,
Yes-No Task,36,0,36,0,9.8,-1,False Alarm,0.667918975698,False,-1,stimulus_HACA03_Yes-No Task_2019_Jun_28_1418_412,-1,True,2019_Jun_28_1418,Yes-No Task,3,HACA03,
Yes-No Task,37,0,37,0,8.8,-1,Hit,0.634234719444,True,-1,stimulus_HACA03_Yes-No Task_2019_Jun_28_1418_413,-1,True,2019_Jun_28_1418,Yes-No Task,3,HACA03,
Yes-No Task,38,0,38,0,6.7,-1,Miss,0.467917087255,True,-1,stimulus_HACA03_Yes-No Task_2019_Jun_28_1418_414,-1,True,2019_Jun_28_1418,Yes-No Task,3,HACA03,
Yes-No Task,39,0,39,0,6.7,-1,Hit,0.367485067341,True,-1,stimulus_HACA03_Yes-No Task_2019_Jun_28_1418_415,-1,True,2019_Jun_28_1418,Yes-No Task,3,HACA03,
Yes-No Task,40,0,40,0,7.8,-1,Correct Rejection,0.500797900604,False,-1,stimulus_HACA03_Yes-No Task_2019_Jun_28_1418_416,-1,True,2019_Jun_28_1418,Yes-No Task,3,HACA03,
Yes-No Task,41,0,41,0,8.8,-1,Hit,0.501120181056,True,-1,stimulus_HACA03_Yes-No Task_2019_Jun_28_1418_417,-1,True,2019_Jun_28_1418,Yes-No Task,3,HACA03,
Yes-No Task,42,0,42,0,6.7,-1,Correct Rejection,0.669901103014,False,-1,stimulus_HACA03_Yes-No Task_2019_Jun_28_1418_418,-1,True,2019_Jun_28_1418,Yes-No Task,3,HACA03,
Yes-No Task,43,0,43,0,2.7,-1,Hit,0.600858374499,True,-1,stimulus_HACA03_Yes-No Task_2019_Jun_28_1418_419,-1,True,2019_Jun_28_1418,Yes-No Task,3,HACA03,
Yes-No Task,44,0,44,0,4.4,-1,Correct Rejection,0.669162526727,False,-1,stimulus_HACA03_Yes-No Task_2019_Jun_28_1418_420,-1,True,2019_Jun_28_1418,Yes-No Task,3,HACA03,
Yes-No Task,45,0,45,0,6.7,-1,Miss,0.667375409743,True,-1,stimulus_HACA03_Yes-No Task_2019_Jun_28_1418_421,-1,True,2019_Jun_28_1418,Yes-No Task,3,HACA03,
Yes-No Task,46,0,46,0,6.7,-1,Hit,0.49106790591,True,-1,stimulus_HACA03_Yes-No Task_2019_Jun_28_1418_422,-1,True,2019_Jun_28_1418,Yes-No Task,3,HACA03,
Yes-No Task,47,0,47,0,9.8,-1,Correct Rejection,0.567673344864,False,-1,stimulus_HACA03_Yes-No Task_2019_Jun_28_1418_423,-1,True,2019_Jun_28_1418,Yes-No Task,3,HACA03,
Yes-No Task,48,0,48,0,8.8,-1,False Alarm,0.627858904423,False,-1,stimulus_HACA03_Yes-No Task_2019_Jun_28_1418_424,-1,True,2019_Jun_28_1418,Yes-No Task,3,HACA03,
Yes-No Task,49,0,49,0,4.4,-1,Hit,0.469365501776,True,-1,stimulus_HACA03_Yes-No Task_2019_Jun_28_1418_425,-1,True,2019_Jun_28_1418,Yes-No Task,3,HACA03,
Yes-No Task,50,0,50,0,6.7,-1,Hit,0.534753939835,True,-1,stimulus_HACA03_Yes-No Task_2019_Jun_28_1418_426,-1,True,2019_Jun_28_1418,Yes-No Task,3,HACA03,
Yes-No Task,51,0,51,0,4.4,-1,Miss,0.467400617432,True,-1,stimulus_HACA03_Yes-No Task_2019_Jun_28_1418_427,-1,True,2019_Jun_28_1418,Yes-No Task,3,HACA03,
Yes-No Task,52,0,52,0,8.8,-1,Hit,0.401996989036,True,-1,stimulus_HACA03_Yes-No Task_2019_Jun_28_1418_428,-1,True,2019_Jun_28_1418,Yes-No Task,3,HACA03,
Yes-No Task,53,0,53,0,11.1,-1,Correct Rejection,0.567591235042,False,-1,stimulus_HACA03_Yes-No Task_2019_Jun_28_1418_429,-1,True,2019_Jun_28_1418,Yes-No Task,3,HACA03,
Yes-No Task,54,0,54,0,7.8,-1,Hit,0.557539370609,True,-1,stimulus_HACA03_Yes-No Task_2019_Jun_28_1418_430,-1,True,2019_Jun_28_1418,Yes-No Task,3,HACA03,
Yes-No Task,55,0,55,0,8.8,-1,Miss,0.533386403695,True,-1,stimulus_HACA03_Yes-No Task_2019_Jun_28_1418_431,-1,True,2019_Jun_28_1418,Yes-No Task,3,HACA03,
Yes-No Task,56,0,56,0,5.7,-1,False Alarm,0.601833016146,False,-1,stimulus_HACA03_Yes-No Task_2019_Jun_28_1418_432,-1,True,2019_Jun_28_1418,Yes-No Task,3,HACA03,
Yes-No Task,57,0,57,0,6.7,-1,Hit,0.40171863744,True,-1,stimulus_HACA03_Yes-No Task_2019_Jun_28_1418_433,-1,True,2019_Jun_28_1418,Yes-No Task,3,HACA03,
Yes-No Task,58,0,58,0,9.8,-1,Correct Rejection,0.46885436913,False,-1,stimulus_HACA03_Yes-No Task_2019_Jun_28_1418_434,-1,True,2019_Jun_28_1418,Yes-No Task,3,HACA03,
Yes-No Task,59,0,59,0,8.8,-1,False Alarm,0.532116988208,False,-1,stimulus_HACA03_Yes-No Task_2019_Jun_28_1418_435,-1,True,2019_Jun_28_1418,Yes-No Task,3,HACA03,
Yes-No Task,60,0,60,0,2.7,-1,Hit,0.429119862383,True,-1,stimulus_HACA03_Yes-No Task_2019_Jun_28_1418_436,-1,True,2019_Jun_28_1418,Yes-No Task,3,HACA03,
Yes-No Task,61,0,61,0,9.8,-1,Hit,0.557272514328,True,-1,stimulus_HACA03_Yes-No Task_2019_Jun_28_1418_437,-1,True,2019_Jun_28_1418,Yes-No Task,3,HACA03,
Yes-No Task,62,0,62,0,8.8,-1,Hit,0.501288095256,True,-1,stimulus_HACA03_Yes-No Task_2019_Jun_28_1418_438,-1,True,2019_Jun_28_1418,Yes-No Task,3,HACA03,
Yes-No Task,63,0,63,0,5.7,-1,Correct Rejection,0.602013657335,False,-1,stimulus_HACA03_Yes-No Task_2019_Jun_28_1418_439,-1,True,2019_Jun_28_1418,Yes-No Task,3,HACA03,
Yes-No Task,64,0,64,0,11.1,-1,Hit,0.401537175057,True,-1,stimulus_HACA03_Yes-No Task_2019_Jun_28_1418_440,-1,True,2019_Jun_28_1418,Yes-No Task,3,HACA03,
Yes-No Task,65,0,65,0,4.4,-1,Correct Rejection,0.573336448055,False,-1,stimulus_HACA03_Yes-No Task_2019_Jun_28_1418_441,-1,True,2019_Jun_28_1418,Yes-No Task,3,HACA03,
Yes-No Task,66,0,66,0,2.7,-1,Hit,0.567114999052,True,-1,stimulus_HACA03_Yes-No Task_2019_Jun_28_1418_442,-1,True,2019_Jun_28_1418,Yes-No Task,3,HACA03,
Yes-No Task,67,0,67,0,9.8,-1,Hit,0.402432991425,True,-1,stimulus_HACA03_Yes-No Task_2019_Jun_28_1418_443,-1,True,2019_Jun_28_1418,Yes-No Task,3,HACA03,
Yes-No Task,68,0,68,0,7.8,-1,Miss,0.600607118802,True,-1,stimulus_HACA03_Yes-No Task_2019_Jun_28_1418_444,-1,True,2019_Jun_28_1418,Yes-No Task,3,HACA03,
Yes-No Task,69,0,69,0,11.1,-1,Hit,0.401100351475,True,-1,stimulus_HACA03_Yes-No Task_2019_Jun_28_1418_445,-1,True,2019_Jun_28_1418,Yes-No Task,3,HACA03,
Yes-No Task,70,0,70,0,6.7,-1,Correct Rejection,0.568315852899,False,-1,stimulus_HACA03_Yes-No Task_2019_Jun_28_1418_446,-1,True,2019_Jun_28_1418,Yes-No Task,3,HACA03,
Yes-No Task,71,0,71,0,7.8,-1,Correct Rejection,0.501479410799,False,-1,stimulus_HACA03_Yes-No Task_2019_Jun_28_1418_447,-1,True,2019_Jun_28_1418,Yes-No Task,3,HACA03,
Yes-No Task,72,0,72,0,7.8,-1,Correct Rejection,0.526274475269,False,-1,stimulus_HACA03_Yes-No Task_2019_Jun_28_1418_448,-1,True,2019_Jun_28_1418,Yes-No Task,3,HACA03,
Yes-No Task,73,0,73,0,7.8,-1,Hit,0.500790510559,True,-1,stimulus_HACA03_Yes-No Task_2019_Jun_28_1418_449,-1,True,2019_Jun_28_1418,Yes-No Task,3,HACA03,
Yes-No Task,74,0,74,0,11.1,-1,Correct Rejection,0.500124190934,False,-1,stimulus_HACA03_Yes-No Task_2019_Jun_28_1418_450,-1,True,2019_Jun_28_1418,Yes-No Task,3,HACA03,
Yes-No Task,0,0,0,0,9.8,-1,Correct Rejection,0.602329368936,False,-1,stimulus_HACA03_Yes-No Task_2019_Jun_28_1418_451,-1,True,2019_Jun_28_1418,Yes-No Task,3,HACA03,
Yes-No Task,1,0,1,0,11.1,-1,False Alarm,0.502093180548,False,-1,stimulus_HACA03_Yes-No Task_2019_Jun_28_1418_452,-1,True,2019_Jun_28_1418,Yes-No Task,3,HACA03,
Yes-No Task,2,0,2,0,9.8,-1,Hit,0.501504043583,True,-1,stimulus_HACA03_Yes-No Task_2019_Jun_28_1418_453,-1,True,2019_Jun_28_1418,Yes-No Task,3,HACA03,
Yes-No Task,3,0,3,0,7.8,-1,Miss,0.466129970737,True,-1,stimulus_HACA03_Yes-No Task_2019_Jun_28_1418_454,-1,True,2019_Jun_28_1418,Yes-No Task,3,HACA03,
Yes-No Task,4,0,4,0,11.1,-1,Hit,0.402231412008,True,-1,stimulus_HACA03_Yes-No Task_2019_Jun_28_1418_455,-1,True,2019_Jun_28_1418,Yes-No Task,3,HACA03,
Yes-No Task,5,0,5,0,8.8,-1,Correct Rejection,0.501650198828,False,-1,stimulus_HACA03_Yes-No Task_2019_Jun_28_1418_456,-1,True,2019_Jun_28_1418,Yes-No Task,3,HACA03,
Yes-No Task,6,0,6,0,7.8,-1,Hit,0.500552392798,True,-1,stimulus_HACA03_Yes-No Task_2019_Jun_28_1418_457,-1,True,2019_Jun_28_1418,Yes-No Task,3,HACA03,
Yes-No Task,7,0,7,0,11.1,-1,Correct Rejection,0.501004816964,False,-1,stimulus_HACA03_Yes-No Task_2019_Jun_28_1418_458,-1,True,2019_Jun_28_1418,Yes-No Task,3,HACA03,
Yes-No Task,8,0,8,0,8.8,-1,Hit,0.434391713236,True,-1,stimulus_HACA03_Yes-No Task_2019_Jun_28_1418_459,-1,True,2019_Jun_28_1418,Yes-No Task,3,HACA03,
Yes-No Task,9,0,9,0,8.8,-1,Correct Rejection,0.467549646506,False,-1,stimulus_HACA03_Yes-No Task_2019_Jun_28_1418_460,-1,True,2019_Jun_28_1418,Yes-No Task,3,HACA03,
Yes-No Task,10,0,10,0,2.7,-1,False Alarm,0.46868686541,False,-1,stimulus_HACA03_Yes-No Task_2019_Jun_28_1418_461,-1,True,2019_Jun_28_1418,Yes-No Task,3,HACA03,
Yes-No Task,11,0,11,0,5.7,-1,Miss,0.567664723378,True,-1,stimulus_HACA03_Yes-No Task_2019_Jun_28_1418_462,-1,True,2019_Jun_28_1418,Yes-No Task,3,HACA03,
Yes-No Task,12,0,12,0,8.8,-1,Correct Rejection,0.600077101029,False,-1,stimulus_HACA03_Yes-No Task_2019_Jun_28_1418_463,-1,True,2019_Jun_28_1418,Yes-No Task,3,HACA03,
Yes-No Task,13,0,13,0,4.4,-1,Correct Rejection,0.606384765124,False,-1,stimulus_HACA03_Yes-No Task_2019_Jun_28_1418_464,-1,True,2019_Jun_28_1418,Yes-No Task,3,HACA03,
Yes-No Task,14,0,14,0,5.7,-1,Correct Rejection,0.534443976125,False,-1,stimulus_HACA03_Yes-No Task_2019_Jun_28_1418_465,-1,True,2019_Jun_28_1418,Yes-No Task,3,HACA03,
Yes-No Task,15,0,15,0,5.7,-1,Correct Rejection,0.53742209333,False,-1,stimulus_HACA03_Yes-No Task_2019_Jun_28_1418_466,-1,True,2019_Jun_28_1418,Yes-No Task,3,HACA03,
Yes-No Task,16,0,16,0,7.8,-1,Hit,0.569018711569,True,-1,stimulus_HACA03_Yes-No Task_2019_Jun_28_1418_467,-1,True,2019_Jun_28_1418,Yes-No Task,3,HACA03,
Yes-No Task,17,0,17,0,11.1,-1,False Alarm,0.467307012528,False,-1,stimulus_HACA03_Yes-No Task_2019_Jun_28_1418_468,-1,True,2019_Jun_28_1418,Yes-No Task,3,HACA03,
Yes-No Task,18,0,18,0,11.1,-1,Hit,0.367502310313,True,-1,stimulus_HACA03_Yes-No Task_2019_Jun_28_1418_469,-1,True,2019_Jun_28_1418,Yes-No Task,3,HACA03,
Yes-No Task,19,0,19,0,11.1,-1,Correct Rejection,0.467404722935,False,-1,stimulus_HACA03_Yes-No Task_2019_Jun_28_1418_470,-1,True,2019_Jun_28_1418,Yes-No Task,3,HACA03,
Yes-No Task,20,0,20,0,6.7,-1,Miss,0.526226851624,True,-1,stimulus_HACA03_Yes-No Task_2019_Jun_28_1418_471,-1,True,2019_Jun_28_1418,Yes-No Task,3,HACA03,
Yes-No Task,21,0,21,0,7.8,-1,False Alarm,0.532032004558,False,-1,stimulus_HACA03_Yes-No Task_2019_Jun_28_1418_472,-1,True,2019_Jun_28_1418,Yes-No Task,3,HACA03,
Yes-No Task,22,0,22,0,2.7,-1,Hit,0.505283551291,True,-1,stimulus_HACA03_Yes-No Task_2019_Jun_28_1418_473,-1,True,2019_Jun_28_1418,Yes-No Task,3,HACA03,
Yes-No Task,23,0,23,0,7.8,-1,Correct Rejection,0.534147970611,False,-1,stimulus_HACA03_Yes-No Task_2019_Jun_28_1418_474,-1,True,2019_Jun_28_1418,Yes-No Task,3,HACA03,
Yes-No Task,24,0,24,0,9.8,-1,Hit,0.602677513845,True,-1,stimulus_HACA03_Yes-No Task_2019_Jun_28_1418_475,-1,True,2019_Jun_28_1418,Yes-No Task,3,HACA03,
Yes-No Task,25,0,25,0,8.8,-1,Correct Rejection,0.634177653352,False,-1,stimulus_HACA03_Yes-No Task_2019_Jun_28_1418_476,-1,True,2019_Jun_28_1418,Yes-No Task,3,HACA03,
Yes-No Task,26,0,26,0,5.7,-1,Correct Rejection,0.567528831773,False,-1,stimulus_HACA03_Yes-No Task_2019_Jun_28_1418_477,-1,True,2019_Jun_28_1418,Yes-No Task,3,HACA03,
Yes-No Task,27,0,27,0,8.8,-1,Correct Rejection,0.500757256523,False,-1,stimulus_HACA03_Yes-No Task_2019_Jun_28_1418_478,-1,True,2019_Jun_28_1418,Yes-No Task,3,HACA03,
Yes-No Task,28,0,28,0,7.8,-1,Hit,0.534473945852,True,-1,stimulus_HACA03_Yes-No Task_2019_Jun_28_1418_479,-1,True,2019_Jun_28_1418,Yes-No Task,3,HACA03,
Yes-No Task,29,0,29,0,5.7,-1,Hit,0.501901454525,True,-1,stimulus_HACA03_Yes-No Task_2019_Jun_28_1418_480,-1,True,2019_Jun_28_1418,Yes-No Task,3,HACA03,
Yes-No Task,30,0,30,0,9.8,-1,Correct Rejection,0.401246096008,False,-1,stimulus_HACA03_Yes-No Task_2019_Jun_28_1418_481,-1,True,2019_Jun_28_1418,Yes-No Task,3,HACA03,
Yes-No Task,31,0,31,0,8.8,-1,Hit,0.434271422448,True,-1,stimulus_HACA03_Yes-No Task_2019_Jun_28_1418_482,-1,True,2019_Jun_28_1418,Yes-No Task,3,HACA03,
Yes-No Task,32,0,32,0,9.8,-1,Hit,0.466796700843,True,-1,stimulus_HACA03_Yes-No Task_2019_Jun_28_1418_483,-1,True,2019_Jun_28_1418,Yes-No Task,3,HACA03,
Yes-No Task,33,0,33,0,5.7,-1,Correct Rejection,0.434368722606,False,-1,stimulus_HACA03_Yes-No Task_2019_Jun_28_1418_484,-1,True,2019_Jun_28_1418,Yes-No Task,3,HACA03,
Yes-No Task,34,0,34,0,6.7,-1,Hit,0.497850574553,True,-1,stimulus_HACA03_Yes-No Task_2019_Jun_28_1418_485,-1,True,2019_Jun_28_1418,Yes-No Task,3,HACA03,
Yes-No Task,35,0,35,0,9.8,-1,Correct Rejection,0.36651904718,False,-1,stimulus_HACA03_Yes-No Task_2019_Jun_28_1418_486,-1,True,2019_Jun_28_1418,Yes-No Task,3,HACA03,
Yes-No Task,36,0,36,0,9.8,-1,Hit,0.432854209794,True,-1,stimulus_HACA03_Yes-No Task_2019_Jun_28_1418_487,-1,True,2019_Jun_28_1418,Yes-No Task,3,HACA03,
Yes-No Task,37,0,37,0,4.4,-1,Correct Rejection,0.423671065364,False,-1,stimulus_HACA03_Yes-No Task_2019_Jun_28_1418_488,-1,True,2019_Jun_28_1418,Yes-No Task,3,HACA03,
Yes-No Task,38,0,38,0,8.8,-1,Correct Rejection,0.536566921277,False,-1,stimulus_HACA03_Yes-No Task_2019_Jun_28_1418_489,-1,True,2019_Jun_28_1418,Yes-No Task,3,HACA03,
Yes-No Task,39,0,39,0,5.7,-1,Hit,0.535040913383,True,-1,stimulus_HACA03_Yes-No Task_2019_Jun_28_1418_490,-1,True,2019_Jun_28_1418,Yes-No Task,3,HACA03,
Yes-No Task,40,0,40,0,5.7,-1,Correct Rejection,0.438164241379,False,-1,stimulus_HACA03_Yes-No Task_2019_Jun_28_1418_491,-1,True,2019_Jun_28_1418,Yes-No Task,3,HACA03,
Yes-No Task,41,0,41,0,9.8,-1,Hit,0.466548319208,True,-1,stimulus_HACA03_Yes-No Task_2019_Jun_28_1418_492,-1,True,2019_Jun_28_1418,Yes-No Task,3,HACA03,
Yes-No Task,42,0,42,0,6.7,-1,Hit,0.535641134949,True,-1,stimulus_HACA03_Yes-No Task_2019_Jun_28_1418_493,-1,True,2019_Jun_28_1418,Yes-No Task,3,HACA03,
Yes-No Task,43,0,43,0,9.8,-1,Correct Rejection,0.434863022761,False,-1,stimulus_HACA03_Yes-No Task_2019_Jun_28_1418_494,-1,True,2019_Jun_28_1418,Yes-No Task,3,HACA03,
Yes-No Task,44,0,44,0,9.8,-1,Correct Rejection,0.409675063333,False,-1,stimulus_HACA03_Yes-No Task_2019_Jun_28_1418_495,-1,True,2019_Jun_28_1418,Yes-No Task,3,HACA03,
Yes-No Task,45,0,45,0,8.8,-1,Correct Rejection,0.466001058463,False,-1,stimulus_HACA03_Yes-No Task_2019_Jun_28_1418_496,-1,True,2019_Jun_28_1418,Yes-No Task,3,HACA03,
Yes-No Task,46,0,46,0,2.7,-1,Miss,0.534723148914,True,-1,stimulus_HACA03_Yes-No Task_2019_Jun_28_1418_497,-1,True,2019_Jun_28_1418,Yes-No Task,3,HACA03,
Yes-No Task,47,0,47,0,5.7,-1,False Alarm,0.471678941511,False,-1,stimulus_HACA03_Yes-No Task_2019_Jun_28_1418_498,-1,True,2019_Jun_28_1418,Yes-No Task,3,HACA03,
Yes-No Task,48,0,48,0,4.4,-1,Miss,0.434198345058,True,-1,stimulus_HACA03_Yes-No Task_2019_Jun_28_1418_499,-1,True,2019_Jun_28_1418,Yes-No Task,3,HACA03,
Yes-No Task,49,0,49,0,7.8,-1,Correct Rejection,0.501031502383,False,-1,stimulus_HACA03_Yes-No Task_2019_Jun_28_1418_500,-1,True,2019_Jun_28_1418,Yes-No Task,3,HACA03,
Yes-No Task,50,0,50,0,11.1,-1,Hit,0.46773767774,True,-1,stimulus_HACA03_Yes-No Task_2019_Jun_28_1418_501,-1,True,2019_Jun_28_1418,Yes-No Task,3,HACA03,
Yes-No Task,51,0,51,0,5.7,-1,Miss,0.435400430346,True,-1,stimulus_HACA03_Yes-No Task_2019_Jun_28_1418_502,-1,True,2019_Jun_28_1418,Yes-No Task,3,HACA03,
Yes-No Task,52,0,52,0,8.8,-1,Hit,0.466719107237,True,-1,stimulus_HACA03_Yes-No Task_2019_Jun_28_1418_503,-1,True,2019_Jun_28_1418,Yes-No Task,3,HACA03,
Yes-No Task,53,0,53,0,9.8,-1,Hit,0.363497001119,True,-1,stimulus_HACA03_Yes-No Task_2019_Jun_28_1418_504,-1,True,2019_Jun_28_1418,Yes-No Task,3,HACA03,
Yes-No Task,54,0,54,0,8.8,-1,Hit,0.502587480703,True,-1,stimulus_HACA03_Yes-No Task_2019_Jun_28_1418_505,-1,True,2019_Jun_28_1418,Yes-No Task,3,HACA03,
Yes-No Task,55,0,55,0,11.1,-1,Hit,0.434339984087,True,-1,stimulus_HACA03_Yes-No Task_2019_Jun_28_1418_506,-1,True,2019_Jun_28_1418,Yes-No Task,3,HACA03,
Yes-No Task,56,0,56,0,6.7,-1,False Alarm,0.403816539096,False,-1,stimulus_HACA03_Yes-No Task_2019_Jun_28_1418_507,-1,True,2019_Jun_28_1418,Yes-No Task,3,HACA03,
Yes-No Task,57,0,57,0,11.1,-1,Hit,0.399468832649,True,-1,stimulus_HACA03_Yes-No Task_2019_Jun_28_1418_508,-1,True,2019_Jun_28_1418,Yes-No Task,3,HACA03,
Yes-No Task,58,0,58,0,2.7,-1,Correct Rejection,0.435618020827,False,-1,stimulus_HACA03_Yes-No Task_2019_Jun_28_1418_509,-1,True,2019_Jun_28_1418,Yes-No Task,3,HACA03,
Yes-No Task,59,0,59,0,8.8,-1,Hit,0.466310611926,True,-1,stimulus_HACA03_Yes-No Task_2019_Jun_28_1418_510,-1,True,2019_Jun_28_1418,Yes-No Task,3,HACA03,
Yes-No Task,60,0,60,0,11.1,-1,Correct Rejection,0.46601665928,False,-1,stimulus_HACA03_Yes-No Task_2019_Jun_28_1418_511,-1,True,2019_Jun_28_1418,Yes-No Task,3,HACA03,
Yes-No Task,61,0,61,0,7.8,-1,Correct Rejection,0.468140836339,False,-1,stimulus_HACA03_Yes-No Task_2019_Jun_28_1418_512,-1,True,2019_Jun_28_1418,Yes-No Task,3,HACA03,
Yes-No Task,62,0,62,0,9.8,-1,Correct Rejection,0.567514462629,False,-1,stimulus_HACA03_Yes-No Task_2019_Jun_28_1418_513,-1,True,2019_Jun_28_1418,Yes-No Task,3,HACA03,
Yes-No Task,63,0,63,0,11.1,-1,Correct Rejection,0.535619786242,False,-1,stimulus_HACA03_Yes-No Task_2019_Jun_28_1418_514,-1,True,2019_Jun_28_1418,Yes-No Task,3,HACA03,
Yes-No Task,64,0,64,0,8.8,-1,Hit,0.43529327726,True,-1,stimulus_HACA03_Yes-No Task_2019_Jun_28_1418_515,-1,True,2019_Jun_28_1418,Yes-No Task,3,HACA03,
Yes-No Task,65,0,65,0,5.7,-1,Hit,0.568469808437,True,-1,stimulus_HACA03_Yes-No Task_2019_Jun_28_1418_516,-1,True,2019_Jun_28_1418,Yes-No Task,3,HACA03,
Yes-No Task,66,0,66,0,5.7,-1,Hit,0.500975257484,True,-1,stimulus_HACA03_Yes-No Task_2019_Jun_28_1418_517,-1,True,2019_Jun_28_1418,Yes-No Task,3,HACA03,
Yes-No Task,67,0,67,0,8.8,-1,Correct Rejection,0.467496685917,False,-1,stimulus_HACA03_Yes-No Task_2019_Jun_28_1418_518,-1,True,2019_Jun_28_1418,Yes-No Task,3,HACA03,
Yes-No Task,68,0,68,0,2.7,-1,Correct Rejection,0.530831561424,False,-1,stimulus_HACA03_Yes-No Task_2019_Jun_28_1418_519,-1,True,2019_Jun_28_1418,Yes-No Task,3,HACA03,
Yes-No Task,69,0,69,0,8.8,-1,Correct Rejection,0.468205292244,False,-1,stimulus_HACA03_Yes-No Task_2019_Jun_28_1418_520,-1,True,2019_Jun_28_1418,Yes-No Task,3,HACA03,
Yes-No Task,70,0,70,0,5.7,-1,Miss,0.559524371522,True,-1,stimulus_HACA03_Yes-No Task_2019_Jun_28_1418_521,-1,True,2019_Jun_28_1418,Yes-No Task,3,HACA03,
Yes-No Task,71,0,71,0,8.8,-1,Hit,0.499737043865,True,-1,stimulus_HACA03_Yes-No Task_2019_Jun_28_1418_522,-1,True,2019_Jun_28_1418,Yes-No Task,3,HACA03,
Yes-No Task,72,0,72,0,4.4,-1,Correct Rejection,0.370526409242,False,-1,stimulus_HACA03_Yes-No Task_2019_Jun_28_1418_523,-1,True,2019_Jun_28_1418,Yes-No Task,3,HACA03,
Yes-No Task,73,0,73,0,8.8,-1,Hit,0.509063058998,True,-1,stimulus_HACA03_Yes-No Task_2019_Jun_28_1418_524,-1,True,2019_Jun_28_1418,Yes-No Task,3,HACA03,
Yes-No Task,74,0,74,0,6.7,-1,Correct Rejection,0.400761238765,False,-1,stimulus_HACA03_Yes-No Task_2019_Jun_28_1418_525,-1,True,2019_Jun_28_1418,Yes-No Task,3,HACA03,
Yes-No Task,0,0,0,0,9.8,-1,Miss,0.570170299616,True,-1,stimulus_HACA03_Yes-No Task_2019_Jun_28_1418_526,-1,True,2019_Jun_28_1418,Yes-No Task,3,HACA03,
Yes-No Task,1,0,1,0,2.7,-1,Miss,0.501663336297,True,-1,stimulus_HACA03_Yes-No Task_2019_Jun_28_1418_527,-1,True,2019_Jun_28_1418,Yes-No Task,3,HACA03,
Yes-No Task,2,0,2,0,9.8,-1,Correct Rejection,0.565954789519,False,-1,stimulus_HACA03_Yes-No Task_2019_Jun_28_1418_528,-1,True,2019_Jun_28_1418,Yes-No Task,3,HACA03,
Yes-No Task,3,0,3,0,9.8,-1,Correct Rejection,0.567383497721,False,-1,stimulus_HACA03_Yes-No Task_2019_Jun_28_1418_529,-1,True,2019_Jun_28_1418,Yes-No Task,3,HACA03,
Yes-No Task,4,0,4,0,7.8,-1,Hit,0.500712506706,True,-1,stimulus_HACA03_Yes-No Task_2019_Jun_28_1418_530,-1,True,2019_Jun_28_1418,Yes-No Task,3,HACA03,
Yes-No Task,5,0,5,0,4.4,-1,Hit,0.46756032086,True,-1,stimulus_HACA03_Yes-No Task_2019_Jun_28_1418_531,-1,True,2019_Jun_28_1418,Yes-No Task,3,HACA03,
Yes-No Task,6,0,6,0,2.7,-1,Miss,0.468835483771,True,-1,stimulus_HACA03_Yes-No Task_2019_Jun_28_1418_532,-1,True,2019_Jun_28_1418,Yes-No Task,3,HACA03,
Yes-No Task,7,0,7,0,5.7,-1,Correct Rejection,0.534274009056,False,-1,stimulus_HACA03_Yes-No Task_2019_Jun_28_1418_533,-1,True,2019_Jun_28_1418,Yes-No Task,3,HACA03,
Yes-No Task,8,0,8,0,9.8,-1,Hit,0.500725233695,True,-1,stimulus_HACA03_Yes-No Task_2019_Jun_28_1418_534,-1,True,2019_Jun_28_1418,Yes-No Task,3,HACA03,
Yes-No Task,9,0,9,0,2.7,-1,Miss,0.533188519301,True,-1,stimulus_HACA03_Yes-No Task_2019_Jun_28_1418_535,-1,True,2019_Jun_28_1418,Yes-No Task,3,HACA03,
Yes-No Task,10,0,10,0,4.4,-1,Correct Rejection,0.534315474331,False,-1,stimulus_HACA03_Yes-No Task_2019_Jun_28_1418_536,-1,True,2019_Jun_28_1418,Yes-No Task,3,HACA03,
Yes-No Task,11,0,11,0,8.8,-1,Hit,0.567492703442,True,-1,stimulus_HACA03_Yes-No Task_2019_Jun_28_1418_537,-1,True,2019_Jun_28_1418,Yes-No Task,3,HACA03,
Yes-No Task,12,0,12,0,9.8,-1,Correct Rejection,0.604486800265,False,-1,stimulus_HACA03_Yes-No Task_2019_Jun_28_1418_538,-1,True,2019_Jun_28_1418,Yes-No Task,3,HACA03,
Yes-No Task,13,0,13,0,9.8,-1,False Alarm,0.668663299875,False,-1,stimulus_HACA03_Yes-No Task_2019_Jun_28_1418_539,-1,True,2019_Jun_28_1418,Yes-No Task,3,HACA03,
Yes-No Task,14,0,14,0,5.7,-1,Hit,0.565928925062,True,-1,stimulus_HACA03_Yes-No Task_2019_Jun_28_1418_540,-1,True,2019_Jun_28_1418,Yes-No Task,3,HACA03,
Yes-No Task,15,0,15,0,7.8,-1,Hit,0.47237194702,True,-1,stimulus_HACA03_Yes-No Task_2019_Jun_28_1418_541,-1,True,2019_Jun_28_1418,Yes-No Task,3,HACA03,
Yes-No Task,16,0,16,0,2.7,-1,Miss,0.533918474102,True,-1,stimulus_HACA03_Yes-No Task_2019_Jun_28_1418_542,-1,True,2019_Jun_28_1418,Yes-No Task,3,HACA03,
Yes-No Task,17,0,17,0,6.7,-1,Correct Rejection,0.6010665223,False,-1,stimulus_HACA03_Yes-No Task_2019_Jun_28_1418_543,-1,True,2019_Jun_28_1418,Yes-No Task,3,HACA03,
Yes-No Task,18,0,18,0,6.7,-1,False Alarm,0.601987382164,False,-1,stimulus_HACA03_Yes-No Task_2019_Jun_28_1418_544,-1,True,2019_Jun_28_1418,Yes-No Task,3,HACA03,
Yes-No Task,19,0,19,0,7.8,-1,Correct Rejection,0.567525957944,False,-1,stimulus_HACA03_Yes-No Task_2019_Jun_28_1418_545,-1,True,2019_Jun_28_1418,Yes-No Task,3,HACA03,
Yes-No Task,20,0,20,0,4.4,-1,Correct Rejection,0.633979768958,False,-1,stimulus_HACA03_Yes-No Task_2019_Jun_28_1418_546,-1,True,2019_Jun_28_1418,Yes-No Task,3,HACA03,
Yes-No Task,21,0,21,0,2.7,-1,False Alarm,0.70218292647,False,-1,stimulus_HACA03_Yes-No Task_2019_Jun_28_1418_547,-1,True,2019_Jun_28_1418,Yes-No Task,3,HACA03,
Yes-No Task,22,0,22,0,2.7,-1,Correct Rejection,0.592947108671,False,-1,stimulus_HACA03_Yes-No Task_2019_Jun_28_1418_548,-1,True,2019_Jun_28_1418,Yes-No Task,3,HACA03,
Yes-No Task,23,0,23,0,11.1,-1,Hit,0.634198591113,True,-1,stimulus_HACA03_Yes-No Task_2019_Jun_28_1418_549,-1,True,2019_Jun_28_1418,Yes-No Task,3,HACA03,
Yes-No Task,24,0,24,0,8.8,-1,Hit,0.567637627013,True,-1,stimulus_HACA03_Yes-No Task_2019_Jun_28_1418_550,-1,True,2019_Jun_28_1418,Yes-No Task,3,HACA03,
Yes-No Task,25,0,25,0,4.4,-1,Miss,0.599081521388,True,-1,stimulus_HACA03_Yes-No Task_2019_Jun_28_1418_551,-1,True,2019_Jun_28_1418,Yes-No Task,3,HACA03,
Yes-No Task,26,0,26,0,11.1,-1,Hit,0.467400617432,True,-1,stimulus_HACA03_Yes-No Task_2019_Jun_28_1418_552,-1,True,2019_Jun_28_1418,Yes-No Task,3,HACA03,
Yes-No Task,27,0,27,0,2.7,-1,Miss,0.467852220638,True,-1,stimulus_HACA03_Yes-No Task_2019_Jun_28_1418_553,-1,True,2019_Jun_28_1418,Yes-No Task,3,HACA03,
Yes-No Task,28,0,28,0,6.7,-1,Hit,0.534675935749,True,-1,stimulus_HACA03_Yes-No Task_2019_Jun_28_1418_554,-1,True,2019_Jun_28_1418,Yes-No Task,3,HACA03,
Yes-No Task,29,0,29,0,7.8,-1,Miss,0.667634876445,True,-1,stimulus_HACA03_Yes-No Task_2019_Jun_28_1418_555,-1,True,2019_Jun_28_1418,Yes-No Task,3,HACA03,
Yes-No Task,30,0,30,0,9.8,-1,Hit,0.467580848141,True,-1,stimulus_HACA03_Yes-No Task_2019_Jun_28_1418_556,-1,True,2019_Jun_28_1418,Yes-No Task,3,HACA03,
Yes-No Task,31,0,31,0,7.8,-1,Miss,0.60020601307,True,-1,stimulus_HACA03_Yes-No Task_2019_Jun_28_1418_557,-1,True,2019_Jun_28_1418,Yes-No Task,3,HACA03,
Yes-No Task,32,0,32,0,11.1,-1,Correct Rejection,0.701004242292,False,-1,stimulus_HACA03_Yes-No Task_2019_Jun_28_1418_558,-1,True,2019_Jun_28_1418,Yes-No Task,3,HACA03,
Yes-No Task,33,0,33,0,4.4,-1,Hit,0.531827962259,True,-1,stimulus_HACA03_Yes-No Task_2019_Jun_28_1418_559,-1,True,2019_Jun_28_1418,Yes-No Task,3,HACA03,
Yes-No Task,34,0,34,0,7.8,-1,False Alarm,0.701124532847,False,-1,stimulus_HACA03_Yes-No Task_2019_Jun_28_1418_560,-1,True,2019_Jun_28_1418,Yes-No Task,3,HACA03,
Yes-No Task,35,0,35,0,7.8,-1,Hit,0.501022470649,True,-1,stimulus_HACA03_Yes-No Task_2019_Jun_28_1418_561,-1,True,2019_Jun_28_1418,Yes-No Task,3,HACA03,
Yes-No Task,36,0,36,0,8.8,-1,Hit,0.568114273716,True,-1,stimulus_HACA03_Yes-No Task_2019_Jun_28_1418_562,-1,True,2019_Jun_28_1418,Yes-No Task,3,HACA03,
Yes-No Task,37,0,37,0,11.1,-1,Hit,0.667162745958,True,-1,stimulus_HACA03_Yes-No Task_2019_Jun_28_1418_563,-1,True,2019_Jun_28_1418,Yes-No Task,3,HACA03,
Yes-No Task,38,0,38,0,5.7,-1,Hit,0.635038573062,True,-1,stimulus_HACA03_Yes-No Task_2019_Jun_28_1418_564,-1,True,2019_Jun_28_1418,Yes-No Task,3,HACA03,
Yes-No Task,39,0,39,0,8.8,-1,Correct Rejection,0.569090557517,False,-1,stimulus_HACA03_Yes-No Task_2019_Jun_28_1418_565,-1,True,2019_Jun_28_1418,Yes-No Task,3,HACA03,
Yes-No Task,40,0,40,0,11.1,-1,Correct Rejection,0.567142095417,False,-1,stimulus_HACA03_Yes-No Task_2019_Jun_28_1418_566,-1,True,2019_Jun_28_1418,Yes-No Task,3,HACA03,
Yes-No Task,41,0,41,0,9.8,-1,Hit,0.600575096207,True,-1,stimulus_HACA03_Yes-No Task_2019_Jun_28_1418_567,-1,True,2019_Jun_28_1418,Yes-No Task,3,HACA03,
Yes-No Task,42,0,42,0,11.1,-1,Correct Rejection,0.60005780519,False,-1,stimulus_HACA03_Yes-No Task_2019_Jun_28_1418_568,-1,True,2019_Jun_28_1418,Yes-No Task,3,HACA03,
Yes-No Task,43,0,43,0,5.7,-1,Correct Rejection,0.666093677981,False,-1,stimulus_HACA03_Yes-No Task_2019_Jun_28_1418_569,-1,True,2019_Jun_28_1418,Yes-No Task,3,HACA03,
Yes-No Task,44,0,44,0,6.7,-1,Correct Rejection,0.734524279367,False,-1,stimulus_HACA03_Yes-No Task_2019_Jun_28_1418_570,-1,True,2019_Jun_28_1418,Yes-No Task,3,HACA03,
Yes-No Task,45,0,45,0,11.1,-1,Correct Rejection,0.733118561795,False,-1,stimulus_HACA03_Yes-No Task_2019_Jun_28_1418_571,-1,True,2019_Jun_28_1418,Yes-No Task,3,HACA03,
Yes-No Task,46,0,46,0,8.8,-1,Correct Rejection,0.633574557723,False,-1,stimulus_HACA03_Yes-No Task_2019_Jun_28_1418_572,-1,True,2019_Jun_28_1418,Yes-No Task,3,HACA03,
Yes-No Task,47,0,47,0,11.1,-1,Hit,0.533041953575,True,-1,stimulus_HACA03_Yes-No Task_2019_Jun_28_1418_573,-1,True,2019_Jun_28_1418,Yes-No Task,3,HACA03,
Yes-No Task,48,0,48,0,7.8,-1,Correct Rejection,0.568613500567,False,-1,stimulus_HACA03_Yes-No Task_2019_Jun_28_1418_574,-1,True,2019_Jun_28_1418,Yes-No Task,3,HACA03,
Yes-No Task,49,0,49,0,4.4,-1,Miss,0.63312213379,True,-1,stimulus_HACA03_Yes-No Task_2019_Jun_28_1418_575,-1,True,2019_Jun_28_1418,Yes-No Task,3,HACA03,
Yes-No Task,50,0,50,0,9.8,-1,Correct Rejection,0.567409772892,False,-1,stimulus_HACA03_Yes-No Task_2019_Jun_28_1418_576,-1,True,2019_Jun_28_1418,Yes-No Task,3,HACA03,
Yes-No Task,51,0,51,0,8.8,-1,Hit,0.568381951191,True,-1,stimulus_HACA03_Yes-No Task_2019_Jun_28_1418_577,-1,True,2019_Jun_28_1418,Yes-No Task,3,HACA03,
Yes-No Task,52,0,52,0,5.7,-1,Correct Rejection,0.568824932911,False,-1,stimulus_HACA03_Yes-No Task_2019_Jun_28_1418_578,-1,True,2019_Jun_28_1418,Yes-No Task,3,HACA03,
Yes-No Task,53,0,53,0,4.4,-1,Miss,0.600748347351,True,-1,stimulus_HACA03_Yes-No Task_2019_Jun_28_1418_579,-1,True,2019_Jun_28_1418,Yes-No Task,3,HACA03,
Yes-No Task,54,0,54,0,6.7,-1,Hit,0.568736254238,True,-1,stimulus_HACA03_Yes-No Task_2019_Jun_28_1418_580,-1,True,2019_Jun_28_1418,Yes-No Task,3,HACA03,
Yes-No Task,55,0,55,0,2.7,-1,Miss,0.63492238801,True,-1,stimulus_HACA03_Yes-No Task_2019_Jun_28_1418_581,-1,True,2019_Jun_28_1418,Yes-No Task,3,HACA03,
Yes-No Task,56,0,56,0,2.7,-1,Correct Rejection,0.634457236622,False,-1,stimulus_HACA03_Yes-No Task_2019_Jun_28_1418_582,-1,True,2019_Jun_28_1418,Yes-No Task,3,HACA03,
Yes-No Task,57,0,57,0,4.4,-1,Correct Rejection,0.634102933342,False,-1,stimulus_HACA03_Yes-No Task_2019_Jun_28_1418_583,-1,True,2019_Jun_28_1418,Yes-No Task,3,HACA03,
Yes-No Task,58,0,58,0,4.4,-1,Hit,0.705592529848,True,-1,stimulus_HACA03_Yes-No Task_2019_Jun_28_1418_584,-1,True,2019_Jun_28_1418,Yes-No Task,3,HACA03,
Yes-No Task,59,0,59,0,5.7,-1,Hit,0.571125234943,True,-1,stimulus_HACA03_Yes-No Task_2019_Jun_28_1418_585,-1,True,2019_Jun_28_1418,Yes-No Task,3,HACA03,
Yes-No Task,60,0,60,0,2.7,-1,Correct Rejection,0.66726825689,False,-1,stimulus_HACA03_Yes-No Task_2019_Jun_28_1418_586,-1,True,2019_Jun_28_1418,Yes-No Task,3,HACA03,
Yes-No Task,61,0,61,0,7.8,-1,Hit,0.533698830754,True,-1,stimulus_HACA03_Yes-No Task_2019_Jun_28_1418_587,-1,True,2019_Jun_28_1418,Yes-No Task,3,HACA03,
Yes-No Task,62,0,62,0,4.4,-1,Correct Rejection,0.63352652383,False,-1,stimulus_HACA03_Yes-No Task_2019_Jun_28_1418_588,-1,True,2019_Jun_28_1418,Yes-No Task,3,HACA03,
Yes-No Task,63,0,63,0,4.4,-1,Miss,0.734754186356,True,-1,stimulus_HACA03_Yes-No Task_2019_Jun_28_1418_589,-1,True,2019_Jun_28_1418,Yes-No Task,3,HACA03,
Yes-No Task,64,0,64,0,2.7,-1,Miss,0.595490044914,True,-1,stimulus_HACA03_Yes-No Task_2019_Jun_28_1418_590,-1,True,2019_Jun_28_1418,Yes-No Task,3,HACA03,
Yes-No Task,65,0,65,0,11.1,-1,Hit,0.534192309715,True,-1,stimulus_HACA03_Yes-No Task_2019_Jun_28_1418_591,-1,True,2019_Jun_28_1418,Yes-No Task,3,HACA03,
Yes-No Task,66,0,66,0,7.8,-1,Correct Rejection,0.50242531416,False,-1,stimulus_HACA03_Yes-No Task_2019_Jun_28_1418_592,-1,True,2019_Jun_28_1418,Yes-No Task,3,HACA03,
Yes-No Task,67,0,67,0,11.1,-1,Hit,0.565876785433,True,-1,stimulus_HACA03_Yes-No Task_2019_Jun_28_1418_593,-1,True,2019_Jun_28_1418,Yes-No Task,3,HACA03,
Yes-No Task,68,0,68,0,5.7,-1,Miss,0.567627774086,True,-1,stimulus_HACA03_Yes-No Task_2019_Jun_28_1418_594,-1,True,2019_Jun_28_1418,Yes-No Task,3,HACA03,
Yes-No Task,69,0,69,0,11.1,-1,Correct Rejection,0.637154949596,False,-1,stimulus_HACA03_Yes-No Task_2019_Jun_28_1418_595,-1,True,2019_Jun_28_1418,Yes-No Task,3,HACA03,
Yes-No Task,70,0,70,0,9.8,-1,Hit,0.533796541393,True,-1,stimulus_HACA03_Yes-No Task_2019_Jun_28_1418_596,-1,True,2019_Jun_28_1418,Yes-No Task,3,HACA03,
Yes-No Task,71,0,71,0,6.7,-1,Correct Rejection,0.570317275822,False,-1,stimulus_HACA03_Yes-No Task_2019_Jun_28_1418_597,-1,True,2019_Jun_28_1418,Yes-No Task,3,HACA03,
Yes-No Task,72,0,72,0,2.7,-1,Correct Rejection,0.668772095116,False,-1,stimulus_HACA03_Yes-No Task_2019_Jun_28_1418_598,-1,True,2019_Jun_28_1418,Yes-No Task,3,HACA03,
Yes-No Task,73,0,73,0,8.8,-1,Correct Rejection,0.601990255993,False,-1,stimulus_HACA03_Yes-No Task_2019_Jun_28_1418_599,-1,True,2019_Jun_28_1418,Yes-No Task,3,HACA03,
Yes-No Task,74,0,74,0,6.7,-1,Hit,0.567596161738,True,-1,stimulus_HACA03_Yes-No Task_2019_Jun_28_1418_600,-1,True,2019_Jun_28_1418,Yes-No Task,3,HACA03,
