Task,trials.thisRepN,trials.thisTrialN,trials.thisN,trials.thisIndex,signal_intensity,constant Value,response,time_response,signal_on_stimuluspos1,signal_on_stimuluspos2,stimulus_name_pos1,stimulus_name_pos2,random_intensity,date,expName,session,participant,
2IFC,0,0,0,0,11.1,-1,correct answer,0.400811800035,True,False,stimulusHACA03_2IFC_2019_Jul_03_1402_1,stimulusHACA03_2IFC_2019_Jul_03_1402_2,False,2019_Jul_03_1402,2IFC,3,HACA03,
2IFC,1,0,1,0,11.1,-1,correct answer,0.401012799935,False,True,stimulusHACA03_2IFC_2019_Jul_03_1402_3,stimulusHACA03_2IFC_2019_Jul_03_1402_4,False,2019_Jul_03_1402,2IFC,3,HACA03,
2IFC,2,0,2,0,11.1,-1,correct answer,0.300185299944,True,False,stimulusHACA03_2IFC_2019_Jul_03_1402_5,stimulusHACA03_2IFC_2019_Jul_03_1402_6,False,2019_Jul_03_1402,2IFC,3,HACA03,
2IFC,3,0,3,0,11.1,-1,correct answer,0.267370500136,True,False,stimulusHACA03_2IFC_2019_Jul_03_1402_7,stimulusHACA03_2IFC_2019_Jul_03_1402_8,False,2019_Jul_03_1402,2IFC,3,HACA03,
2IFC,4,0,4,0,11.1,-1,correct answer,0.266863000114,True,False,stimulusHACA03_2IFC_2019_Jul_03_1402_9,stimulusHACA03_2IFC_2019_Jul_03_1402_10,False,2019_Jul_03_1402,2IFC,3,HACA03,
2IFC,5,0,5,0,11.1,-1,correct answer,0.400810800027,False,True,stimulusHACA03_2IFC_2019_Jul_03_1402_11,stimulusHACA03_2IFC_2019_Jul_03_1402_12,False,2019_Jul_03_1402,2IFC,3,HACA03,
2IFC,6,0,6,0,11.1,-1,correct answer,0.233823500108,True,False,stimulusHACA03_2IFC_2019_Jul_03_1402_13,stimulusHACA03_2IFC_2019_Jul_03_1402_14,False,2019_Jul_03_1402,2IFC,3,HACA03,
2IFC,7,0,7,0,11.1,-1,correct answer,0.234163300134,True,False,stimulusHACA03_2IFC_2019_Jul_03_1402_15,stimulusHACA03_2IFC_2019_Jul_03_1402_16,False,2019_Jul_03_1402,2IFC,3,HACA03,
2IFC,8,0,8,0,11.1,-1,correct answer,0.268044000026,True,False,stimulusHACA03_2IFC_2019_Jul_03_1402_17,stimulusHACA03_2IFC_2019_Jul_03_1402_18,False,2019_Jul_03_1402,2IFC,3,HACA03,
2IFC,9,0,9,0,11.1,-1,correct answer,0.200332500041,True,False,stimulusHACA03_2IFC_2019_Jul_03_1402_19,stimulusHACA03_2IFC_2019_Jul_03_1402_20,False,2019_Jul_03_1402,2IFC,3,HACA03,
2IFC,10,0,10,0,11.1,-1,correct answer,0.433927400038,False,True,stimulusHACA03_2IFC_2019_Jul_03_1402_21,stimulusHACA03_2IFC_2019_Jul_03_1402_22,False,2019_Jul_03_1402,2IFC,3,HACA03,
2IFC,11,0,11,0,11.1,-1,correct answer,0.23402470001,True,False,stimulusHACA03_2IFC_2019_Jul_03_1402_23,stimulusHACA03_2IFC_2019_Jul_03_1402_24,False,2019_Jul_03_1402,2IFC,3,HACA03,
2IFC,12,0,12,0,11.1,-1,correct answer,0.500502600102,False,True,stimulusHACA03_2IFC_2019_Jul_03_1402_25,stimulusHACA03_2IFC_2019_Jul_03_1402_26,False,2019_Jul_03_1402,2IFC,3,HACA03,
2IFC,13,0,13,0,11.1,-1,correct answer,0.267999000149,True,False,stimulusHACA03_2IFC_2019_Jul_03_1402_27,stimulusHACA03_2IFC_2019_Jul_03_1402_28,False,2019_Jul_03_1402,2IFC,3,HACA03,
2IFC,14,0,14,0,11.1,-1,correct answer,0.233170799911,True,False,stimulusHACA03_2IFC_2019_Jul_03_1402_29,stimulusHACA03_2IFC_2019_Jul_03_1402_30,False,2019_Jul_03_1402,2IFC,3,HACA03,
2IFC,15,0,15,0,11.1,-1,correct answer,0.233659200137,True,False,stimulusHACA03_2IFC_2019_Jul_03_1402_31,stimulusHACA03_2IFC_2019_Jul_03_1402_32,False,2019_Jul_03_1402,2IFC,3,HACA03,
2IFC,16,0,16,0,11.1,-1,correct answer,0.200603799894,True,False,stimulusHACA03_2IFC_2019_Jul_03_1402_33,stimulusHACA03_2IFC_2019_Jul_03_1402_34,False,2019_Jul_03_1402,2IFC,3,HACA03,
2IFC,17,0,17,0,11.1,-1,correct answer,0.300672900164,False,True,stimulusHACA03_2IFC_2019_Jul_03_1402_35,stimulusHACA03_2IFC_2019_Jul_03_1402_36,False,2019_Jul_03_1402,2IFC,3,HACA03,
2IFC,18,0,18,0,11.1,-1,correct answer,0.0666218001861,True,False,stimulusHACA03_2IFC_2019_Jul_03_1402_37,stimulusHACA03_2IFC_2019_Jul_03_1402_38,False,2019_Jul_03_1402,2IFC,3,HACA03,
2IFC,19,0,19,0,11.1,-1,correct answer,0.133733399911,False,True,stimulusHACA03_2IFC_2019_Jul_03_1402_39,stimulusHACA03_2IFC_2019_Jul_03_1402_40,False,2019_Jul_03_1402,2IFC,3,HACA03,
2IFC,20,0,20,0,11.1,-1,correct answer,0.299719699891,False,True,stimulusHACA03_2IFC_2019_Jul_03_1402_41,stimulusHACA03_2IFC_2019_Jul_03_1402_42,False,2019_Jul_03_1402,2IFC,3,HACA03,
2IFC,21,0,21,0,11.1,-1,correct answer,0.234051999869,False,True,stimulusHACA03_2IFC_2019_Jul_03_1402_43,stimulusHACA03_2IFC_2019_Jul_03_1402_44,False,2019_Jul_03_1402,2IFC,3,HACA03,
2IFC,22,0,22,0,11.1,-1,correct answer,0.333761600079,False,True,stimulusHACA03_2IFC_2019_Jul_03_1402_45,stimulusHACA03_2IFC_2019_Jul_03_1402_46,False,2019_Jul_03_1402,2IFC,3,HACA03,
2IFC,23,0,23,0,11.1,-1,correct answer,0.132643999998,True,False,stimulusHACA03_2IFC_2019_Jul_03_1402_47,stimulusHACA03_2IFC_2019_Jul_03_1402_48,False,2019_Jul_03_1402,2IFC,3,HACA03,
2IFC,24,0,24,0,11.1,-1,correct answer,0.133864100091,True,False,stimulusHACA03_2IFC_2019_Jul_03_1402_49,stimulusHACA03_2IFC_2019_Jul_03_1402_50,False,2019_Jul_03_1402,2IFC,3,HACA03,
2IFC,25,0,25,0,11.1,-1,correct answer,0.234802699881,True,False,stimulusHACA03_2IFC_2019_Jul_03_1402_51,stimulusHACA03_2IFC_2019_Jul_03_1402_52,False,2019_Jul_03_1402,2IFC,3,HACA03,
2IFC,26,0,26,0,11.1,-1,correct answer,0.131883600028,True,False,stimulusHACA03_2IFC_2019_Jul_03_1402_53,stimulusHACA03_2IFC_2019_Jul_03_1402_54,False,2019_Jul_03_1402,2IFC,3,HACA03,
2IFC,27,0,27,0,11.1,-1,correct answer,0.300299399998,False,True,stimulusHACA03_2IFC_2019_Jul_03_1402_55,stimulusHACA03_2IFC_2019_Jul_03_1402_56,False,2019_Jul_03_1402,2IFC,3,HACA03,
2IFC,28,0,28,0,11.1,-1,correct answer,0.234374899883,False,True,stimulusHACA03_2IFC_2019_Jul_03_1402_57,stimulusHACA03_2IFC_2019_Jul_03_1402_58,False,2019_Jul_03_1402,2IFC,3,HACA03,
2IFC,29,0,29,0,11.1,-1,correct answer,0.0674046000931,True,False,stimulusHACA03_2IFC_2019_Jul_03_1402_59,stimulusHACA03_2IFC_2019_Jul_03_1402_60,False,2019_Jul_03_1402,2IFC,3,HACA03,
2IFC,30,0,30,0,11.1,-1,correct answer,0.200903600082,True,False,stimulusHACA03_2IFC_2019_Jul_03_1402_61,stimulusHACA03_2IFC_2019_Jul_03_1402_62,False,2019_Jul_03_1402,2IFC,3,HACA03,
2IFC,31,0,31,0,11.1,-1,correct answer,0.100065100007,False,True,stimulusHACA03_2IFC_2019_Jul_03_1402_63,stimulusHACA03_2IFC_2019_Jul_03_1402_64,False,2019_Jul_03_1402,2IFC,3,HACA03,
2IFC,32,0,32,0,11.1,-1,correct answer,0.0999793999363,False,True,stimulusHACA03_2IFC_2019_Jul_03_1402_65,stimulusHACA03_2IFC_2019_Jul_03_1402_66,False,2019_Jul_03_1402,2IFC,3,HACA03,
2IFC,33,0,33,0,11.1,-1,correct answer,0.100241000066,True,False,stimulusHACA03_2IFC_2019_Jul_03_1402_67,stimulusHACA03_2IFC_2019_Jul_03_1402_68,False,2019_Jul_03_1402,2IFC,3,HACA03,
2IFC,34,0,34,0,11.1,-1,correct answer,0.101370300166,False,True,stimulusHACA03_2IFC_2019_Jul_03_1402_69,stimulusHACA03_2IFC_2019_Jul_03_1402_70,False,2019_Jul_03_1402,2IFC,3,HACA03,
2IFC,35,0,35,0,11.1,-1,correct answer,0.567577700131,True,False,stimulusHACA03_2IFC_2019_Jul_03_1402_71,stimulusHACA03_2IFC_2019_Jul_03_1402_72,False,2019_Jul_03_1402,2IFC,3,HACA03,
2IFC,36,0,36,0,11.1,-1,correct answer,0.170592700131,True,False,stimulusHACA03_2IFC_2019_Jul_03_1402_73,stimulusHACA03_2IFC_2019_Jul_03_1402_74,False,2019_Jul_03_1402,2IFC,3,HACA03,
2IFC,37,0,37,0,11.1,-1,correct answer,0.200234599877,True,False,stimulusHACA03_2IFC_2019_Jul_03_1402_75,stimulusHACA03_2IFC_2019_Jul_03_1402_76,False,2019_Jul_03_1402,2IFC,3,HACA03,
2IFC,38,0,38,0,11.1,-1,correct answer,0.135418000165,False,True,stimulusHACA03_2IFC_2019_Jul_03_1402_77,stimulusHACA03_2IFC_2019_Jul_03_1402_78,False,2019_Jul_03_1402,2IFC,3,HACA03,
2IFC,39,0,39,0,11.1,-1,correct answer,0.13481050008,True,False,stimulusHACA03_2IFC_2019_Jul_03_1402_79,stimulusHACA03_2IFC_2019_Jul_03_1402_80,False,2019_Jul_03_1402,2IFC,3,HACA03,
2IFC,40,0,40,0,11.1,-1,correct answer,0.0995843999553,True,False,stimulusHACA03_2IFC_2019_Jul_03_1402_81,stimulusHACA03_2IFC_2019_Jul_03_1402_82,False,2019_Jul_03_1402,2IFC,3,HACA03,
2IFC,41,0,41,0,11.1,-1,correct answer,0.233459699899,True,False,stimulusHACA03_2IFC_2019_Jul_03_1402_83,stimulusHACA03_2IFC_2019_Jul_03_1402_84,False,2019_Jul_03_1402,2IFC,3,HACA03,
2IFC,42,0,42,0,11.1,-1,correct answer,0.100420299917,False,True,stimulusHACA03_2IFC_2019_Jul_03_1402_85,stimulusHACA03_2IFC_2019_Jul_03_1402_86,False,2019_Jul_03_1402,2IFC,3,HACA03,
2IFC,43,0,43,0,11.1,-1,correct answer,0.0668206000701,False,True,stimulusHACA03_2IFC_2019_Jul_03_1402_87,stimulusHACA03_2IFC_2019_Jul_03_1402_88,False,2019_Jul_03_1402,2IFC,3,HACA03,
2IFC,44,0,44,0,11.1,-1,correct answer,0.169019300025,True,False,stimulusHACA03_2IFC_2019_Jul_03_1402_89,stimulusHACA03_2IFC_2019_Jul_03_1402_90,False,2019_Jul_03_1402,2IFC,3,HACA03,
2IFC,45,0,45,0,11.1,-1,correct answer,0.133789299987,True,False,stimulusHACA03_2IFC_2019_Jul_03_1402_91,stimulusHACA03_2IFC_2019_Jul_03_1402_92,False,2019_Jul_03_1402,2IFC,3,HACA03,
2IFC,46,0,46,0,11.1,-1,correct answer,0.198881599819,False,True,stimulusHACA03_2IFC_2019_Jul_03_1402_93,stimulusHACA03_2IFC_2019_Jul_03_1402_94,False,2019_Jul_03_1402,2IFC,3,HACA03,
2IFC,47,0,47,0,11.1,-1,correct answer,0.100524799898,True,False,stimulusHACA03_2IFC_2019_Jul_03_1402_95,stimulusHACA03_2IFC_2019_Jul_03_1402_96,False,2019_Jul_03_1402,2IFC,3,HACA03,
2IFC,48,0,48,0,11.1,-1,wrong answer,0.200357200112,True,False,stimulusHACA03_2IFC_2019_Jul_03_1402_97,stimulusHACA03_2IFC_2019_Jul_03_1402_98,False,2019_Jul_03_1402,2IFC,3,HACA03,
2IFC,49,0,49,0,11.1,-1,correct answer,0.266891799867,True,False,stimulusHACA03_2IFC_2019_Jul_03_1402_99,stimulusHACA03_2IFC_2019_Jul_03_1402_100,False,2019_Jul_03_1402,2IFC,3,HACA03,
2IFC,50,0,50,0,11.1,-1,correct answer,0.300681799883,False,True,stimulusHACA03_2IFC_2019_Jul_03_1402_101,stimulusHACA03_2IFC_2019_Jul_03_1402_102,False,2019_Jul_03_1402,2IFC,3,HACA03,
2IFC,51,0,51,0,11.1,-1,correct answer,0.201495800167,True,False,stimulusHACA03_2IFC_2019_Jul_03_1402_103,stimulusHACA03_2IFC_2019_Jul_03_1402_104,False,2019_Jul_03_1402,2IFC,3,HACA03,
2IFC,52,0,52,0,11.1,-1,correct answer,0.167188200168,False,True,stimulusHACA03_2IFC_2019_Jul_03_1402_105,stimulusHACA03_2IFC_2019_Jul_03_1402_106,False,2019_Jul_03_1402,2IFC,3,HACA03,
2IFC,53,0,53,0,11.1,-1,correct answer,0.23362449999,True,False,stimulusHACA03_2IFC_2019_Jul_03_1402_107,stimulusHACA03_2IFC_2019_Jul_03_1402_108,False,2019_Jul_03_1402,2IFC,3,HACA03,
2IFC,54,0,54,0,11.1,-1,correct answer,0.334035000065,False,True,stimulusHACA03_2IFC_2019_Jul_03_1402_109,stimulusHACA03_2IFC_2019_Jul_03_1402_110,False,2019_Jul_03_1402,2IFC,3,HACA03,
2IFC,55,0,55,0,11.1,-1,correct answer,0.201347400201,True,False,stimulusHACA03_2IFC_2019_Jul_03_1402_111,stimulusHACA03_2IFC_2019_Jul_03_1402_112,False,2019_Jul_03_1402,2IFC,3,HACA03,
2IFC,56,0,56,0,11.1,-1,correct answer,0.0339432000183,False,True,stimulusHACA03_2IFC_2019_Jul_03_1402_113,stimulusHACA03_2IFC_2019_Jul_03_1402_114,False,2019_Jul_03_1402,2IFC,3,HACA03,
2IFC,57,0,57,0,11.1,-1,correct answer,0.100534300087,False,True,stimulusHACA03_2IFC_2019_Jul_03_1402_115,stimulusHACA03_2IFC_2019_Jul_03_1402_116,False,2019_Jul_03_1402,2IFC,3,HACA03,
2IFC,58,0,58,0,11.1,-1,correct answer,0.234720100183,False,True,stimulusHACA03_2IFC_2019_Jul_03_1402_117,stimulusHACA03_2IFC_2019_Jul_03_1402_118,False,2019_Jul_03_1402,2IFC,3,HACA03,
2IFC,59,0,59,0,11.1,-1,correct answer,0.0670767999254,False,True,stimulusHACA03_2IFC_2019_Jul_03_1402_119,stimulusHACA03_2IFC_2019_Jul_03_1402_120,False,2019_Jul_03_1402,2IFC,3,HACA03,
2IFC,60,0,60,0,11.1,-1,correct answer,0.135062200017,True,False,stimulusHACA03_2IFC_2019_Jul_03_1402_121,stimulusHACA03_2IFC_2019_Jul_03_1402_122,False,2019_Jul_03_1402,2IFC,3,HACA03,
2IFC,61,0,61,0,11.1,-1,correct answer,0.200263799867,True,False,stimulusHACA03_2IFC_2019_Jul_03_1402_123,stimulusHACA03_2IFC_2019_Jul_03_1402_124,False,2019_Jul_03_1402,2IFC,3,HACA03,
2IFC,62,0,62,0,11.1,-1,correct answer,0.200567199849,True,False,stimulusHACA03_2IFC_2019_Jul_03_1402_125,stimulusHACA03_2IFC_2019_Jul_03_1402_126,False,2019_Jul_03_1402,2IFC,3,HACA03,
2IFC,63,0,63,0,11.1,-1,correct answer,0.101549699903,True,False,stimulusHACA03_2IFC_2019_Jul_03_1402_127,stimulusHACA03_2IFC_2019_Jul_03_1402_128,False,2019_Jul_03_1402,2IFC,3,HACA03,
2IFC,64,0,64,0,11.1,-1,correct answer,0.100490899989,False,True,stimulusHACA03_2IFC_2019_Jul_03_1402_129,stimulusHACA03_2IFC_2019_Jul_03_1402_130,False,2019_Jul_03_1402,2IFC,3,HACA03,
2IFC,65,0,65,0,11.1,-1,correct answer,0.200983899878,False,True,stimulusHACA03_2IFC_2019_Jul_03_1402_131,stimulusHACA03_2IFC_2019_Jul_03_1402_132,False,2019_Jul_03_1402,2IFC,3,HACA03,
2IFC,66,0,66,0,11.1,-1,correct answer,0.234332799911,False,True,stimulusHACA03_2IFC_2019_Jul_03_1402_133,stimulusHACA03_2IFC_2019_Jul_03_1402_134,False,2019_Jul_03_1402,2IFC,3,HACA03,
2IFC,67,0,67,0,11.1,-1,correct answer,0.467912900029,False,True,stimulusHACA03_2IFC_2019_Jul_03_1402_135,stimulusHACA03_2IFC_2019_Jul_03_1402_136,False,2019_Jul_03_1402,2IFC,3,HACA03,
2IFC,68,0,68,0,11.1,-1,correct answer,0.26662670006,True,False,stimulusHACA03_2IFC_2019_Jul_03_1402_137,stimulusHACA03_2IFC_2019_Jul_03_1402_138,False,2019_Jul_03_1402,2IFC,3,HACA03,
2IFC,69,0,69,0,11.1,-1,correct answer,0.200639599934,True,False,stimulusHACA03_2IFC_2019_Jul_03_1402_139,stimulusHACA03_2IFC_2019_Jul_03_1402_140,False,2019_Jul_03_1402,2IFC,3,HACA03,
2IFC,70,0,70,0,11.1,-1,correct answer,0.233967300039,True,False,stimulusHACA03_2IFC_2019_Jul_03_1402_141,stimulusHACA03_2IFC_2019_Jul_03_1402_142,False,2019_Jul_03_1402,2IFC,3,HACA03,
2IFC,71,0,71,0,11.1,-1,correct answer,0.599362100009,False,True,stimulusHACA03_2IFC_2019_Jul_03_1402_143,stimulusHACA03_2IFC_2019_Jul_03_1402_144,False,2019_Jul_03_1402,2IFC,3,HACA03,
2IFC,72,0,72,0,11.1,-1,correct answer,0.200454300037,False,True,stimulusHACA03_2IFC_2019_Jul_03_1402_145,stimulusHACA03_2IFC_2019_Jul_03_1402_146,False,2019_Jul_03_1402,2IFC,3,HACA03,
2IFC,73,0,73,0,11.1,-1,correct answer,0.134129400132,False,True,stimulusHACA03_2IFC_2019_Jul_03_1402_147,stimulusHACA03_2IFC_2019_Jul_03_1402_148,False,2019_Jul_03_1402,2IFC,3,HACA03,
2IFC,74,0,74,0,11.1,-1,correct answer,0.0673191999085,True,False,stimulusHACA03_2IFC_2019_Jul_03_1402_149,stimulusHACA03_2IFC_2019_Jul_03_1402_150,False,2019_Jul_03_1402,2IFC,3,HACA03,
2IFC,0,0,0,0,9.8,-1,correct answer,0.467624200042,False,True,stimulusHACA03_2IFC_2019_Jul_03_1402_151,stimulusHACA03_2IFC_2019_Jul_03_1402_152,False,2019_Jul_03_1402,2IFC,3,HACA03,
2IFC,1,0,1,0,9.8,-1,correct answer,0.267300999956,True,False,stimulusHACA03_2IFC_2019_Jul_03_1402_153,stimulusHACA03_2IFC_2019_Jul_03_1402_154,False,2019_Jul_03_1402,2IFC,3,HACA03,
2IFC,2,0,2,0,9.8,-1,correct answer,0.300783399958,False,True,stimulusHACA03_2IFC_2019_Jul_03_1402_155,stimulusHACA03_2IFC_2019_Jul_03_1402_156,False,2019_Jul_03_1402,2IFC,3,HACA03,
2IFC,3,0,3,0,9.8,-1,correct answer,0.368051799946,False,True,stimulusHACA03_2IFC_2019_Jul_03_1402_157,stimulusHACA03_2IFC_2019_Jul_03_1402_158,False,2019_Jul_03_1402,2IFC,3,HACA03,
2IFC,4,0,4,0,9.8,-1,correct answer,0.366749700159,False,True,stimulusHACA03_2IFC_2019_Jul_03_1402_159,stimulusHACA03_2IFC_2019_Jul_03_1402_160,False,2019_Jul_03_1402,2IFC,3,HACA03,
2IFC,5,0,5,0,9.8,-1,correct answer,0.234359299997,True,False,stimulusHACA03_2IFC_2019_Jul_03_1402_161,stimulusHACA03_2IFC_2019_Jul_03_1402_162,False,2019_Jul_03_1402,2IFC,3,HACA03,
2IFC,6,0,6,0,9.8,-1,correct answer,0.100561700063,False,True,stimulusHACA03_2IFC_2019_Jul_03_1402_163,stimulusHACA03_2IFC_2019_Jul_03_1402_164,False,2019_Jul_03_1402,2IFC,3,HACA03,
2IFC,7,0,7,0,9.8,-1,correct answer,0.334617700195,False,True,stimulusHACA03_2IFC_2019_Jul_03_1402_165,stimulusHACA03_2IFC_2019_Jul_03_1402_166,False,2019_Jul_03_1402,2IFC,3,HACA03,
2IFC,8,0,8,0,9.8,-1,correct answer,0.23386040004,False,True,stimulusHACA03_2IFC_2019_Jul_03_1402_167,stimulusHACA03_2IFC_2019_Jul_03_1402_168,False,2019_Jul_03_1402,2IFC,3,HACA03,
2IFC,9,0,9,0,9.8,-1,correct answer,0.100612599868,True,False,stimulusHACA03_2IFC_2019_Jul_03_1402_169,stimulusHACA03_2IFC_2019_Jul_03_1402_170,False,2019_Jul_03_1402,2IFC,3,HACA03,
2IFC,10,0,10,0,9.8,-1,correct answer,0.200231899973,True,False,stimulusHACA03_2IFC_2019_Jul_03_1402_171,stimulusHACA03_2IFC_2019_Jul_03_1402_172,False,2019_Jul_03_1402,2IFC,3,HACA03,
2IFC,11,0,11,0,9.8,-1,correct answer,0.301038200036,False,True,stimulusHACA03_2IFC_2019_Jul_03_1402_173,stimulusHACA03_2IFC_2019_Jul_03_1402_174,False,2019_Jul_03_1402,2IFC,3,HACA03,
2IFC,12,0,12,0,9.8,-1,correct answer,0.434231400024,False,True,stimulusHACA03_2IFC_2019_Jul_03_1402_175,stimulusHACA03_2IFC_2019_Jul_03_1402_176,False,2019_Jul_03_1402,2IFC,3,HACA03,
2IFC,13,0,13,0,9.8,-1,correct answer,0.233397300122,False,True,stimulusHACA03_2IFC_2019_Jul_03_1402_177,stimulusHACA03_2IFC_2019_Jul_03_1402_178,False,2019_Jul_03_1402,2IFC,3,HACA03,
2IFC,14,0,14,0,9.8,-1,correct answer,0.198540500132,True,False,stimulusHACA03_2IFC_2019_Jul_03_1402_179,stimulusHACA03_2IFC_2019_Jul_03_1402_180,False,2019_Jul_03_1402,2IFC,3,HACA03,
2IFC,15,0,15,0,9.8,-1,correct answer,0.167766599916,True,False,stimulusHACA03_2IFC_2019_Jul_03_1402_181,stimulusHACA03_2IFC_2019_Jul_03_1402_182,False,2019_Jul_03_1402,2IFC,3,HACA03,
2IFC,16,0,16,0,9.8,-1,correct answer,0.200447099982,True,False,stimulusHACA03_2IFC_2019_Jul_03_1402_183,stimulusHACA03_2IFC_2019_Jul_03_1402_184,False,2019_Jul_03_1402,2IFC,3,HACA03,
2IFC,17,0,17,0,9.8,-1,correct answer,0.133448600071,False,True,stimulusHACA03_2IFC_2019_Jul_03_1402_185,stimulusHACA03_2IFC_2019_Jul_03_1402_186,False,2019_Jul_03_1402,2IFC,3,HACA03,
2IFC,18,0,18,0,9.8,-1,correct answer,0.167545900214,True,False,stimulusHACA03_2IFC_2019_Jul_03_1402_187,stimulusHACA03_2IFC_2019_Jul_03_1402_188,False,2019_Jul_03_1402,2IFC,3,HACA03,
2IFC,19,0,19,0,9.8,-1,correct answer,0.0344640000258,True,False,stimulusHACA03_2IFC_2019_Jul_03_1402_189,stimulusHACA03_2IFC_2019_Jul_03_1402_190,False,2019_Jul_03_1402,2IFC,3,HACA03,
2IFC,20,0,20,0,9.8,-1,correct answer,0.268750299932,False,True,stimulusHACA03_2IFC_2019_Jul_03_1402_191,stimulusHACA03_2IFC_2019_Jul_03_1402_192,False,2019_Jul_03_1402,2IFC,3,HACA03,
2IFC,21,0,21,0,9.8,-1,correct answer,0.200549199944,True,False,stimulusHACA03_2IFC_2019_Jul_03_1402_193,stimulusHACA03_2IFC_2019_Jul_03_1402_194,False,2019_Jul_03_1402,2IFC,3,HACA03,
2IFC,22,0,22,0,9.8,-1,correct answer,0.100253300043,False,True,stimulusHACA03_2IFC_2019_Jul_03_1402_195,stimulusHACA03_2IFC_2019_Jul_03_1402_196,False,2019_Jul_03_1402,2IFC,3,HACA03,
2IFC,23,0,23,0,9.8,-1,correct answer,0.200394100044,True,False,stimulusHACA03_2IFC_2019_Jul_03_1402_197,stimulusHACA03_2IFC_2019_Jul_03_1402_198,False,2019_Jul_03_1402,2IFC,3,HACA03,
2IFC,24,0,24,0,9.8,-1,correct answer,0.133837200003,True,False,stimulusHACA03_2IFC_2019_Jul_03_1402_199,stimulusHACA03_2IFC_2019_Jul_03_1402_200,False,2019_Jul_03_1402,2IFC,3,HACA03,
2IFC,25,0,25,0,9.8,-1,correct answer,0.56774320011,False,True,stimulusHACA03_2IFC_2019_Jul_03_1402_201,stimulusHACA03_2IFC_2019_Jul_03_1402_202,False,2019_Jul_03_1402,2IFC,3,HACA03,
2IFC,26,0,26,0,9.8,-1,correct answer,0.235035299789,False,True,stimulusHACA03_2IFC_2019_Jul_03_1402_203,stimulusHACA03_2IFC_2019_Jul_03_1402_204,False,2019_Jul_03_1402,2IFC,3,HACA03,
2IFC,27,0,27,0,9.8,-1,correct answer,0.434394899989,False,True,stimulusHACA03_2IFC_2019_Jul_03_1402_205,stimulusHACA03_2IFC_2019_Jul_03_1402_206,False,2019_Jul_03_1402,2IFC,3,HACA03,
2IFC,28,0,28,0,9.8,-1,correct answer,0.267183899879,False,True,stimulusHACA03_2IFC_2019_Jul_03_1402_207,stimulusHACA03_2IFC_2019_Jul_03_1402_208,False,2019_Jul_03_1402,2IFC,3,HACA03,
2IFC,29,0,29,0,9.8,-1,correct answer,0.133216599934,True,False,stimulusHACA03_2IFC_2019_Jul_03_1402_209,stimulusHACA03_2IFC_2019_Jul_03_1402_210,False,2019_Jul_03_1402,2IFC,3,HACA03,
2IFC,30,0,30,0,9.8,-1,correct answer,0.100052299909,True,False,stimulusHACA03_2IFC_2019_Jul_03_1402_211,stimulusHACA03_2IFC_2019_Jul_03_1402_212,False,2019_Jul_03_1402,2IFC,3,HACA03,
2IFC,31,0,31,0,9.8,-1,correct answer,0.133751099929,True,False,stimulusHACA03_2IFC_2019_Jul_03_1402_213,stimulusHACA03_2IFC_2019_Jul_03_1402_214,False,2019_Jul_03_1402,2IFC,3,HACA03,
2IFC,32,0,32,0,9.8,-1,correct answer,0.200324699981,True,False,stimulusHACA03_2IFC_2019_Jul_03_1402_215,stimulusHACA03_2IFC_2019_Jul_03_1402_216,False,2019_Jul_03_1402,2IFC,3,HACA03,
2IFC,33,0,33,0,9.8,-1,correct answer,0.200978700072,False,True,stimulusHACA03_2IFC_2019_Jul_03_1402_217,stimulusHACA03_2IFC_2019_Jul_03_1402_218,False,2019_Jul_03_1402,2IFC,3,HACA03,
2IFC,34,0,34,0,9.8,-1,correct answer,0.232456799829,False,True,stimulusHACA03_2IFC_2019_Jul_03_1402_219,stimulusHACA03_2IFC_2019_Jul_03_1402_220,False,2019_Jul_03_1402,2IFC,3,HACA03,
2IFC,35,0,35,0,9.8,-1,correct answer,0.466768199811,False,True,stimulusHACA03_2IFC_2019_Jul_03_1402_221,stimulusHACA03_2IFC_2019_Jul_03_1402_222,False,2019_Jul_03_1402,2IFC,3,HACA03,
2IFC,36,0,36,0,9.8,-1,correct answer,0.23367700004,False,True,stimulusHACA03_2IFC_2019_Jul_03_1402_223,stimulusHACA03_2IFC_2019_Jul_03_1402_224,False,2019_Jul_03_1402,2IFC,3,HACA03,
2IFC,37,0,37,0,9.8,-1,wrong answer,0.0341064999811,False,True,stimulusHACA03_2IFC_2019_Jul_03_1402_225,stimulusHACA03_2IFC_2019_Jul_03_1402_226,False,2019_Jul_03_1402,2IFC,3,HACA03,
2IFC,38,0,38,0,9.8,-1,correct answer,0.267311200034,True,False,stimulusHACA03_2IFC_2019_Jul_03_1402_227,stimulusHACA03_2IFC_2019_Jul_03_1402_228,False,2019_Jul_03_1402,2IFC,3,HACA03,
2IFC,39,0,39,0,9.8,-1,correct answer,0.500319300219,True,False,stimulusHACA03_2IFC_2019_Jul_03_1402_229,stimulusHACA03_2IFC_2019_Jul_03_1402_230,False,2019_Jul_03_1402,2IFC,3,HACA03,
2IFC,40,0,40,0,9.8,-1,correct answer,0.233995300019,True,False,stimulusHACA03_2IFC_2019_Jul_03_1402_231,stimulusHACA03_2IFC_2019_Jul_03_1402_232,False,2019_Jul_03_1402,2IFC,3,HACA03,
2IFC,41,0,41,0,9.8,-1,correct answer,0.234800199978,True,False,stimulusHACA03_2IFC_2019_Jul_03_1402_233,stimulusHACA03_2IFC_2019_Jul_03_1402_234,False,2019_Jul_03_1402,2IFC,3,HACA03,
2IFC,42,0,42,0,9.8,-1,correct answer,0.199755399954,True,False,stimulusHACA03_2IFC_2019_Jul_03_1402_235,stimulusHACA03_2IFC_2019_Jul_03_1402_236,False,2019_Jul_03_1402,2IFC,3,HACA03,
2IFC,43,0,43,0,9.8,-1,correct answer,0.234380000038,True,False,stimulusHACA03_2IFC_2019_Jul_03_1402_237,stimulusHACA03_2IFC_2019_Jul_03_1402_238,False,2019_Jul_03_1402,2IFC,3,HACA03,
2IFC,44,0,44,0,9.8,-1,correct answer,0.266540900106,True,False,stimulusHACA03_2IFC_2019_Jul_03_1402_239,stimulusHACA03_2IFC_2019_Jul_03_1402_240,False,2019_Jul_03_1402,2IFC,3,HACA03,
2IFC,45,0,45,0,9.8,-1,correct answer,0.234487600159,False,True,stimulusHACA03_2IFC_2019_Jul_03_1402_241,stimulusHACA03_2IFC_2019_Jul_03_1402_242,False,2019_Jul_03_1402,2IFC,3,HACA03,
2IFC,46,0,46,0,9.8,-1,correct answer,0.434317799984,False,True,stimulusHACA03_2IFC_2019_Jul_03_1402_243,stimulusHACA03_2IFC_2019_Jul_03_1402_244,False,2019_Jul_03_1402,2IFC,3,HACA03,
2IFC,47,0,47,0,9.8,-1,correct answer,0.301767099882,False,True,stimulusHACA03_2IFC_2019_Jul_03_1402_245,stimulusHACA03_2IFC_2019_Jul_03_1402_246,False,2019_Jul_03_1402,2IFC,3,HACA03,
2IFC,48,0,48,0,9.8,-1,correct answer,0.266329699894,False,True,stimulusHACA03_2IFC_2019_Jul_03_1402_247,stimulusHACA03_2IFC_2019_Jul_03_1402_248,False,2019_Jul_03_1402,2IFC,3,HACA03,
2IFC,49,0,49,0,9.8,-1,correct answer,0.133670700016,True,False,stimulusHACA03_2IFC_2019_Jul_03_1402_249,stimulusHACA03_2IFC_2019_Jul_03_1402_250,False,2019_Jul_03_1402,2IFC,3,HACA03,
2IFC,50,0,50,0,9.8,-1,correct answer,0.234406600008,True,False,stimulusHACA03_2IFC_2019_Jul_03_1402_251,stimulusHACA03_2IFC_2019_Jul_03_1402_252,False,2019_Jul_03_1402,2IFC,3,HACA03,
2IFC,51,0,51,0,9.8,-1,correct answer,0.200450700009,False,True,stimulusHACA03_2IFC_2019_Jul_03_1402_253,stimulusHACA03_2IFC_2019_Jul_03_1402_254,False,2019_Jul_03_1402,2IFC,3,HACA03,
2IFC,52,0,52,0,9.8,-1,correct answer,0.200473800069,True,False,stimulusHACA03_2IFC_2019_Jul_03_1402_255,stimulusHACA03_2IFC_2019_Jul_03_1402_256,False,2019_Jul_03_1402,2IFC,3,HACA03,
2IFC,53,0,53,0,9.8,-1,correct answer,0.0999897001311,True,False,stimulusHACA03_2IFC_2019_Jul_03_1402_257,stimulusHACA03_2IFC_2019_Jul_03_1402_258,False,2019_Jul_03_1402,2IFC,3,HACA03,
2IFC,54,0,54,0,9.8,-1,correct answer,0.133947500028,False,True,stimulusHACA03_2IFC_2019_Jul_03_1402_259,stimulusHACA03_2IFC_2019_Jul_03_1402_260,False,2019_Jul_03_1402,2IFC,3,HACA03,
2IFC,55,0,55,0,9.8,-1,correct answer,0.26850110013,False,True,stimulusHACA03_2IFC_2019_Jul_03_1402_261,stimulusHACA03_2IFC_2019_Jul_03_1402_262,False,2019_Jul_03_1402,2IFC,3,HACA03,
2IFC,56,0,56,0,9.8,-1,correct answer,0.36727320007,False,True,stimulusHACA03_2IFC_2019_Jul_03_1402_263,stimulusHACA03_2IFC_2019_Jul_03_1402_264,False,2019_Jul_03_1402,2IFC,3,HACA03,
2IFC,57,0,57,0,9.8,-1,correct answer,0.0333038999233,False,True,stimulusHACA03_2IFC_2019_Jul_03_1402_265,stimulusHACA03_2IFC_2019_Jul_03_1402_266,False,2019_Jul_03_1402,2IFC,3,HACA03,
2IFC,58,0,58,0,9.8,-1,correct answer,0.266954399878,False,True,stimulusHACA03_2IFC_2019_Jul_03_1402_267,stimulusHACA03_2IFC_2019_Jul_03_1402_268,False,2019_Jul_03_1402,2IFC,3,HACA03,
2IFC,59,0,59,0,9.8,-1,correct answer,0.267356000142,True,False,stimulusHACA03_2IFC_2019_Jul_03_1402_269,stimulusHACA03_2IFC_2019_Jul_03_1402_270,False,2019_Jul_03_1402,2IFC,3,HACA03,
2IFC,60,0,60,0,9.8,-1,correct answer,0.133711399976,False,True,stimulusHACA03_2IFC_2019_Jul_03_1402_271,stimulusHACA03_2IFC_2019_Jul_03_1402_272,False,2019_Jul_03_1402,2IFC,3,HACA03,
2IFC,61,0,61,0,9.8,-1,correct answer,0.233140700031,True,False,stimulusHACA03_2IFC_2019_Jul_03_1402_273,stimulusHACA03_2IFC_2019_Jul_03_1402_274,False,2019_Jul_03_1402,2IFC,3,HACA03,
2IFC,62,0,62,0,9.8,-1,correct answer,0.0335645999294,False,True,stimulusHACA03_2IFC_2019_Jul_03_1402_275,stimulusHACA03_2IFC_2019_Jul_03_1402_276,False,2019_Jul_03_1402,2IFC,3,HACA03,
2IFC,63,0,63,0,9.8,-1,correct answer,0.133839899907,False,True,stimulusHACA03_2IFC_2019_Jul_03_1402_277,stimulusHACA03_2IFC_2019_Jul_03_1402_278,False,2019_Jul_03_1402,2IFC,3,HACA03,
2IFC,64,0,64,0,9.8,-1,correct answer,0.267658000113,False,True,stimulusHACA03_2IFC_2019_Jul_03_1402_279,stimulusHACA03_2IFC_2019_Jul_03_1402_280,False,2019_Jul_03_1402,2IFC,3,HACA03,
2IFC,65,0,65,0,9.8,-1,correct answer,0.100385500118,True,False,stimulusHACA03_2IFC_2019_Jul_03_1402_281,stimulusHACA03_2IFC_2019_Jul_03_1402_282,False,2019_Jul_03_1402,2IFC,3,HACA03,
2IFC,66,0,66,0,9.8,-1,correct answer,0.199513699859,False,True,stimulusHACA03_2IFC_2019_Jul_03_1402_283,stimulusHACA03_2IFC_2019_Jul_03_1402_284,False,2019_Jul_03_1402,2IFC,3,HACA03,
2IFC,67,0,67,0,9.8,-1,correct answer,0.0661182999611,True,False,stimulusHACA03_2IFC_2019_Jul_03_1402_285,stimulusHACA03_2IFC_2019_Jul_03_1402_286,False,2019_Jul_03_1402,2IFC,3,HACA03,
2IFC,68,0,68,0,9.8,-1,correct answer,0.167385299923,False,True,stimulusHACA03_2IFC_2019_Jul_03_1402_287,stimulusHACA03_2IFC_2019_Jul_03_1402_288,False,2019_Jul_03_1402,2IFC,3,HACA03,
2IFC,69,0,69,0,9.8,-1,correct answer,0.0999706999864,True,False,stimulusHACA03_2IFC_2019_Jul_03_1402_289,stimulusHACA03_2IFC_2019_Jul_03_1402_290,False,2019_Jul_03_1402,2IFC,3,HACA03,
2IFC,70,0,70,0,9.8,-1,correct answer,0.200343200006,True,False,stimulusHACA03_2IFC_2019_Jul_03_1402_291,stimulusHACA03_2IFC_2019_Jul_03_1402_292,False,2019_Jul_03_1402,2IFC,3,HACA03,
2IFC,71,0,71,0,9.8,-1,correct answer,0.0677551999688,False,True,stimulusHACA03_2IFC_2019_Jul_03_1402_293,stimulusHACA03_2IFC_2019_Jul_03_1402_294,False,2019_Jul_03_1402,2IFC,3,HACA03,
2IFC,72,0,72,0,9.8,-1,correct answer,0.434321899898,False,True,stimulusHACA03_2IFC_2019_Jul_03_1402_295,stimulusHACA03_2IFC_2019_Jul_03_1402_296,False,2019_Jul_03_1402,2IFC,3,HACA03,
2IFC,73,0,73,0,9.8,-1,correct answer,0.134119899943,True,False,stimulusHACA03_2IFC_2019_Jul_03_1402_297,stimulusHACA03_2IFC_2019_Jul_03_1402_298,False,2019_Jul_03_1402,2IFC,3,HACA03,
2IFC,74,0,74,0,9.8,-1,correct answer,0.0671219001524,True,False,stimulusHACA03_2IFC_2019_Jul_03_1402_299,stimulusHACA03_2IFC_2019_Jul_03_1402_300,False,2019_Jul_03_1402,2IFC,3,HACA03,
2IFC,0,0,0,0,2.7,-1,wrong answer,0.566381899873,True,False,stimulusHACA03_2IFC_2019_Jul_03_1402_301,stimulusHACA03_2IFC_2019_Jul_03_1402_302,False,2019_Jul_03_1402,2IFC,3,HACA03,
2IFC,1,0,1,0,2.7,-1,wrong answer,0.301645200001,True,False,stimulusHACA03_2IFC_2019_Jul_03_1402_303,stimulusHACA03_2IFC_2019_Jul_03_1402_304,False,2019_Jul_03_1402,2IFC,3,HACA03,
2IFC,2,0,2,0,2.7,-1,correct answer,0.203796200221,True,False,stimulusHACA03_2IFC_2019_Jul_03_1402_305,stimulusHACA03_2IFC_2019_Jul_03_1402_306,False,2019_Jul_03_1402,2IFC,3,HACA03,
2IFC,3,0,3,0,2.7,-1,correct answer,0.166715899948,False,True,stimulusHACA03_2IFC_2019_Jul_03_1402_307,stimulusHACA03_2IFC_2019_Jul_03_1402_308,False,2019_Jul_03_1402,2IFC,3,HACA03,
2IFC,4,0,4,0,2.7,-1,correct answer,0.266423200024,False,True,stimulusHACA03_2IFC_2019_Jul_03_1402_309,stimulusHACA03_2IFC_2019_Jul_03_1402_310,False,2019_Jul_03_1402,2IFC,3,HACA03,
2IFC,5,0,5,0,2.7,-1,wrong answer,0.267407900188,True,False,stimulusHACA03_2IFC_2019_Jul_03_1402_311,stimulusHACA03_2IFC_2019_Jul_03_1402_312,False,2019_Jul_03_1402,2IFC,3,HACA03,
2IFC,6,0,6,0,2.7,-1,wrong answer,0.265904400032,True,False,stimulusHACA03_2IFC_2019_Jul_03_1402_313,stimulusHACA03_2IFC_2019_Jul_03_1402_314,False,2019_Jul_03_1402,2IFC,3,HACA03,
2IFC,7,0,7,0,2.7,-1,wrong answer,0.234262099955,False,True,stimulusHACA03_2IFC_2019_Jul_03_1402_315,stimulusHACA03_2IFC_2019_Jul_03_1402_316,False,2019_Jul_03_1402,2IFC,3,HACA03,
2IFC,8,0,8,0,2.7,-1,correct answer,0.300726799993,True,False,stimulusHACA03_2IFC_2019_Jul_03_1402_317,stimulusHACA03_2IFC_2019_Jul_03_1402_318,False,2019_Jul_03_1402,2IFC,3,HACA03,
2IFC,9,0,9,0,2.7,-1,correct answer,0.26721760002,True,False,stimulusHACA03_2IFC_2019_Jul_03_1402_319,stimulusHACA03_2IFC_2019_Jul_03_1402_320,False,2019_Jul_03_1402,2IFC,3,HACA03,
2IFC,10,0,10,0,2.7,-1,correct answer,0.300157899968,True,False,stimulusHACA03_2IFC_2019_Jul_03_1402_321,stimulusHACA03_2IFC_2019_Jul_03_1402_322,False,2019_Jul_03_1402,2IFC,3,HACA03,
2IFC,11,0,11,0,2.7,-1,wrong answer,0.268117300002,True,False,stimulusHACA03_2IFC_2019_Jul_03_1402_323,stimulusHACA03_2IFC_2019_Jul_03_1402_324,False,2019_Jul_03_1402,2IFC,3,HACA03,
2IFC,12,0,12,0,2.7,-1,correct answer,0.300485499902,True,False,stimulusHACA03_2IFC_2019_Jul_03_1402_325,stimulusHACA03_2IFC_2019_Jul_03_1402_326,False,2019_Jul_03_1402,2IFC,3,HACA03,
2IFC,13,0,13,0,2.7,-1,wrong answer,0.800067999866,True,False,stimulusHACA03_2IFC_2019_Jul_03_1402_327,stimulusHACA03_2IFC_2019_Jul_03_1402_328,False,2019_Jul_03_1402,2IFC,3,HACA03,
2IFC,14,0,14,0,2.7,-1,correct answer,0.235357499914,True,False,stimulusHACA03_2IFC_2019_Jul_03_1402_329,stimulusHACA03_2IFC_2019_Jul_03_1402_330,False,2019_Jul_03_1402,2IFC,3,HACA03,
2IFC,15,0,15,0,2.7,-1,correct answer,0.101169800153,False,True,stimulusHACA03_2IFC_2019_Jul_03_1402_331,stimulusHACA03_2IFC_2019_Jul_03_1402_332,False,2019_Jul_03_1402,2IFC,3,HACA03,
2IFC,16,0,16,0,2.7,-1,wrong answer,0.234244699823,False,True,stimulusHACA03_2IFC_2019_Jul_03_1402_333,stimulusHACA03_2IFC_2019_Jul_03_1402_334,False,2019_Jul_03_1402,2IFC,3,HACA03,
2IFC,17,0,17,0,2.7,-1,correct answer,0.233323300024,True,False,stimulusHACA03_2IFC_2019_Jul_03_1402_335,stimulusHACA03_2IFC_2019_Jul_03_1402_336,False,2019_Jul_03_1402,2IFC,3,HACA03,
2IFC,18,0,18,0,2.7,-1,wrong answer,0.0996148998383,True,False,stimulusHACA03_2IFC_2019_Jul_03_1402_337,stimulusHACA03_2IFC_2019_Jul_03_1402_338,False,2019_Jul_03_1402,2IFC,3,HACA03,
2IFC,19,0,19,0,2.7,-1,correct answer,0.233808600111,True,False,stimulusHACA03_2IFC_2019_Jul_03_1402_339,stimulusHACA03_2IFC_2019_Jul_03_1402_340,False,2019_Jul_03_1402,2IFC,3,HACA03,
2IFC,20,0,20,0,2.7,-1,wrong answer,0.234687600052,False,True,stimulusHACA03_2IFC_2019_Jul_03_1402_341,stimulusHACA03_2IFC_2019_Jul_03_1402_342,False,2019_Jul_03_1402,2IFC,3,HACA03,
2IFC,21,0,21,0,2.7,-1,correct answer,0.23398889997,False,True,stimulusHACA03_2IFC_2019_Jul_03_1402_343,stimulusHACA03_2IFC_2019_Jul_03_1402_344,False,2019_Jul_03_1402,2IFC,3,HACA03,
2IFC,22,0,22,0,2.7,-1,correct answer,0.468273600098,False,True,stimulusHACA03_2IFC_2019_Jul_03_1402_345,stimulusHACA03_2IFC_2019_Jul_03_1402_346,False,2019_Jul_03_1402,2IFC,3,HACA03,
2IFC,23,0,23,0,2.7,-1,correct answer,0.167706300039,True,False,stimulusHACA03_2IFC_2019_Jul_03_1402_347,stimulusHACA03_2IFC_2019_Jul_03_1402_348,False,2019_Jul_03_1402,2IFC,3,HACA03,
2IFC,24,0,24,0,2.7,-1,correct answer,0.433843299979,True,False,stimulusHACA03_2IFC_2019_Jul_03_1402_349,stimulusHACA03_2IFC_2019_Jul_03_1402_350,False,2019_Jul_03_1402,2IFC,3,HACA03,
2IFC,25,0,25,0,2.7,-1,wrong answer,0.499635499902,True,False,stimulusHACA03_2IFC_2019_Jul_03_1402_351,stimulusHACA03_2IFC_2019_Jul_03_1402_352,False,2019_Jul_03_1402,2IFC,3,HACA03,
2IFC,26,0,26,0,2.7,-1,wrong answer,0.372207799926,False,True,stimulusHACA03_2IFC_2019_Jul_03_1402_353,stimulusHACA03_2IFC_2019_Jul_03_1402_354,False,2019_Jul_03_1402,2IFC,3,HACA03,
2IFC,27,0,27,0,2.7,-1,wrong answer,0.368280500174,False,True,stimulusHACA03_2IFC_2019_Jul_03_1402_355,stimulusHACA03_2IFC_2019_Jul_03_1402_356,False,2019_Jul_03_1402,2IFC,3,HACA03,
2IFC,28,0,28,0,2.7,-1,correct answer,0.30312759988,False,True,stimulusHACA03_2IFC_2019_Jul_03_1402_357,stimulusHACA03_2IFC_2019_Jul_03_1402_358,False,2019_Jul_03_1402,2IFC,3,HACA03,
2IFC,29,0,29,0,2.7,-1,correct answer,0.400160900084,False,True,stimulusHACA03_2IFC_2019_Jul_03_1402_359,stimulusHACA03_2IFC_2019_Jul_03_1402_360,False,2019_Jul_03_1402,2IFC,3,HACA03,
2IFC,30,0,30,0,2.7,-1,wrong answer,0.56835600012,True,False,stimulusHACA03_2IFC_2019_Jul_03_1402_361,stimulusHACA03_2IFC_2019_Jul_03_1402_362,False,2019_Jul_03_1402,2IFC,3,HACA03,
2IFC,31,0,31,0,2.7,-1,correct answer,0.433159700129,False,True,stimulusHACA03_2IFC_2019_Jul_03_1402_363,stimulusHACA03_2IFC_2019_Jul_03_1402_364,False,2019_Jul_03_1402,2IFC,3,HACA03,
2IFC,32,0,32,0,2.7,-1,correct answer,0.266739800107,True,False,stimulusHACA03_2IFC_2019_Jul_03_1402_365,stimulusHACA03_2IFC_2019_Jul_03_1402_366,False,2019_Jul_03_1402,2IFC,3,HACA03,
2IFC,33,0,33,0,2.7,-1,correct answer,0.534230199875,True,False,stimulusHACA03_2IFC_2019_Jul_03_1402_367,stimulusHACA03_2IFC_2019_Jul_03_1402_368,False,2019_Jul_03_1402,2IFC,3,HACA03,
2IFC,34,0,34,0,2.7,-1,correct answer,0.266007900005,True,False,stimulusHACA03_2IFC_2019_Jul_03_1402_369,stimulusHACA03_2IFC_2019_Jul_03_1402_370,False,2019_Jul_03_1402,2IFC,3,HACA03,
2IFC,35,0,35,0,2.7,-1,correct answer,0.400857000146,True,False,stimulusHACA03_2IFC_2019_Jul_03_1402_371,stimulusHACA03_2IFC_2019_Jul_03_1402_372,False,2019_Jul_03_1402,2IFC,3,HACA03,
2IFC,36,0,36,0,2.7,-1,wrong answer,0.267450100044,True,False,stimulusHACA03_2IFC_2019_Jul_03_1402_373,stimulusHACA03_2IFC_2019_Jul_03_1402_374,False,2019_Jul_03_1402,2IFC,3,HACA03,
2IFC,37,0,37,0,2.7,-1,correct answer,0.233409399865,True,False,stimulusHACA03_2IFC_2019_Jul_03_1402_375,stimulusHACA03_2IFC_2019_Jul_03_1402_376,False,2019_Jul_03_1402,2IFC,3,HACA03,
2IFC,38,0,38,0,2.7,-1,correct answer,0.267228699988,True,False,stimulusHACA03_2IFC_2019_Jul_03_1402_377,stimulusHACA03_2IFC_2019_Jul_03_1402_378,False,2019_Jul_03_1402,2IFC,3,HACA03,
2IFC,39,0,39,0,2.7,-1,correct answer,0.434098400176,True,False,stimulusHACA03_2IFC_2019_Jul_03_1402_379,stimulusHACA03_2IFC_2019_Jul_03_1402_380,False,2019_Jul_03_1402,2IFC,3,HACA03,
2IFC,40,0,40,0,2.7,-1,wrong answer,0.301514300052,True,False,stimulusHACA03_2IFC_2019_Jul_03_1402_381,stimulusHACA03_2IFC_2019_Jul_03_1402_382,False,2019_Jul_03_1402,2IFC,3,HACA03,
2IFC,41,0,41,0,2.7,-1,correct answer,0.0664827001747,False,True,stimulusHACA03_2IFC_2019_Jul_03_1402_383,stimulusHACA03_2IFC_2019_Jul_03_1402_384,False,2019_Jul_03_1402,2IFC,3,HACA03,
2IFC,42,0,42,0,2.7,-1,wrong answer,0.268193399999,True,False,stimulusHACA03_2IFC_2019_Jul_03_1402_385,stimulusHACA03_2IFC_2019_Jul_03_1402_386,False,2019_Jul_03_1402,2IFC,3,HACA03,
2IFC,43,0,43,0,2.7,-1,correct answer,0.434242099989,False,True,stimulusHACA03_2IFC_2019_Jul_03_1402_387,stimulusHACA03_2IFC_2019_Jul_03_1402_388,False,2019_Jul_03_1402,2IFC,3,HACA03,
2IFC,44,0,44,0,2.7,-1,correct answer,0.60133980005,False,True,stimulusHACA03_2IFC_2019_Jul_03_1402_389,stimulusHACA03_2IFC_2019_Jul_03_1402_390,False,2019_Jul_03_1402,2IFC,3,HACA03,
2IFC,45,0,45,0,2.7,-1,correct answer,0.33452569996,False,True,stimulusHACA03_2IFC_2019_Jul_03_1402_391,stimulusHACA03_2IFC_2019_Jul_03_1402_392,False,2019_Jul_03_1402,2IFC,3,HACA03,
2IFC,46,0,46,0,2.7,-1,wrong answer,0.267623300198,False,True,stimulusHACA03_2IFC_2019_Jul_03_1402_393,stimulusHACA03_2IFC_2019_Jul_03_1402_394,False,2019_Jul_03_1402,2IFC,3,HACA03,
2IFC,47,0,47,0,2.7,-1,correct answer,0.0342274000868,False,True,stimulusHACA03_2IFC_2019_Jul_03_1402_395,stimulusHACA03_2IFC_2019_Jul_03_1402_396,False,2019_Jul_03_1402,2IFC,3,HACA03,
2IFC,48,0,48,0,2.7,-1,correct answer,0.435076500056,True,False,stimulusHACA03_2IFC_2019_Jul_03_1402_397,stimulusHACA03_2IFC_2019_Jul_03_1402_398,False,2019_Jul_03_1402,2IFC,3,HACA03,
2IFC,49,0,49,0,2.7,-1,wrong answer,0.467331600143,False,True,stimulusHACA03_2IFC_2019_Jul_03_1402_399,stimulusHACA03_2IFC_2019_Jul_03_1402_400,False,2019_Jul_03_1402,2IFC,3,HACA03,
2IFC,50,0,50,0,2.7,-1,correct answer,0.367499300046,True,False,stimulusHACA03_2IFC_2019_Jul_03_1402_401,stimulusHACA03_2IFC_2019_Jul_03_1402_402,False,2019_Jul_03_1402,2IFC,3,HACA03,
2IFC,51,0,51,0,2.7,-1,wrong answer,0.167599899927,True,False,stimulusHACA03_2IFC_2019_Jul_03_1402_403,stimulusHACA03_2IFC_2019_Jul_03_1402_404,False,2019_Jul_03_1402,2IFC,3,HACA03,
2IFC,52,0,52,0,2.7,-1,wrong answer,0.635128299939,True,False,stimulusHACA03_2IFC_2019_Jul_03_1402_405,stimulusHACA03_2IFC_2019_Jul_03_1402_406,False,2019_Jul_03_1402,2IFC,3,HACA03,
2IFC,53,0,53,0,2.7,-1,correct answer,0.333943099948,True,False,stimulusHACA03_2IFC_2019_Jul_03_1402_407,stimulusHACA03_2IFC_2019_Jul_03_1402_408,False,2019_Jul_03_1402,2IFC,3,HACA03,
2IFC,54,0,54,0,2.7,-1,correct answer,0.300587999867,True,False,stimulusHACA03_2IFC_2019_Jul_03_1402_409,stimulusHACA03_2IFC_2019_Jul_03_1402_410,False,2019_Jul_03_1402,2IFC,3,HACA03,
2IFC,55,0,55,0,2.7,-1,correct answer,0.3326198,True,False,stimulusHACA03_2IFC_2019_Jul_03_1402_411,stimulusHACA03_2IFC_2019_Jul_03_1402_412,False,2019_Jul_03_1402,2IFC,3,HACA03,
2IFC,56,0,56,0,2.7,-1,correct answer,0.301152799977,False,True,stimulusHACA03_2IFC_2019_Jul_03_1402_413,stimulusHACA03_2IFC_2019_Jul_03_1402_414,False,2019_Jul_03_1402,2IFC,3,HACA03,
2IFC,57,0,57,0,2.7,-1,correct answer,0.400775299873,False,True,stimulusHACA03_2IFC_2019_Jul_03_1402_415,stimulusHACA03_2IFC_2019_Jul_03_1402_416,False,2019_Jul_03_1402,2IFC,3,HACA03,
2IFC,58,0,58,0,2.7,-1,wrong answer,0.500919299899,False,True,stimulusHACA03_2IFC_2019_Jul_03_1402_417,stimulusHACA03_2IFC_2019_Jul_03_1402_418,False,2019_Jul_03_1402,2IFC,3,HACA03,
2IFC,59,0,59,0,2.7,-1,wrong answer,0.533839399926,False,True,stimulusHACA03_2IFC_2019_Jul_03_1402_419,stimulusHACA03_2IFC_2019_Jul_03_1402_420,False,2019_Jul_03_1402,2IFC,3,HACA03,
2IFC,60,0,60,0,2.7,-1,wrong answer,0.501085399883,False,True,stimulusHACA03_2IFC_2019_Jul_03_1402_421,stimulusHACA03_2IFC_2019_Jul_03_1402_422,False,2019_Jul_03_1402,2IFC,3,HACA03,
2IFC,61,0,61,0,2.7,-1,wrong answer,0.367718900088,False,True,stimulusHACA03_2IFC_2019_Jul_03_1402_423,stimulusHACA03_2IFC_2019_Jul_03_1402_424,False,2019_Jul_03_1402,2IFC,3,HACA03,
2IFC,62,0,62,0,2.7,-1,correct answer,0.300350300036,False,True,stimulusHACA03_2IFC_2019_Jul_03_1402_425,stimulusHACA03_2IFC_2019_Jul_03_1402_426,False,2019_Jul_03_1402,2IFC,3,HACA03,
2IFC,63,0,63,0,2.7,-1,correct answer,0.267317799851,True,False,stimulusHACA03_2IFC_2019_Jul_03_1402_427,stimulusHACA03_2IFC_2019_Jul_03_1402_428,False,2019_Jul_03_1402,2IFC,3,HACA03,
2IFC,64,0,64,0,2.7,-1,wrong answer,0.33313230006,True,False,stimulusHACA03_2IFC_2019_Jul_03_1402_429,stimulusHACA03_2IFC_2019_Jul_03_1402_430,False,2019_Jul_03_1402,2IFC,3,HACA03,
2IFC,65,0,65,0,2.7,-1,correct answer,0.268054499989,True,False,stimulusHACA03_2IFC_2019_Jul_03_1402_431,stimulusHACA03_2IFC_2019_Jul_03_1402_432,False,2019_Jul_03_1402,2IFC,3,HACA03,
2IFC,66,0,66,0,2.7,-1,correct answer,0.333377499832,True,False,stimulusHACA03_2IFC_2019_Jul_03_1402_433,stimulusHACA03_2IFC_2019_Jul_03_1402_434,False,2019_Jul_03_1402,2IFC,3,HACA03,
2IFC,67,0,67,0,2.7,-1,correct answer,0.46798419999,True,False,stimulusHACA03_2IFC_2019_Jul_03_1402_435,stimulusHACA03_2IFC_2019_Jul_03_1402_436,False,2019_Jul_03_1402,2IFC,3,HACA03,
2IFC,68,0,68,0,2.7,-1,correct answer,0.300376400119,False,True,stimulusHACA03_2IFC_2019_Jul_03_1402_437,stimulusHACA03_2IFC_2019_Jul_03_1402_438,False,2019_Jul_03_1402,2IFC,3,HACA03,
2IFC,69,0,69,0,2.7,-1,correct answer,0.267117099836,True,False,stimulusHACA03_2IFC_2019_Jul_03_1402_439,stimulusHACA03_2IFC_2019_Jul_03_1402_440,False,2019_Jul_03_1402,2IFC,3,HACA03,
2IFC,70,0,70,0,2.7,-1,correct answer,0.466611600015,True,False,stimulusHACA03_2IFC_2019_Jul_03_1402_441,stimulusHACA03_2IFC_2019_Jul_03_1402_442,False,2019_Jul_03_1402,2IFC,3,HACA03,
2IFC,71,0,71,0,2.7,-1,correct answer,0.100525799906,False,True,stimulusHACA03_2IFC_2019_Jul_03_1402_443,stimulusHACA03_2IFC_2019_Jul_03_1402_444,False,2019_Jul_03_1402,2IFC,3,HACA03,
2IFC,72,0,72,0,2.7,-1,wrong answer,0.433972000144,True,False,stimulusHACA03_2IFC_2019_Jul_03_1402_445,stimulusHACA03_2IFC_2019_Jul_03_1402_446,False,2019_Jul_03_1402,2IFC,3,HACA03,
2IFC,73,0,73,0,2.7,-1,wrong answer,0.433527500136,True,False,stimulusHACA03_2IFC_2019_Jul_03_1402_447,stimulusHACA03_2IFC_2019_Jul_03_1402_448,False,2019_Jul_03_1402,2IFC,3,HACA03,
2IFC,74,0,74,0,2.7,-1,correct answer,0.500903700013,False,True,stimulusHACA03_2IFC_2019_Jul_03_1402_449,stimulusHACA03_2IFC_2019_Jul_03_1402_450,False,2019_Jul_03_1402,2IFC,3,HACA03,
2IFC,0,0,0,0,8.8,-1,correct answer,0.633823600132,False,True,stimulusHACA03_2IFC_2019_Jul_03_1402_451,stimulusHACA03_2IFC_2019_Jul_03_1402_452,False,2019_Jul_03_1402,2IFC,3,HACA03,
2IFC,1,0,1,0,8.8,-1,correct answer,0.29936970002,True,False,stimulusHACA03_2IFC_2019_Jul_03_1402_453,stimulusHACA03_2IFC_2019_Jul_03_1402_454,False,2019_Jul_03_1402,2IFC,3,HACA03,
2IFC,2,0,2,0,8.8,-1,correct answer,0.434449299937,True,False,stimulusHACA03_2IFC_2019_Jul_03_1402_455,stimulusHACA03_2IFC_2019_Jul_03_1402_456,False,2019_Jul_03_1402,2IFC,3,HACA03,
2IFC,3,0,3,0,8.8,-1,correct answer,0.402002899908,False,True,stimulusHACA03_2IFC_2019_Jul_03_1402_457,stimulusHACA03_2IFC_2019_Jul_03_1402_458,False,2019_Jul_03_1402,2IFC,3,HACA03,
2IFC,4,0,4,0,8.8,-1,correct answer,0.300499300007,False,True,stimulusHACA03_2IFC_2019_Jul_03_1402_459,stimulusHACA03_2IFC_2019_Jul_03_1402_460,False,2019_Jul_03_1402,2IFC,3,HACA03,
2IFC,5,0,5,0,8.8,-1,correct answer,0.467354899971,False,True,stimulusHACA03_2IFC_2019_Jul_03_1402_461,stimulusHACA03_2IFC_2019_Jul_03_1402_462,False,2019_Jul_03_1402,2IFC,3,HACA03,
2IFC,6,0,6,0,8.8,-1,correct answer,0.468422200065,False,True,stimulusHACA03_2IFC_2019_Jul_03_1402_463,stimulusHACA03_2IFC_2019_Jul_03_1402_464,False,2019_Jul_03_1402,2IFC,3,HACA03,
2IFC,7,0,7,0,8.8,-1,wrong answer,0.101445999928,False,True,stimulusHACA03_2IFC_2019_Jul_03_1402_465,stimulusHACA03_2IFC_2019_Jul_03_1402_466,False,2019_Jul_03_1402,2IFC,3,HACA03,
2IFC,8,0,8,0,8.8,-1,correct answer,0.233628499787,True,False,stimulusHACA03_2IFC_2019_Jul_03_1402_467,stimulusHACA03_2IFC_2019_Jul_03_1402_468,False,2019_Jul_03_1402,2IFC,3,HACA03,
2IFC,9,0,9,0,8.8,-1,correct answer,0.0336561999284,False,True,stimulusHACA03_2IFC_2019_Jul_03_1402_469,stimulusHACA03_2IFC_2019_Jul_03_1402_470,False,2019_Jul_03_1402,2IFC,3,HACA03,
2IFC,10,0,10,0,8.8,-1,correct answer,0.266538799973,True,False,stimulusHACA03_2IFC_2019_Jul_03_1402_471,stimulusHACA03_2IFC_2019_Jul_03_1402_472,False,2019_Jul_03_1402,2IFC,3,HACA03,
2IFC,11,0,11,0,8.8,-1,correct answer,0.333491900004,True,False,stimulusHACA03_2IFC_2019_Jul_03_1402_473,stimulusHACA03_2IFC_2019_Jul_03_1402_474,False,2019_Jul_03_1402,2IFC,3,HACA03,
2IFC,12,0,12,0,8.8,-1,correct answer,0.36865790002,False,True,stimulusHACA03_2IFC_2019_Jul_03_1402_475,stimulusHACA03_2IFC_2019_Jul_03_1402_476,False,2019_Jul_03_1402,2IFC,3,HACA03,
2IFC,13,0,13,0,8.8,-1,correct answer,0.500353800133,False,True,stimulusHACA03_2IFC_2019_Jul_03_1402_477,stimulusHACA03_2IFC_2019_Jul_03_1402_478,False,2019_Jul_03_1402,2IFC,3,HACA03,
2IFC,14,0,14,0,8.8,-1,wrong answer,0.300622600131,False,True,stimulusHACA03_2IFC_2019_Jul_03_1402_479,stimulusHACA03_2IFC_2019_Jul_03_1402_480,False,2019_Jul_03_1402,2IFC,3,HACA03,
2IFC,15,0,15,0,8.8,-1,correct answer,0.401858699974,False,True,stimulusHACA03_2IFC_2019_Jul_03_1402_481,stimulusHACA03_2IFC_2019_Jul_03_1402_482,False,2019_Jul_03_1402,2IFC,3,HACA03,
2IFC,16,0,16,0,8.8,-1,wrong answer,0.633971200092,False,True,stimulusHACA03_2IFC_2019_Jul_03_1402_483,stimulusHACA03_2IFC_2019_Jul_03_1402_484,False,2019_Jul_03_1402,2IFC,3,HACA03,
2IFC,17,0,17,0,8.8,-1,correct answer,0.50197179988,False,True,stimulusHACA03_2IFC_2019_Jul_03_1402_485,stimulusHACA03_2IFC_2019_Jul_03_1402_486,False,2019_Jul_03_1402,2IFC,3,HACA03,
2IFC,18,0,18,0,8.8,-1,correct answer,0.567214800045,False,True,stimulusHACA03_2IFC_2019_Jul_03_1402_487,stimulusHACA03_2IFC_2019_Jul_03_1402_488,False,2019_Jul_03_1402,2IFC,3,HACA03,
2IFC,19,0,19,0,8.8,-1,correct answer,0.368233699817,False,True,stimulusHACA03_2IFC_2019_Jul_03_1402_489,stimulusHACA03_2IFC_2019_Jul_03_1402_490,False,2019_Jul_03_1402,2IFC,3,HACA03,
2IFC,20,0,20,0,8.8,-1,correct answer,0.400523199933,False,True,stimulusHACA03_2IFC_2019_Jul_03_1402_491,stimulusHACA03_2IFC_2019_Jul_03_1402_492,False,2019_Jul_03_1402,2IFC,3,HACA03,
2IFC,21,0,21,0,8.8,-1,correct answer,0.367101199925,True,False,stimulusHACA03_2IFC_2019_Jul_03_1402_493,stimulusHACA03_2IFC_2019_Jul_03_1402_494,False,2019_Jul_03_1402,2IFC,3,HACA03,
2IFC,22,0,22,0,8.8,-1,correct answer,0.26670700009,True,False,stimulusHACA03_2IFC_2019_Jul_03_1402_495,stimulusHACA03_2IFC_2019_Jul_03_1402_496,False,2019_Jul_03_1402,2IFC,3,HACA03,
2IFC,23,0,23,0,8.8,-1,correct answer,0.333708900027,True,False,stimulusHACA03_2IFC_2019_Jul_03_1402_497,stimulusHACA03_2IFC_2019_Jul_03_1402_498,False,2019_Jul_03_1402,2IFC,3,HACA03,
2IFC,24,0,24,0,8.8,-1,correct answer,0.300301499898,False,True,stimulusHACA03_2IFC_2019_Jul_03_1402_499,stimulusHACA03_2IFC_2019_Jul_03_1402_500,False,2019_Jul_03_1402,2IFC,3,HACA03,
2IFC,25,0,25,0,8.8,-1,correct answer,0.333831399912,False,True,stimulusHACA03_2IFC_2019_Jul_03_1402_501,stimulusHACA03_2IFC_2019_Jul_03_1402_502,False,2019_Jul_03_1402,2IFC,3,HACA03,
2IFC,26,0,26,0,8.8,-1,wrong answer,0.433784499997,True,False,stimulusHACA03_2IFC_2019_Jul_03_1402_503,stimulusHACA03_2IFC_2019_Jul_03_1402_504,False,2019_Jul_03_1402,2IFC,3,HACA03,
2IFC,27,0,27,0,8.8,-1,correct answer,0.168059800053,True,False,stimulusHACA03_2IFC_2019_Jul_03_1402_505,stimulusHACA03_2IFC_2019_Jul_03_1402_506,False,2019_Jul_03_1402,2IFC,3,HACA03,
2IFC,28,0,28,0,8.8,-1,correct answer,0.135188400047,True,False,stimulusHACA03_2IFC_2019_Jul_03_1402_507,stimulusHACA03_2IFC_2019_Jul_03_1402_508,False,2019_Jul_03_1402,2IFC,3,HACA03,
2IFC,29,0,29,0,8.8,-1,correct answer,0.0672832001001,False,True,stimulusHACA03_2IFC_2019_Jul_03_1402_509,stimulusHACA03_2IFC_2019_Jul_03_1402_510,False,2019_Jul_03_1402,2IFC,3,HACA03,
2IFC,30,0,30,0,8.8,-1,correct answer,0.300601999974,False,True,stimulusHACA03_2IFC_2019_Jul_03_1402_511,stimulusHACA03_2IFC_2019_Jul_03_1402_512,False,2019_Jul_03_1402,2IFC,3,HACA03,
2IFC,31,0,31,0,8.8,-1,correct answer,0.333787200041,True,False,stimulusHACA03_2IFC_2019_Jul_03_1402_513,stimulusHACA03_2IFC_2019_Jul_03_1402_514,False,2019_Jul_03_1402,2IFC,3,HACA03,
2IFC,32,0,32,0,8.8,-1,correct answer,0.0669213000219,True,False,stimulusHACA03_2IFC_2019_Jul_03_1402_515,stimulusHACA03_2IFC_2019_Jul_03_1402_516,False,2019_Jul_03_1402,2IFC,3,HACA03,
2IFC,33,0,33,0,8.8,-1,correct answer,0.167509499937,True,False,stimulusHACA03_2IFC_2019_Jul_03_1402_517,stimulusHACA03_2IFC_2019_Jul_03_1402_518,False,2019_Jul_03_1402,2IFC,3,HACA03,
2IFC,34,0,34,0,8.8,-1,correct answer,0.267560800072,False,True,stimulusHACA03_2IFC_2019_Jul_03_1402_519,stimulusHACA03_2IFC_2019_Jul_03_1402_520,False,2019_Jul_03_1402,2IFC,3,HACA03,
2IFC,35,0,35,0,8.8,-1,correct answer,0.566525900038,True,False,stimulusHACA03_2IFC_2019_Jul_03_1402_521,stimulusHACA03_2IFC_2019_Jul_03_1402_522,False,2019_Jul_03_1402,2IFC,3,HACA03,
2IFC,36,0,36,0,8.8,-1,correct answer,0.233967999928,True,False,stimulusHACA03_2IFC_2019_Jul_03_1402_523,stimulusHACA03_2IFC_2019_Jul_03_1402_524,False,2019_Jul_03_1402,2IFC,3,HACA03,
2IFC,37,0,37,0,8.8,-1,correct answer,0.0674443999305,False,True,stimulusHACA03_2IFC_2019_Jul_03_1402_525,stimulusHACA03_2IFC_2019_Jul_03_1402_526,False,2019_Jul_03_1402,2IFC,3,HACA03,
2IFC,38,0,38,0,8.8,-1,correct answer,0.300529199885,False,True,stimulusHACA03_2IFC_2019_Jul_03_1402_527,stimulusHACA03_2IFC_2019_Jul_03_1402_528,False,2019_Jul_03_1402,2IFC,3,HACA03,
2IFC,39,0,39,0,8.8,-1,correct answer,0.133589700097,True,False,stimulusHACA03_2IFC_2019_Jul_03_1402_529,stimulusHACA03_2IFC_2019_Jul_03_1402_530,False,2019_Jul_03_1402,2IFC,3,HACA03,
2IFC,40,0,40,0,8.8,-1,correct answer,0.0681086000986,False,True,stimulusHACA03_2IFC_2019_Jul_03_1402_531,stimulusHACA03_2IFC_2019_Jul_03_1402_532,False,2019_Jul_03_1402,2IFC,3,HACA03,
2IFC,41,0,41,0,8.8,-1,correct answer,0.133554699831,True,False,stimulusHACA03_2IFC_2019_Jul_03_1402_533,stimulusHACA03_2IFC_2019_Jul_03_1402_534,False,2019_Jul_03_1402,2IFC,3,HACA03,
2IFC,42,0,42,0,8.8,-1,correct answer,0.0336831999011,False,True,stimulusHACA03_2IFC_2019_Jul_03_1402_535,stimulusHACA03_2IFC_2019_Jul_03_1402_536,False,2019_Jul_03_1402,2IFC,3,HACA03,
2IFC,43,0,43,0,8.8,-1,correct answer,0.200428699842,True,False,stimulusHACA03_2IFC_2019_Jul_03_1402_537,stimulusHACA03_2IFC_2019_Jul_03_1402_538,False,2019_Jul_03_1402,2IFC,3,HACA03,
2IFC,44,0,44,0,8.8,-1,correct answer,0.0674968999811,True,False,stimulusHACA03_2IFC_2019_Jul_03_1402_539,stimulusHACA03_2IFC_2019_Jul_03_1402_540,False,2019_Jul_03_1402,2IFC,3,HACA03,
2IFC,45,0,45,0,8.8,-1,correct answer,0.0995453000069,False,True,stimulusHACA03_2IFC_2019_Jul_03_1402_541,stimulusHACA03_2IFC_2019_Jul_03_1402_542,False,2019_Jul_03_1402,2IFC,3,HACA03,
2IFC,46,0,46,0,8.8,-1,correct answer,0.0676476000808,False,True,stimulusHACA03_2IFC_2019_Jul_03_1402_543,stimulusHACA03_2IFC_2019_Jul_03_1402_544,False,2019_Jul_03_1402,2IFC,3,HACA03,
2IFC,47,0,47,0,8.8,-1,correct answer,0.0338012999855,False,True,stimulusHACA03_2IFC_2019_Jul_03_1402_545,stimulusHACA03_2IFC_2019_Jul_03_1402_546,False,2019_Jul_03_1402,2IFC,3,HACA03,
2IFC,48,0,48,0,8.8,-1,correct answer,0.167965600034,False,True,stimulusHACA03_2IFC_2019_Jul_03_1402_547,stimulusHACA03_2IFC_2019_Jul_03_1402_548,False,2019_Jul_03_1402,2IFC,3,HACA03,
2IFC,49,0,49,0,8.8,-1,correct answer,0.13385870005,True,False,stimulusHACA03_2IFC_2019_Jul_03_1402_549,stimulusHACA03_2IFC_2019_Jul_03_1402_550,False,2019_Jul_03_1402,2IFC,3,HACA03,
2IFC,50,0,50,0,8.8,-1,correct answer,0.199688700028,True,False,stimulusHACA03_2IFC_2019_Jul_03_1402_551,stimulusHACA03_2IFC_2019_Jul_03_1402_552,False,2019_Jul_03_1402,2IFC,3,HACA03,
2IFC,51,0,51,0,8.8,-1,correct answer,0.0677399002016,False,True,stimulusHACA03_2IFC_2019_Jul_03_1402_553,stimulusHACA03_2IFC_2019_Jul_03_1402_554,False,2019_Jul_03_1402,2IFC,3,HACA03,
2IFC,52,0,52,0,8.8,-1,correct answer,0.267360600177,True,False,stimulusHACA03_2IFC_2019_Jul_03_1402_555,stimulusHACA03_2IFC_2019_Jul_03_1402_556,False,2019_Jul_03_1402,2IFC,3,HACA03,
2IFC,53,0,53,0,8.8,-1,correct answer,0.26727880002,True,False,stimulusHACA03_2IFC_2019_Jul_03_1402_557,stimulusHACA03_2IFC_2019_Jul_03_1402_558,False,2019_Jul_03_1402,2IFC,3,HACA03,
2IFC,54,0,54,0,8.8,-1,correct answer,0.300094400067,True,False,stimulusHACA03_2IFC_2019_Jul_03_1402_559,stimulusHACA03_2IFC_2019_Jul_03_1402_560,False,2019_Jul_03_1402,2IFC,3,HACA03,
2IFC,55,0,55,0,8.8,-1,correct answer,0.200380800059,True,False,stimulusHACA03_2IFC_2019_Jul_03_1402_561,stimulusHACA03_2IFC_2019_Jul_03_1402_562,False,2019_Jul_03_1402,2IFC,3,HACA03,
2IFC,56,0,56,0,8.8,-1,correct answer,0.500846599927,False,True,stimulusHACA03_2IFC_2019_Jul_03_1402_563,stimulusHACA03_2IFC_2019_Jul_03_1402_564,False,2019_Jul_03_1402,2IFC,3,HACA03,
2IFC,57,0,57,0,8.8,-1,correct answer,0.201894599944,True,False,stimulusHACA03_2IFC_2019_Jul_03_1402_565,stimulusHACA03_2IFC_2019_Jul_03_1402_566,False,2019_Jul_03_1402,2IFC,3,HACA03,
2IFC,58,0,58,0,8.8,-1,correct answer,0.103801200166,False,True,stimulusHACA03_2IFC_2019_Jul_03_1402_567,stimulusHACA03_2IFC_2019_Jul_03_1402_568,False,2019_Jul_03_1402,2IFC,3,HACA03,
2IFC,59,0,59,0,8.8,-1,correct answer,0.367012800183,False,True,stimulusHACA03_2IFC_2019_Jul_03_1402_569,stimulusHACA03_2IFC_2019_Jul_03_1402_570,False,2019_Jul_03_1402,2IFC,3,HACA03,
2IFC,60,0,60,0,8.8,-1,correct answer,0.434882699978,False,True,stimulusHACA03_2IFC_2019_Jul_03_1402_571,stimulusHACA03_2IFC_2019_Jul_03_1402_572,False,2019_Jul_03_1402,2IFC,3,HACA03,
2IFC,61,0,61,0,8.8,-1,correct answer,0.266561400145,True,False,stimulusHACA03_2IFC_2019_Jul_03_1402_573,stimulusHACA03_2IFC_2019_Jul_03_1402_574,False,2019_Jul_03_1402,2IFC,3,HACA03,
2IFC,62,0,62,0,8.8,-1,correct answer,0.233633899828,False,True,stimulusHACA03_2IFC_2019_Jul_03_1402_575,stimulusHACA03_2IFC_2019_Jul_03_1402_576,False,2019_Jul_03_1402,2IFC,3,HACA03,
2IFC,63,0,63,0,8.8,-1,correct answer,0.0668321999256,True,False,stimulusHACA03_2IFC_2019_Jul_03_1402_577,stimulusHACA03_2IFC_2019_Jul_03_1402_578,False,2019_Jul_03_1402,2IFC,3,HACA03,
2IFC,64,0,64,0,8.8,-1,correct answer,0.50166040007,True,False,stimulusHACA03_2IFC_2019_Jul_03_1402_579,stimulusHACA03_2IFC_2019_Jul_03_1402_580,False,2019_Jul_03_1402,2IFC,3,HACA03,
2IFC,65,0,65,0,8.8,-1,correct answer,0.234664799878,True,False,stimulusHACA03_2IFC_2019_Jul_03_1402_581,stimulusHACA03_2IFC_2019_Jul_03_1402_582,False,2019_Jul_03_1402,2IFC,3,HACA03,
2IFC,66,0,66,0,8.8,-1,correct answer,0.0999425000045,False,True,stimulusHACA03_2IFC_2019_Jul_03_1402_583,stimulusHACA03_2IFC_2019_Jul_03_1402_584,False,2019_Jul_03_1402,2IFC,3,HACA03,
2IFC,67,0,67,0,8.8,-1,correct answer,0.0662263999693,True,False,stimulusHACA03_2IFC_2019_Jul_03_1402_585,stimulusHACA03_2IFC_2019_Jul_03_1402_586,False,2019_Jul_03_1402,2IFC,3,HACA03,
2IFC,68,0,68,0,8.8,-1,correct answer,0.0665396000259,False,True,stimulusHACA03_2IFC_2019_Jul_03_1402_587,stimulusHACA03_2IFC_2019_Jul_03_1402_588,False,2019_Jul_03_1402,2IFC,3,HACA03,
2IFC,69,0,69,0,8.8,-1,wrong answer,0.269267200027,False,True,stimulusHACA03_2IFC_2019_Jul_03_1402_589,stimulusHACA03_2IFC_2019_Jul_03_1402_590,False,2019_Jul_03_1402,2IFC,3,HACA03,
2IFC,70,0,70,0,8.8,-1,correct answer,0.134261399973,True,False,stimulusHACA03_2IFC_2019_Jul_03_1402_591,stimulusHACA03_2IFC_2019_Jul_03_1402_592,False,2019_Jul_03_1402,2IFC,3,HACA03,
2IFC,71,0,71,0,8.8,-1,correct answer,0.234087400138,False,True,stimulusHACA03_2IFC_2019_Jul_03_1402_593,stimulusHACA03_2IFC_2019_Jul_03_1402_594,False,2019_Jul_03_1402,2IFC,3,HACA03,
2IFC,72,0,72,0,8.8,-1,correct answer,0.100856000092,False,True,stimulusHACA03_2IFC_2019_Jul_03_1402_595,stimulusHACA03_2IFC_2019_Jul_03_1402_596,False,2019_Jul_03_1402,2IFC,3,HACA03,
2IFC,73,0,73,0,8.8,-1,correct answer,0.100229700096,True,False,stimulusHACA03_2IFC_2019_Jul_03_1402_597,stimulusHACA03_2IFC_2019_Jul_03_1402_598,False,2019_Jul_03_1402,2IFC,3,HACA03,
2IFC,74,0,74,0,8.8,-1,wrong answer,0.46780740004,False,True,stimulusHACA03_2IFC_2019_Jul_03_1402_599,stimulusHACA03_2IFC_2019_Jul_03_1402_600,False,2019_Jul_03_1402,2IFC,3,HACA03,
2IFC,0,0,0,0,5.7,-1,correct answer,0.533059300156,True,False,stimulusHACA03_2IFC_2019_Jul_03_1402_601,stimulusHACA03_2IFC_2019_Jul_03_1402_602,False,2019_Jul_03_1402,2IFC,3,HACA03,
2IFC,1,0,1,0,5.7,-1,correct answer,0.267538500018,True,False,stimulusHACA03_2IFC_2019_Jul_03_1402_603,stimulusHACA03_2IFC_2019_Jul_03_1402_604,False,2019_Jul_03_1402,2IFC,3,HACA03,
2IFC,2,0,2,0,5.7,-1,correct answer,0.23403130006,True,False,stimulusHACA03_2IFC_2019_Jul_03_1402_605,stimulusHACA03_2IFC_2019_Jul_03_1402_606,False,2019_Jul_03_1402,2IFC,3,HACA03,
2IFC,3,0,3,0,5.7,-1,correct answer,0.300108599942,True,False,stimulusHACA03_2IFC_2019_Jul_03_1402_607,stimulusHACA03_2IFC_2019_Jul_03_1402_608,False,2019_Jul_03_1402,2IFC,3,HACA03,
2IFC,4,0,4,0,5.7,-1,correct answer,0.333824099973,False,True,stimulusHACA03_2IFC_2019_Jul_03_1402_609,stimulusHACA03_2IFC_2019_Jul_03_1402_610,False,2019_Jul_03_1402,2IFC,3,HACA03,
2IFC,5,0,5,0,5.7,-1,wrong answer,0.332900200039,False,True,stimulusHACA03_2IFC_2019_Jul_03_1402_611,stimulusHACA03_2IFC_2019_Jul_03_1402_612,False,2019_Jul_03_1402,2IFC,3,HACA03,
2IFC,6,0,6,0,5.7,-1,correct answer,0.300872999942,False,True,stimulusHACA03_2IFC_2019_Jul_03_1402_613,stimulusHACA03_2IFC_2019_Jul_03_1402_614,False,2019_Jul_03_1402,2IFC,3,HACA03,
2IFC,7,0,7,0,5.7,-1,correct answer,0.300690399949,False,True,stimulusHACA03_2IFC_2019_Jul_03_1402_615,stimulusHACA03_2IFC_2019_Jul_03_1402_616,False,2019_Jul_03_1402,2IFC,3,HACA03,
2IFC,8,0,8,0,5.7,-1,correct answer,0.467823000159,True,False,stimulusHACA03_2IFC_2019_Jul_03_1402_617,stimulusHACA03_2IFC_2019_Jul_03_1402_618,False,2019_Jul_03_1402,2IFC,3,HACA03,
2IFC,9,0,9,0,5.7,-1,wrong answer,0.434457299998,False,True,stimulusHACA03_2IFC_2019_Jul_03_1402_619,stimulusHACA03_2IFC_2019_Jul_03_1402_620,False,2019_Jul_03_1402,2IFC,3,HACA03,
2IFC,10,0,10,0,5.7,-1,correct answer,0.166914599948,False,True,stimulusHACA03_2IFC_2019_Jul_03_1402_621,stimulusHACA03_2IFC_2019_Jul_03_1402_622,False,2019_Jul_03_1402,2IFC,3,HACA03,
2IFC,11,0,11,0,5.7,-1,correct answer,0.101822199998,False,True,stimulusHACA03_2IFC_2019_Jul_03_1402_623,stimulusHACA03_2IFC_2019_Jul_03_1402_624,False,2019_Jul_03_1402,2IFC,3,HACA03,
2IFC,12,0,12,0,5.7,-1,correct answer,0.300646899967,False,True,stimulusHACA03_2IFC_2019_Jul_03_1402_625,stimulusHACA03_2IFC_2019_Jul_03_1402_626,False,2019_Jul_03_1402,2IFC,3,HACA03,
2IFC,13,0,13,0,5.7,-1,correct answer,0.50061470014,False,True,stimulusHACA03_2IFC_2019_Jul_03_1402_627,stimulusHACA03_2IFC_2019_Jul_03_1402_628,False,2019_Jul_03_1402,2IFC,3,HACA03,
2IFC,14,0,14,0,5.7,-1,correct answer,0.100067999912,True,False,stimulusHACA03_2IFC_2019_Jul_03_1402_629,stimulusHACA03_2IFC_2019_Jul_03_1402_630,False,2019_Jul_03_1402,2IFC,3,HACA03,
2IFC,15,0,15,0,5.7,-1,wrong answer,0.467639699811,False,True,stimulusHACA03_2IFC_2019_Jul_03_1402_631,stimulusHACA03_2IFC_2019_Jul_03_1402_632,False,2019_Jul_03_1402,2IFC,3,HACA03,
2IFC,16,0,16,0,5.7,-1,correct answer,0.167633900186,True,False,stimulusHACA03_2IFC_2019_Jul_03_1402_633,stimulusHACA03_2IFC_2019_Jul_03_1402_634,False,2019_Jul_03_1402,2IFC,3,HACA03,
2IFC,17,0,17,0,5.7,-1,wrong answer,0.167389400071,False,True,stimulusHACA03_2IFC_2019_Jul_03_1402_635,stimulusHACA03_2IFC_2019_Jul_03_1402_636,False,2019_Jul_03_1402,2IFC,3,HACA03,
2IFC,18,0,18,0,5.7,-1,wrong answer,0.601782699814,True,False,stimulusHACA03_2IFC_2019_Jul_03_1402_637,stimulusHACA03_2IFC_2019_Jul_03_1402_638,False,2019_Jul_03_1402,2IFC,3,HACA03,
2IFC,19,0,19,0,5.7,-1,wrong answer,0.734404599993,False,True,stimulusHACA03_2IFC_2019_Jul_03_1402_639,stimulusHACA03_2IFC_2019_Jul_03_1402_640,False,2019_Jul_03_1402,2IFC,3,HACA03,
2IFC,20,0,20,0,5.7,-1,correct answer,0.500855700113,False,True,stimulusHACA03_2IFC_2019_Jul_03_1402_641,stimulusHACA03_2IFC_2019_Jul_03_1402_642,False,2019_Jul_03_1402,2IFC,3,HACA03,
2IFC,21,0,21,0,5.7,-1,wrong answer,0.334840300027,True,False,stimulusHACA03_2IFC_2019_Jul_03_1402_643,stimulusHACA03_2IFC_2019_Jul_03_1402_644,False,2019_Jul_03_1402,2IFC,3,HACA03,
2IFC,22,0,22,0,5.7,-1,wrong answer,0.333950100001,False,True,stimulusHACA03_2IFC_2019_Jul_03_1402_645,stimulusHACA03_2IFC_2019_Jul_03_1402_646,False,2019_Jul_03_1402,2IFC,3,HACA03,
2IFC,23,0,23,0,5.7,-1,correct answer,0.300173999975,False,True,stimulusHACA03_2IFC_2019_Jul_03_1402_647,stimulusHACA03_2IFC_2019_Jul_03_1402_648,False,2019_Jul_03_1402,2IFC,3,HACA03,
2IFC,24,0,24,0,5.7,-1,correct answer,0.402200399898,False,True,stimulusHACA03_2IFC_2019_Jul_03_1402_649,stimulusHACA03_2IFC_2019_Jul_03_1402_650,False,2019_Jul_03_1402,2IFC,3,HACA03,
2IFC,25,0,25,0,5.7,-1,correct answer,0.599777699914,False,True,stimulusHACA03_2IFC_2019_Jul_03_1402_651,stimulusHACA03_2IFC_2019_Jul_03_1402_652,False,2019_Jul_03_1402,2IFC,3,HACA03,
2IFC,26,0,26,0,5.7,-1,correct answer,0.0669394999277,False,True,stimulusHACA03_2IFC_2019_Jul_03_1402_653,stimulusHACA03_2IFC_2019_Jul_03_1402_654,False,2019_Jul_03_1402,2IFC,3,HACA03,
2IFC,27,0,27,0,5.7,-1,wrong answer,0.400949100032,True,False,stimulusHACA03_2IFC_2019_Jul_03_1402_655,stimulusHACA03_2IFC_2019_Jul_03_1402_656,False,2019_Jul_03_1402,2IFC,3,HACA03,
2IFC,28,0,28,0,5.7,-1,correct answer,0.500872199889,False,True,stimulusHACA03_2IFC_2019_Jul_03_1402_657,stimulusHACA03_2IFC_2019_Jul_03_1402_658,False,2019_Jul_03_1402,2IFC,3,HACA03,
2IFC,29,0,29,0,5.7,-1,correct answer,0.46752249985,False,True,stimulusHACA03_2IFC_2019_Jul_03_1402_659,stimulusHACA03_2IFC_2019_Jul_03_1402_660,False,2019_Jul_03_1402,2IFC,3,HACA03,
2IFC,30,0,30,0,5.7,-1,correct answer,0.300264900085,True,False,stimulusHACA03_2IFC_2019_Jul_03_1402_661,stimulusHACA03_2IFC_2019_Jul_03_1402_662,False,2019_Jul_03_1402,2IFC,3,HACA03,
2IFC,31,0,31,0,5.7,-1,correct answer,0.267147400184,False,True,stimulusHACA03_2IFC_2019_Jul_03_1402_663,stimulusHACA03_2IFC_2019_Jul_03_1402_664,False,2019_Jul_03_1402,2IFC,3,HACA03,
2IFC,32,0,32,0,5.7,-1,wrong answer,0.434202900156,True,False,stimulusHACA03_2IFC_2019_Jul_03_1402_665,stimulusHACA03_2IFC_2019_Jul_03_1402_666,False,2019_Jul_03_1402,2IFC,3,HACA03,
2IFC,33,0,33,0,5.7,-1,correct answer,0.567936399952,True,False,stimulusHACA03_2IFC_2019_Jul_03_1402_667,stimulusHACA03_2IFC_2019_Jul_03_1402_668,False,2019_Jul_03_1402,2IFC,3,HACA03,
2IFC,34,0,34,0,5.7,-1,correct answer,0.533547600033,False,True,stimulusHACA03_2IFC_2019_Jul_03_1402_669,stimulusHACA03_2IFC_2019_Jul_03_1402_670,False,2019_Jul_03_1402,2IFC,3,HACA03,
2IFC,35,0,35,0,5.7,-1,correct answer,0.401190799894,False,True,stimulusHACA03_2IFC_2019_Jul_03_1402_671,stimulusHACA03_2IFC_2019_Jul_03_1402_672,False,2019_Jul_03_1402,2IFC,3,HACA03,
2IFC,36,0,36,0,5.7,-1,correct answer,0.400416900171,False,True,stimulusHACA03_2IFC_2019_Jul_03_1402_673,stimulusHACA03_2IFC_2019_Jul_03_1402_674,False,2019_Jul_03_1402,2IFC,3,HACA03,
2IFC,37,0,37,0,5.7,-1,correct answer,0.267470600083,True,False,stimulusHACA03_2IFC_2019_Jul_03_1402_675,stimulusHACA03_2IFC_2019_Jul_03_1402_676,False,2019_Jul_03_1402,2IFC,3,HACA03,
2IFC,38,0,38,0,5.7,-1,correct answer,0.167243200121,False,True,stimulusHACA03_2IFC_2019_Jul_03_1402_677,stimulusHACA03_2IFC_2019_Jul_03_1402_678,False,2019_Jul_03_1402,2IFC,3,HACA03,
2IFC,39,0,39,0,5.7,-1,correct answer,0.0673993998207,True,False,stimulusHACA03_2IFC_2019_Jul_03_1402_679,stimulusHACA03_2IFC_2019_Jul_03_1402_680,False,2019_Jul_03_1402,2IFC,3,HACA03,
2IFC,40,0,40,0,5.7,-1,wrong answer,0.498984500067,False,True,stimulusHACA03_2IFC_2019_Jul_03_1402_681,stimulusHACA03_2IFC_2019_Jul_03_1402_682,False,2019_Jul_03_1402,2IFC,3,HACA03,
2IFC,41,0,41,0,5.7,-1,correct answer,0.434556100052,True,False,stimulusHACA03_2IFC_2019_Jul_03_1402_683,stimulusHACA03_2IFC_2019_Jul_03_1402_684,False,2019_Jul_03_1402,2IFC,3,HACA03,
2IFC,42,0,42,0,5.7,-1,correct answer,0.267430499895,False,True,stimulusHACA03_2IFC_2019_Jul_03_1402_685,stimulusHACA03_2IFC_2019_Jul_03_1402_686,False,2019_Jul_03_1402,2IFC,3,HACA03,
2IFC,43,0,43,0,5.7,-1,wrong answer,0.167540700175,False,True,stimulusHACA03_2IFC_2019_Jul_03_1402_687,stimulusHACA03_2IFC_2019_Jul_03_1402_688,False,2019_Jul_03_1402,2IFC,3,HACA03,
2IFC,44,0,44,0,5.7,-1,correct answer,0.400680500083,False,True,stimulusHACA03_2IFC_2019_Jul_03_1402_689,stimulusHACA03_2IFC_2019_Jul_03_1402_690,False,2019_Jul_03_1402,2IFC,3,HACA03,
2IFC,45,0,45,0,5.7,-1,correct answer,0.133976100013,True,False,stimulusHACA03_2IFC_2019_Jul_03_1402_691,stimulusHACA03_2IFC_2019_Jul_03_1402_692,False,2019_Jul_03_1402,2IFC,3,HACA03,
2IFC,46,0,46,0,5.7,-1,correct answer,0.0679246999789,False,True,stimulusHACA03_2IFC_2019_Jul_03_1402_693,stimulusHACA03_2IFC_2019_Jul_03_1402_694,False,2019_Jul_03_1402,2IFC,3,HACA03,
2IFC,47,0,47,0,5.7,-1,correct answer,0.301465800032,False,True,stimulusHACA03_2IFC_2019_Jul_03_1402_695,stimulusHACA03_2IFC_2019_Jul_03_1402_696,False,2019_Jul_03_1402,2IFC,3,HACA03,
2IFC,48,0,48,0,5.7,-1,correct answer,0.234095399966,True,False,stimulusHACA03_2IFC_2019_Jul_03_1402_697,stimulusHACA03_2IFC_2019_Jul_03_1402_698,False,2019_Jul_03_1402,2IFC,3,HACA03,
2IFC,49,0,49,0,5.7,-1,correct answer,0.467186500086,True,False,stimulusHACA03_2IFC_2019_Jul_03_1402_699,stimulusHACA03_2IFC_2019_Jul_03_1402_700,False,2019_Jul_03_1402,2IFC,3,HACA03,
2IFC,50,0,50,0,5.7,-1,correct answer,0.200305700069,True,False,stimulusHACA03_2IFC_2019_Jul_03_1402_701,stimulusHACA03_2IFC_2019_Jul_03_1402_702,False,2019_Jul_03_1402,2IFC,3,HACA03,
2IFC,51,0,51,0,5.7,-1,correct answer,0.46757720015,False,True,stimulusHACA03_2IFC_2019_Jul_03_1402_703,stimulusHACA03_2IFC_2019_Jul_03_1402_704,False,2019_Jul_03_1402,2IFC,3,HACA03,
2IFC,52,0,52,0,5.7,-1,wrong answer,0.0675863001961,False,True,stimulusHACA03_2IFC_2019_Jul_03_1402_705,stimulusHACA03_2IFC_2019_Jul_03_1402_706,False,2019_Jul_03_1402,2IFC,3,HACA03,
2IFC,53,0,53,0,5.7,-1,correct answer,0.300811000168,False,True,stimulusHACA03_2IFC_2019_Jul_03_1402_707,stimulusHACA03_2IFC_2019_Jul_03_1402_708,False,2019_Jul_03_1402,2IFC,3,HACA03,
2IFC,54,0,54,0,5.7,-1,correct answer,0.266376100015,False,True,stimulusHACA03_2IFC_2019_Jul_03_1402_709,stimulusHACA03_2IFC_2019_Jul_03_1402_710,False,2019_Jul_03_1402,2IFC,3,HACA03,
2IFC,55,0,55,0,5.7,-1,correct answer,0.46698180004,False,True,stimulusHACA03_2IFC_2019_Jul_03_1402_711,stimulusHACA03_2IFC_2019_Jul_03_1402_712,False,2019_Jul_03_1402,2IFC,3,HACA03,
2IFC,56,0,56,0,5.7,-1,no answer,-1,False,True,stimulusHACA03_2IFC_2019_Jul_03_1402_713,stimulusHACA03_2IFC_2019_Jul_03_1402_714,False,2019_Jul_03_1402,2IFC,3,HACA03,
2IFC,57,0,57,0,5.7,-1,correct answer,0.600130900042,False,True,stimulusHACA03_2IFC_2019_Jul_03_1402_715,stimulusHACA03_2IFC_2019_Jul_03_1402_716,False,2019_Jul_03_1402,2IFC,3,HACA03,
2IFC,58,0,58,0,5.7,-1,correct answer,0.368368500145,False,True,stimulusHACA03_2IFC_2019_Jul_03_1402_717,stimulusHACA03_2IFC_2019_Jul_03_1402_718,False,2019_Jul_03_1402,2IFC,3,HACA03,
2IFC,59,0,59,0,5.7,-1,correct answer,0.300512199989,False,True,stimulusHACA03_2IFC_2019_Jul_03_1402_719,stimulusHACA03_2IFC_2019_Jul_03_1402_720,False,2019_Jul_03_1402,2IFC,3,HACA03,
2IFC,60,0,60,0,5.7,-1,wrong answer,0.200495600002,True,False,stimulusHACA03_2IFC_2019_Jul_03_1402_721,stimulusHACA03_2IFC_2019_Jul_03_1402_722,False,2019_Jul_03_1402,2IFC,3,HACA03,
2IFC,61,0,61,0,5.7,-1,correct answer,0.468067700043,False,True,stimulusHACA03_2IFC_2019_Jul_03_1402_723,stimulusHACA03_2IFC_2019_Jul_03_1402_724,False,2019_Jul_03_1402,2IFC,3,HACA03,
2IFC,62,0,62,0,5.7,-1,correct answer,0.267095500138,True,False,stimulusHACA03_2IFC_2019_Jul_03_1402_725,stimulusHACA03_2IFC_2019_Jul_03_1402_726,False,2019_Jul_03_1402,2IFC,3,HACA03,
2IFC,63,0,63,0,5.7,-1,correct answer,0.200223400025,True,False,stimulusHACA03_2IFC_2019_Jul_03_1402_727,stimulusHACA03_2IFC_2019_Jul_03_1402_728,False,2019_Jul_03_1402,2IFC,3,HACA03,
2IFC,64,0,64,0,5.7,-1,correct answer,0.0999378999695,False,True,stimulusHACA03_2IFC_2019_Jul_03_1402_729,stimulusHACA03_2IFC_2019_Jul_03_1402_730,False,2019_Jul_03_1402,2IFC,3,HACA03,
2IFC,65,0,65,0,5.7,-1,correct answer,0.267580899876,False,True,stimulusHACA03_2IFC_2019_Jul_03_1402_731,stimulusHACA03_2IFC_2019_Jul_03_1402_732,False,2019_Jul_03_1402,2IFC,3,HACA03,
2IFC,66,0,66,0,5.7,-1,correct answer,0.0680766000878,True,False,stimulusHACA03_2IFC_2019_Jul_03_1402_733,stimulusHACA03_2IFC_2019_Jul_03_1402_734,False,2019_Jul_03_1402,2IFC,3,HACA03,
2IFC,67,0,67,0,5.7,-1,correct answer,0.167887199903,True,False,stimulusHACA03_2IFC_2019_Jul_03_1402_735,stimulusHACA03_2IFC_2019_Jul_03_1402_736,False,2019_Jul_03_1402,2IFC,3,HACA03,
2IFC,68,0,68,0,5.7,-1,wrong answer,0.267542900052,True,False,stimulusHACA03_2IFC_2019_Jul_03_1402_737,stimulusHACA03_2IFC_2019_Jul_03_1402_738,False,2019_Jul_03_1402,2IFC,3,HACA03,
2IFC,69,0,69,0,5.7,-1,correct answer,0.200385499978,False,True,stimulusHACA03_2IFC_2019_Jul_03_1402_739,stimulusHACA03_2IFC_2019_Jul_03_1402_740,False,2019_Jul_03_1402,2IFC,3,HACA03,
2IFC,70,0,70,0,5.7,-1,correct answer,0.166760600172,False,True,stimulusHACA03_2IFC_2019_Jul_03_1402_741,stimulusHACA03_2IFC_2019_Jul_03_1402_742,False,2019_Jul_03_1402,2IFC,3,HACA03,
2IFC,71,0,71,0,5.7,-1,wrong answer,0.333348500077,False,True,stimulusHACA03_2IFC_2019_Jul_03_1402_743,stimulusHACA03_2IFC_2019_Jul_03_1402_744,False,2019_Jul_03_1402,2IFC,3,HACA03,
2IFC,72,0,72,0,5.7,-1,wrong answer,0.0338504998945,True,False,stimulusHACA03_2IFC_2019_Jul_03_1402_745,stimulusHACA03_2IFC_2019_Jul_03_1402_746,False,2019_Jul_03_1402,2IFC,3,HACA03,
2IFC,73,0,73,0,5.7,-1,wrong answer,0.232798300218,True,False,stimulusHACA03_2IFC_2019_Jul_03_1402_747,stimulusHACA03_2IFC_2019_Jul_03_1402_748,False,2019_Jul_03_1402,2IFC,3,HACA03,
2IFC,74,0,74,0,5.7,-1,correct answer,0.367275899975,False,True,stimulusHACA03_2IFC_2019_Jul_03_1402_749,stimulusHACA03_2IFC_2019_Jul_03_1402_750,False,2019_Jul_03_1402,2IFC,3,HACA03,
2IFC,0,0,0,0,7.8,-1,correct answer,0.601063600043,False,True,stimulusHACA03_2IFC_2019_Jul_03_1402_751,stimulusHACA03_2IFC_2019_Jul_03_1402_752,False,2019_Jul_03_1402,2IFC,3,HACA03,
2IFC,1,0,1,0,7.8,-1,correct answer,0.301035500132,False,True,stimulusHACA03_2IFC_2019_Jul_03_1402_753,stimulusHACA03_2IFC_2019_Jul_03_1402_754,False,2019_Jul_03_1402,2IFC,3,HACA03,
2IFC,2,0,2,0,7.8,-1,correct answer,0.200782600092,True,False,stimulusHACA03_2IFC_2019_Jul_03_1402_755,stimulusHACA03_2IFC_2019_Jul_03_1402_756,False,2019_Jul_03_1402,2IFC,3,HACA03,
2IFC,3,0,3,0,7.8,-1,correct answer,0.432999900077,True,False,stimulusHACA03_2IFC_2019_Jul_03_1402_757,stimulusHACA03_2IFC_2019_Jul_03_1402_758,False,2019_Jul_03_1402,2IFC,3,HACA03,
2IFC,4,0,4,0,7.8,-1,correct answer,0.233192700194,True,False,stimulusHACA03_2IFC_2019_Jul_03_1402_759,stimulusHACA03_2IFC_2019_Jul_03_1402_760,False,2019_Jul_03_1402,2IFC,3,HACA03,
2IFC,5,0,5,0,7.8,-1,correct answer,0.135200299788,True,False,stimulusHACA03_2IFC_2019_Jul_03_1402_761,stimulusHACA03_2IFC_2019_Jul_03_1402_762,False,2019_Jul_03_1402,2IFC,3,HACA03,
2IFC,6,0,6,0,7.8,-1,correct answer,0.167930300115,True,False,stimulusHACA03_2IFC_2019_Jul_03_1402_763,stimulusHACA03_2IFC_2019_Jul_03_1402_764,False,2019_Jul_03_1402,2IFC,3,HACA03,
2IFC,7,0,7,0,7.8,-1,correct answer,0.101399200037,False,True,stimulusHACA03_2IFC_2019_Jul_03_1402_765,stimulusHACA03_2IFC_2019_Jul_03_1402_766,False,2019_Jul_03_1402,2IFC,3,HACA03,
2IFC,8,0,8,0,7.8,-1,correct answer,0.533504299819,True,False,stimulusHACA03_2IFC_2019_Jul_03_1402_767,stimulusHACA03_2IFC_2019_Jul_03_1402_768,False,2019_Jul_03_1402,2IFC,3,HACA03,
2IFC,9,0,9,0,7.8,-1,correct answer,0.266901899828,False,True,stimulusHACA03_2IFC_2019_Jul_03_1402_769,stimulusHACA03_2IFC_2019_Jul_03_1402_770,False,2019_Jul_03_1402,2IFC,3,HACA03,
2IFC,10,0,10,0,7.8,-1,wrong answer,0.433731999947,False,True,stimulusHACA03_2IFC_2019_Jul_03_1402_771,stimulusHACA03_2IFC_2019_Jul_03_1402_772,False,2019_Jul_03_1402,2IFC,3,HACA03,
2IFC,11,0,11,0,7.8,-1,correct answer,0.133416099939,True,False,stimulusHACA03_2IFC_2019_Jul_03_1402_773,stimulusHACA03_2IFC_2019_Jul_03_1402_774,False,2019_Jul_03_1402,2IFC,3,HACA03,
2IFC,12,0,12,0,7.8,-1,correct answer,0.234051599866,True,False,stimulusHACA03_2IFC_2019_Jul_03_1402_775,stimulusHACA03_2IFC_2019_Jul_03_1402_776,False,2019_Jul_03_1402,2IFC,3,HACA03,
2IFC,13,0,13,0,7.8,-1,correct answer,0.400889100041,True,False,stimulusHACA03_2IFC_2019_Jul_03_1402_777,stimulusHACA03_2IFC_2019_Jul_03_1402_778,False,2019_Jul_03_1402,2IFC,3,HACA03,
2IFC,14,0,14,0,7.8,-1,correct answer,0.434120099992,False,True,stimulusHACA03_2IFC_2019_Jul_03_1402_779,stimulusHACA03_2IFC_2019_Jul_03_1402_780,False,2019_Jul_03_1402,2IFC,3,HACA03,
2IFC,15,0,15,0,7.8,-1,correct answer,0.133710499853,False,True,stimulusHACA03_2IFC_2019_Jul_03_1402_781,stimulusHACA03_2IFC_2019_Jul_03_1402_782,False,2019_Jul_03_1402,2IFC,3,HACA03,
2IFC,16,0,16,0,7.8,-1,wrong answer,0.367614499992,True,False,stimulusHACA03_2IFC_2019_Jul_03_1402_783,stimulusHACA03_2IFC_2019_Jul_03_1402_784,False,2019_Jul_03_1402,2IFC,3,HACA03,
2IFC,17,0,17,0,7.8,-1,correct answer,0.334064000053,False,True,stimulusHACA03_2IFC_2019_Jul_03_1402_785,stimulusHACA03_2IFC_2019_Jul_03_1402_786,False,2019_Jul_03_1402,2IFC,3,HACA03,
2IFC,18,0,18,0,7.8,-1,correct answer,0.367030700203,False,True,stimulusHACA03_2IFC_2019_Jul_03_1402_787,stimulusHACA03_2IFC_2019_Jul_03_1402_788,False,2019_Jul_03_1402,2IFC,3,HACA03,
2IFC,19,0,19,0,7.8,-1,wrong answer,0.501641799929,True,False,stimulusHACA03_2IFC_2019_Jul_03_1402_789,stimulusHACA03_2IFC_2019_Jul_03_1402_790,False,2019_Jul_03_1402,2IFC,3,HACA03,
2IFC,20,0,20,0,7.8,-1,correct answer,0.26804720005,True,False,stimulusHACA03_2IFC_2019_Jul_03_1402_791,stimulusHACA03_2IFC_2019_Jul_03_1402_792,False,2019_Jul_03_1402,2IFC,3,HACA03,
2IFC,21,0,21,0,7.8,-1,correct answer,0.267439899966,True,False,stimulusHACA03_2IFC_2019_Jul_03_1402_793,stimulusHACA03_2IFC_2019_Jul_03_1402_794,False,2019_Jul_03_1402,2IFC,3,HACA03,
2IFC,22,0,22,0,7.8,-1,correct answer,0.100354100112,False,True,stimulusHACA03_2IFC_2019_Jul_03_1402_795,stimulusHACA03_2IFC_2019_Jul_03_1402_796,False,2019_Jul_03_1402,2IFC,3,HACA03,
2IFC,23,0,23,0,7.8,-1,correct answer,0.233619099949,True,False,stimulusHACA03_2IFC_2019_Jul_03_1402_797,stimulusHACA03_2IFC_2019_Jul_03_1402_798,False,2019_Jul_03_1402,2IFC,3,HACA03,
2IFC,24,0,24,0,7.8,-1,correct answer,0.0671037000138,False,True,stimulusHACA03_2IFC_2019_Jul_03_1402_799,stimulusHACA03_2IFC_2019_Jul_03_1402_800,False,2019_Jul_03_1402,2IFC,3,HACA03,
2IFC,25,0,25,0,7.8,-1,correct answer,0.100351699861,True,False,stimulusHACA03_2IFC_2019_Jul_03_1402_801,stimulusHACA03_2IFC_2019_Jul_03_1402_802,False,2019_Jul_03_1402,2IFC,3,HACA03,
2IFC,26,0,26,0,7.8,-1,correct answer,0.0678325998597,False,True,stimulusHACA03_2IFC_2019_Jul_03_1402_803,stimulusHACA03_2IFC_2019_Jul_03_1402_804,False,2019_Jul_03_1402,2IFC,3,HACA03,
2IFC,27,0,27,0,7.8,-1,correct answer,0.100780500099,False,True,stimulusHACA03_2IFC_2019_Jul_03_1402_805,stimulusHACA03_2IFC_2019_Jul_03_1402_806,False,2019_Jul_03_1402,2IFC,3,HACA03,
2IFC,28,0,28,0,7.8,-1,correct answer,0.034782699775,True,False,stimulusHACA03_2IFC_2019_Jul_03_1402_807,stimulusHACA03_2IFC_2019_Jul_03_1402_808,False,2019_Jul_03_1402,2IFC,3,HACA03,
2IFC,29,0,29,0,7.8,-1,correct answer,0.501927000005,False,True,stimulusHACA03_2IFC_2019_Jul_03_1402_809,stimulusHACA03_2IFC_2019_Jul_03_1402_810,False,2019_Jul_03_1402,2IFC,3,HACA03,
2IFC,30,0,30,0,7.8,-1,correct answer,0.100134999957,True,False,stimulusHACA03_2IFC_2019_Jul_03_1402_811,stimulusHACA03_2IFC_2019_Jul_03_1402_812,False,2019_Jul_03_1402,2IFC,3,HACA03,
2IFC,31,0,31,0,7.8,-1,correct answer,0.201089699985,False,True,stimulusHACA03_2IFC_2019_Jul_03_1402_813,stimulusHACA03_2IFC_2019_Jul_03_1402_814,False,2019_Jul_03_1402,2IFC,3,HACA03,
2IFC,32,0,32,0,7.8,-1,correct answer,0.100699099945,False,True,stimulusHACA03_2IFC_2019_Jul_03_1402_815,stimulusHACA03_2IFC_2019_Jul_03_1402_816,False,2019_Jul_03_1402,2IFC,3,HACA03,
2IFC,33,0,33,0,7.8,-1,correct answer,0.133897199994,True,False,stimulusHACA03_2IFC_2019_Jul_03_1402_817,stimulusHACA03_2IFC_2019_Jul_03_1402_818,False,2019_Jul_03_1402,2IFC,3,HACA03,
2IFC,34,0,34,0,7.8,-1,correct answer,0.135026099859,True,False,stimulusHACA03_2IFC_2019_Jul_03_1402_819,stimulusHACA03_2IFC_2019_Jul_03_1402_820,False,2019_Jul_03_1402,2IFC,3,HACA03,
2IFC,35,0,35,0,7.8,-1,correct answer,0.134160100017,True,False,stimulusHACA03_2IFC_2019_Jul_03_1402_821,stimulusHACA03_2IFC_2019_Jul_03_1402_822,False,2019_Jul_03_1402,2IFC,3,HACA03,
2IFC,36,0,36,0,7.8,-1,correct answer,0.26754079992,False,True,stimulusHACA03_2IFC_2019_Jul_03_1402_823,stimulusHACA03_2IFC_2019_Jul_03_1402_824,False,2019_Jul_03_1402,2IFC,3,HACA03,
2IFC,37,0,37,0,7.8,-1,correct answer,0.133561300114,True,False,stimulusHACA03_2IFC_2019_Jul_03_1402_825,stimulusHACA03_2IFC_2019_Jul_03_1402_826,False,2019_Jul_03_1402,2IFC,3,HACA03,
2IFC,38,0,38,0,7.8,-1,correct answer,0.300887800055,False,True,stimulusHACA03_2IFC_2019_Jul_03_1402_827,stimulusHACA03_2IFC_2019_Jul_03_1402_828,False,2019_Jul_03_1402,2IFC,3,HACA03,
2IFC,39,0,39,0,7.8,-1,correct answer,0.301603199914,False,True,stimulusHACA03_2IFC_2019_Jul_03_1402_829,stimulusHACA03_2IFC_2019_Jul_03_1402_830,False,2019_Jul_03_1402,2IFC,3,HACA03,
2IFC,40,0,40,0,7.8,-1,correct answer,0.068411400076,True,False,stimulusHACA03_2IFC_2019_Jul_03_1402_831,stimulusHACA03_2IFC_2019_Jul_03_1402_832,False,2019_Jul_03_1402,2IFC,3,HACA03,
2IFC,41,0,41,0,7.8,-1,correct answer,0.0672366998624,False,True,stimulusHACA03_2IFC_2019_Jul_03_1402_833,stimulusHACA03_2IFC_2019_Jul_03_1402_834,False,2019_Jul_03_1402,2IFC,3,HACA03,
2IFC,42,0,42,0,7.8,-1,correct answer,0.0336448999587,True,False,stimulusHACA03_2IFC_2019_Jul_03_1402_835,stimulusHACA03_2IFC_2019_Jul_03_1402_836,False,2019_Jul_03_1402,2IFC,3,HACA03,
2IFC,43,0,43,0,7.8,-1,correct answer,0.233853499871,False,True,stimulusHACA03_2IFC_2019_Jul_03_1402_837,stimulusHACA03_2IFC_2019_Jul_03_1402_838,False,2019_Jul_03_1402,2IFC,3,HACA03,
2IFC,44,0,44,0,7.8,-1,correct answer,0.300714999903,True,False,stimulusHACA03_2IFC_2019_Jul_03_1402_839,stimulusHACA03_2IFC_2019_Jul_03_1402_840,False,2019_Jul_03_1402,2IFC,3,HACA03,
2IFC,45,0,45,0,7.8,-1,correct answer,0.10060720006,True,False,stimulusHACA03_2IFC_2019_Jul_03_1402_841,stimulusHACA03_2IFC_2019_Jul_03_1402_842,False,2019_Jul_03_1402,2IFC,3,HACA03,
2IFC,46,0,46,0,7.8,-1,correct answer,0.233807099983,True,False,stimulusHACA03_2IFC_2019_Jul_03_1402_843,stimulusHACA03_2IFC_2019_Jul_03_1402_844,False,2019_Jul_03_1402,2IFC,3,HACA03,
2IFC,47,0,47,0,7.8,-1,correct answer,0.200658300193,True,False,stimulusHACA03_2IFC_2019_Jul_03_1402_845,stimulusHACA03_2IFC_2019_Jul_03_1402_846,False,2019_Jul_03_1402,2IFC,3,HACA03,
2IFC,48,0,48,0,7.8,-1,correct answer,0.467148799915,False,True,stimulusHACA03_2IFC_2019_Jul_03_1402_847,stimulusHACA03_2IFC_2019_Jul_03_1402_848,False,2019_Jul_03_1402,2IFC,3,HACA03,
2IFC,49,0,49,0,7.8,-1,correct answer,0.133785099955,True,False,stimulusHACA03_2IFC_2019_Jul_03_1402_849,stimulusHACA03_2IFC_2019_Jul_03_1402_850,False,2019_Jul_03_1402,2IFC,3,HACA03,
2IFC,50,0,50,0,7.8,-1,correct answer,0.067394200014,True,False,stimulusHACA03_2IFC_2019_Jul_03_1402_851,stimulusHACA03_2IFC_2019_Jul_03_1402_852,False,2019_Jul_03_1402,2IFC,3,HACA03,
2IFC,51,0,51,0,7.8,-1,correct answer,0.233530000085,False,True,stimulusHACA03_2IFC_2019_Jul_03_1402_853,stimulusHACA03_2IFC_2019_Jul_03_1402_854,False,2019_Jul_03_1402,2IFC,3,HACA03,
2IFC,52,0,52,0,7.8,-1,correct answer,0.303365400061,True,False,stimulusHACA03_2IFC_2019_Jul_03_1402_855,stimulusHACA03_2IFC_2019_Jul_03_1402_856,False,2019_Jul_03_1402,2IFC,3,HACA03,
2IFC,53,0,53,0,7.8,-1,correct answer,0.467603500001,True,False,stimulusHACA03_2IFC_2019_Jul_03_1402_857,stimulusHACA03_2IFC_2019_Jul_03_1402_858,False,2019_Jul_03_1402,2IFC,3,HACA03,
2IFC,54,0,54,0,7.8,-1,correct answer,0.0684823999181,True,False,stimulusHACA03_2IFC_2019_Jul_03_1402_859,stimulusHACA03_2IFC_2019_Jul_03_1402_860,False,2019_Jul_03_1402,2IFC,3,HACA03,
2IFC,55,0,55,0,7.8,-1,correct answer,0.201545899967,False,True,stimulusHACA03_2IFC_2019_Jul_03_1402_861,stimulusHACA03_2IFC_2019_Jul_03_1402_862,False,2019_Jul_03_1402,2IFC,3,HACA03,
2IFC,56,0,56,0,7.8,-1,correct answer,0.200483800145,True,False,stimulusHACA03_2IFC_2019_Jul_03_1402_863,stimulusHACA03_2IFC_2019_Jul_03_1402_864,False,2019_Jul_03_1402,2IFC,3,HACA03,
2IFC,57,0,57,0,7.8,-1,correct answer,0.333787099924,True,False,stimulusHACA03_2IFC_2019_Jul_03_1402_865,stimulusHACA03_2IFC_2019_Jul_03_1402_866,False,2019_Jul_03_1402,2IFC,3,HACA03,
2IFC,58,0,58,0,7.8,-1,correct answer,0.0670990999788,False,True,stimulusHACA03_2IFC_2019_Jul_03_1402_867,stimulusHACA03_2IFC_2019_Jul_03_1402_868,False,2019_Jul_03_1402,2IFC,3,HACA03,
2IFC,59,0,59,0,7.8,-1,correct answer,0.434025899973,True,False,stimulusHACA03_2IFC_2019_Jul_03_1402_869,stimulusHACA03_2IFC_2019_Jul_03_1402_870,False,2019_Jul_03_1402,2IFC,3,HACA03,
2IFC,60,0,60,0,7.8,-1,wrong answer,0.23349270015,True,False,stimulusHACA03_2IFC_2019_Jul_03_1402_871,stimulusHACA03_2IFC_2019_Jul_03_1402_872,False,2019_Jul_03_1402,2IFC,3,HACA03,
2IFC,61,0,61,0,7.8,-1,correct answer,0.134407099802,True,False,stimulusHACA03_2IFC_2019_Jul_03_1402_873,stimulusHACA03_2IFC_2019_Jul_03_1402_874,False,2019_Jul_03_1402,2IFC,3,HACA03,
2IFC,62,0,62,0,7.8,-1,correct answer,0.300865600118,False,True,stimulusHACA03_2IFC_2019_Jul_03_1402_875,stimulusHACA03_2IFC_2019_Jul_03_1402_876,False,2019_Jul_03_1402,2IFC,3,HACA03,
2IFC,63,0,63,0,7.8,-1,correct answer,0.133425400127,False,True,stimulusHACA03_2IFC_2019_Jul_03_1402_877,stimulusHACA03_2IFC_2019_Jul_03_1402_878,False,2019_Jul_03_1402,2IFC,3,HACA03,
2IFC,64,0,64,0,7.8,-1,correct answer,0.167362299981,False,True,stimulusHACA03_2IFC_2019_Jul_03_1402_879,stimulusHACA03_2IFC_2019_Jul_03_1402_880,False,2019_Jul_03_1402,2IFC,3,HACA03,
2IFC,65,0,65,0,7.8,-1,wrong answer,0.301690299995,False,True,stimulusHACA03_2IFC_2019_Jul_03_1402_881,stimulusHACA03_2IFC_2019_Jul_03_1402_882,False,2019_Jul_03_1402,2IFC,3,HACA03,
2IFC,66,0,66,0,7.8,-1,correct answer,0.400474200025,False,True,stimulusHACA03_2IFC_2019_Jul_03_1402_883,stimulusHACA03_2IFC_2019_Jul_03_1402_884,False,2019_Jul_03_1402,2IFC,3,HACA03,
2IFC,67,0,67,0,7.8,-1,correct answer,0.134072900051,True,False,stimulusHACA03_2IFC_2019_Jul_03_1402_885,stimulusHACA03_2IFC_2019_Jul_03_1402_886,False,2019_Jul_03_1402,2IFC,3,HACA03,
2IFC,68,0,68,0,7.8,-1,correct answer,0.100554400124,False,True,stimulusHACA03_2IFC_2019_Jul_03_1402_887,stimulusHACA03_2IFC_2019_Jul_03_1402_888,False,2019_Jul_03_1402,2IFC,3,HACA03,
2IFC,69,0,69,0,7.8,-1,correct answer,0.300198799931,True,False,stimulusHACA03_2IFC_2019_Jul_03_1402_889,stimulusHACA03_2IFC_2019_Jul_03_1402_890,False,2019_Jul_03_1402,2IFC,3,HACA03,
2IFC,70,0,70,0,7.8,-1,correct answer,0.0982190999202,False,True,stimulusHACA03_2IFC_2019_Jul_03_1402_891,stimulusHACA03_2IFC_2019_Jul_03_1402_892,False,2019_Jul_03_1402,2IFC,3,HACA03,
2IFC,71,0,71,0,7.8,-1,correct answer,0.0668399001006,True,False,stimulusHACA03_2IFC_2019_Jul_03_1402_893,stimulusHACA03_2IFC_2019_Jul_03_1402_894,False,2019_Jul_03_1402,2IFC,3,HACA03,
2IFC,72,0,72,0,7.8,-1,wrong answer,0.467776100151,False,True,stimulusHACA03_2IFC_2019_Jul_03_1402_895,stimulusHACA03_2IFC_2019_Jul_03_1402_896,False,2019_Jul_03_1402,2IFC,3,HACA03,
2IFC,73,0,73,0,7.8,-1,correct answer,0.234929500148,True,False,stimulusHACA03_2IFC_2019_Jul_03_1402_897,stimulusHACA03_2IFC_2019_Jul_03_1402_898,False,2019_Jul_03_1402,2IFC,3,HACA03,
2IFC,74,0,74,0,7.8,-1,correct answer,0.367063199868,True,False,stimulusHACA03_2IFC_2019_Jul_03_1402_899,stimulusHACA03_2IFC_2019_Jul_03_1402_900,False,2019_Jul_03_1402,2IFC,3,HACA03,
2IFC,0,0,0,0,6.7,-1,correct answer,0.468286999967,False,True,stimulusHACA03_2IFC_2019_Jul_03_1402_901,stimulusHACA03_2IFC_2019_Jul_03_1402_902,False,2019_Jul_03_1402,2IFC,3,HACA03,
2IFC,1,0,1,0,6.7,-1,correct answer,0.4342741,False,True,stimulusHACA03_2IFC_2019_Jul_03_1402_903,stimulusHACA03_2IFC_2019_Jul_03_1402_904,False,2019_Jul_03_1402,2IFC,3,HACA03,
2IFC,2,0,2,0,6.7,-1,correct answer,0.468021899927,False,True,stimulusHACA03_2IFC_2019_Jul_03_1402_905,stimulusHACA03_2IFC_2019_Jul_03_1402_906,False,2019_Jul_03_1402,2IFC,3,HACA03,
2IFC,3,0,3,0,6.7,-1,wrong answer,0.300798099954,False,True,stimulusHACA03_2IFC_2019_Jul_03_1402_907,stimulusHACA03_2IFC_2019_Jul_03_1402_908,False,2019_Jul_03_1402,2IFC,3,HACA03,
2IFC,4,0,4,0,6.7,-1,correct answer,0.334004099946,False,True,stimulusHACA03_2IFC_2019_Jul_03_1402_909,stimulusHACA03_2IFC_2019_Jul_03_1402_910,False,2019_Jul_03_1402,2IFC,3,HACA03,
2IFC,5,0,5,0,6.7,-1,correct answer,0.1342780001,True,False,stimulusHACA03_2IFC_2019_Jul_03_1402_911,stimulusHACA03_2IFC_2019_Jul_03_1402_912,False,2019_Jul_03_1402,2IFC,3,HACA03,
2IFC,6,0,6,0,6.7,-1,correct answer,0.300501599908,True,False,stimulusHACA03_2IFC_2019_Jul_03_1402_913,stimulusHACA03_2IFC_2019_Jul_03_1402_914,False,2019_Jul_03_1402,2IFC,3,HACA03,
2IFC,7,0,7,0,6.7,-1,correct answer,0.433262299979,False,True,stimulusHACA03_2IFC_2019_Jul_03_1402_915,stimulusHACA03_2IFC_2019_Jul_03_1402_916,False,2019_Jul_03_1402,2IFC,3,HACA03,
2IFC,8,0,8,0,6.7,-1,correct answer,0.268701500027,False,True,stimulusHACA03_2IFC_2019_Jul_03_1402_917,stimulusHACA03_2IFC_2019_Jul_03_1402_918,False,2019_Jul_03_1402,2IFC,3,HACA03,
2IFC,9,0,9,0,6.7,-1,correct answer,0.367415499873,False,True,stimulusHACA03_2IFC_2019_Jul_03_1402_919,stimulusHACA03_2IFC_2019_Jul_03_1402_920,False,2019_Jul_03_1402,2IFC,3,HACA03,
2IFC,10,0,10,0,6.7,-1,correct answer,0.201202500146,True,False,stimulusHACA03_2IFC_2019_Jul_03_1402_921,stimulusHACA03_2IFC_2019_Jul_03_1402_922,False,2019_Jul_03_1402,2IFC,3,HACA03,
2IFC,11,0,11,0,6.7,-1,correct answer,0.10011400003,True,False,stimulusHACA03_2IFC_2019_Jul_03_1402_923,stimulusHACA03_2IFC_2019_Jul_03_1402_924,False,2019_Jul_03_1402,2IFC,3,HACA03,
2IFC,12,0,12,0,6.7,-1,wrong answer,0.133785900194,True,False,stimulusHACA03_2IFC_2019_Jul_03_1402_925,stimulusHACA03_2IFC_2019_Jul_03_1402_926,False,2019_Jul_03_1402,2IFC,3,HACA03,
2IFC,13,0,13,0,6.7,-1,correct answer,0.0670813000761,False,True,stimulusHACA03_2IFC_2019_Jul_03_1402_927,stimulusHACA03_2IFC_2019_Jul_03_1402_928,False,2019_Jul_03_1402,2IFC,3,HACA03,
2IFC,14,0,14,0,6.7,-1,correct answer,0.100264400011,False,True,stimulusHACA03_2IFC_2019_Jul_03_1402_929,stimulusHACA03_2IFC_2019_Jul_03_1402_930,False,2019_Jul_03_1402,2IFC,3,HACA03,
2IFC,15,0,15,0,6.7,-1,correct answer,0.100420099916,True,False,stimulusHACA03_2IFC_2019_Jul_03_1402_931,stimulusHACA03_2IFC_2019_Jul_03_1402_932,False,2019_Jul_03_1402,2IFC,3,HACA03,
2IFC,16,0,16,0,6.7,-1,correct answer,0.0328810999636,True,False,stimulusHACA03_2IFC_2019_Jul_03_1402_933,stimulusHACA03_2IFC_2019_Jul_03_1402_934,False,2019_Jul_03_1402,2IFC,3,HACA03,
2IFC,17,0,17,0,6.7,-1,correct answer,0.0665184999816,False,True,stimulusHACA03_2IFC_2019_Jul_03_1402_935,stimulusHACA03_2IFC_2019_Jul_03_1402_936,False,2019_Jul_03_1402,2IFC,3,HACA03,
2IFC,18,0,18,0,6.7,-1,wrong answer,0.334563100012,False,True,stimulusHACA03_2IFC_2019_Jul_03_1402_937,stimulusHACA03_2IFC_2019_Jul_03_1402_938,False,2019_Jul_03_1402,2IFC,3,HACA03,
2IFC,19,0,19,0,6.7,-1,correct answer,0.199228799902,True,False,stimulusHACA03_2IFC_2019_Jul_03_1402_939,stimulusHACA03_2IFC_2019_Jul_03_1402_940,False,2019_Jul_03_1402,2IFC,3,HACA03,
2IFC,20,0,20,0,6.7,-1,correct answer,0.132525200024,True,False,stimulusHACA03_2IFC_2019_Jul_03_1402_941,stimulusHACA03_2IFC_2019_Jul_03_1402_942,False,2019_Jul_03_1402,2IFC,3,HACA03,
2IFC,21,0,21,0,6.7,-1,correct answer,0.233696399955,False,True,stimulusHACA03_2IFC_2019_Jul_03_1402_943,stimulusHACA03_2IFC_2019_Jul_03_1402_944,False,2019_Jul_03_1402,2IFC,3,HACA03,
2IFC,22,0,22,0,6.7,-1,correct answer,0.0342135999817,True,False,stimulusHACA03_2IFC_2019_Jul_03_1402_945,stimulusHACA03_2IFC_2019_Jul_03_1402_946,False,2019_Jul_03_1402,2IFC,3,HACA03,
2IFC,23,0,23,0,6.7,-1,correct answer,0.0337734001223,True,False,stimulusHACA03_2IFC_2019_Jul_03_1402_947,stimulusHACA03_2IFC_2019_Jul_03_1402_948,False,2019_Jul_03_1402,2IFC,3,HACA03,
2IFC,24,0,24,0,6.7,-1,correct answer,0.134958399925,False,True,stimulusHACA03_2IFC_2019_Jul_03_1402_949,stimulusHACA03_2IFC_2019_Jul_03_1402_950,False,2019_Jul_03_1402,2IFC,3,HACA03,
2IFC,25,0,25,0,6.7,-1,correct answer,0.101900700014,False,True,stimulusHACA03_2IFC_2019_Jul_03_1402_951,stimulusHACA03_2IFC_2019_Jul_03_1402_952,False,2019_Jul_03_1402,2IFC,3,HACA03,
2IFC,26,0,26,0,6.7,-1,correct answer,0.10256680008,True,False,stimulusHACA03_2IFC_2019_Jul_03_1402_953,stimulusHACA03_2IFC_2019_Jul_03_1402_954,False,2019_Jul_03_1402,2IFC,3,HACA03,
2IFC,27,0,27,0,6.7,-1,wrong answer,0.26668079989,True,False,stimulusHACA03_2IFC_2019_Jul_03_1402_955,stimulusHACA03_2IFC_2019_Jul_03_1402_956,False,2019_Jul_03_1402,2IFC,3,HACA03,
2IFC,28,0,28,0,6.7,-1,correct answer,0.533691999968,True,False,stimulusHACA03_2IFC_2019_Jul_03_1402_957,stimulusHACA03_2IFC_2019_Jul_03_1402_958,False,2019_Jul_03_1402,2IFC,3,HACA03,
2IFC,29,0,29,0,6.7,-1,correct answer,0.533691099845,False,True,stimulusHACA03_2IFC_2019_Jul_03_1402_959,stimulusHACA03_2IFC_2019_Jul_03_1402_960,False,2019_Jul_03_1402,2IFC,3,HACA03,
2IFC,30,0,30,0,6.7,-1,correct answer,0.400906099938,False,True,stimulusHACA03_2IFC_2019_Jul_03_1402_961,stimulusHACA03_2IFC_2019_Jul_03_1402_962,False,2019_Jul_03_1402,2IFC,3,HACA03,
2IFC,31,0,31,0,6.7,-1,correct answer,0.400049300166,False,True,stimulusHACA03_2IFC_2019_Jul_03_1402_963,stimulusHACA03_2IFC_2019_Jul_03_1402_964,False,2019_Jul_03_1402,2IFC,3,HACA03,
2IFC,32,0,32,0,6.7,-1,correct answer,0.502157100011,True,False,stimulusHACA03_2IFC_2019_Jul_03_1402_965,stimulusHACA03_2IFC_2019_Jul_03_1402_966,False,2019_Jul_03_1402,2IFC,3,HACA03,
2IFC,33,0,33,0,6.7,-1,correct answer,0.133770999964,False,True,stimulusHACA03_2IFC_2019_Jul_03_1402_967,stimulusHACA03_2IFC_2019_Jul_03_1402_968,False,2019_Jul_03_1402,2IFC,3,HACA03,
2IFC,34,0,34,0,6.7,-1,correct answer,0.300462099956,True,False,stimulusHACA03_2IFC_2019_Jul_03_1402_969,stimulusHACA03_2IFC_2019_Jul_03_1402_970,False,2019_Jul_03_1402,2IFC,3,HACA03,
2IFC,35,0,35,0,6.7,-1,correct answer,0.200510099996,True,False,stimulusHACA03_2IFC_2019_Jul_03_1402_971,stimulusHACA03_2IFC_2019_Jul_03_1402_972,False,2019_Jul_03_1402,2IFC,3,HACA03,
2IFC,36,0,36,0,6.7,-1,correct answer,0.433023000136,True,False,stimulusHACA03_2IFC_2019_Jul_03_1402_973,stimulusHACA03_2IFC_2019_Jul_03_1402_974,False,2019_Jul_03_1402,2IFC,3,HACA03,
2IFC,37,0,37,0,6.7,-1,correct answer,0.400887499796,True,False,stimulusHACA03_2IFC_2019_Jul_03_1402_975,stimulusHACA03_2IFC_2019_Jul_03_1402_976,False,2019_Jul_03_1402,2IFC,3,HACA03,
2IFC,38,0,38,0,6.7,-1,correct answer,0.0679514999501,True,False,stimulusHACA03_2IFC_2019_Jul_03_1402_977,stimulusHACA03_2IFC_2019_Jul_03_1402_978,False,2019_Jul_03_1402,2IFC,3,HACA03,
2IFC,39,0,39,0,6.7,-1,correct answer,0.0679279000033,False,True,stimulusHACA03_2IFC_2019_Jul_03_1402_979,stimulusHACA03_2IFC_2019_Jul_03_1402_980,False,2019_Jul_03_1402,2IFC,3,HACA03,
2IFC,40,0,40,0,6.7,-1,correct answer,0.267027299851,True,False,stimulusHACA03_2IFC_2019_Jul_03_1402_981,stimulusHACA03_2IFC_2019_Jul_03_1402_982,False,2019_Jul_03_1402,2IFC,3,HACA03,
2IFC,41,0,41,0,6.7,-1,correct answer,0.333900799975,False,True,stimulusHACA03_2IFC_2019_Jul_03_1402_983,stimulusHACA03_2IFC_2019_Jul_03_1402_984,False,2019_Jul_03_1402,2IFC,3,HACA03,
2IFC,42,0,42,0,6.7,-1,correct answer,0.333649699809,True,False,stimulusHACA03_2IFC_2019_Jul_03_1402_985,stimulusHACA03_2IFC_2019_Jul_03_1402_986,False,2019_Jul_03_1402,2IFC,3,HACA03,
2IFC,43,0,43,0,6.7,-1,correct answer,0.400908400072,False,True,stimulusHACA03_2IFC_2019_Jul_03_1402_987,stimulusHACA03_2IFC_2019_Jul_03_1402_988,False,2019_Jul_03_1402,2IFC,3,HACA03,
2IFC,44,0,44,0,6.7,-1,correct answer,0.633750500157,True,False,stimulusHACA03_2IFC_2019_Jul_03_1402_989,stimulusHACA03_2IFC_2019_Jul_03_1402_990,False,2019_Jul_03_1402,2IFC,3,HACA03,
2IFC,45,0,45,0,6.7,-1,correct answer,0.266136700055,True,False,stimulusHACA03_2IFC_2019_Jul_03_1402_991,stimulusHACA03_2IFC_2019_Jul_03_1402_992,False,2019_Jul_03_1402,2IFC,3,HACA03,
2IFC,46,0,46,0,6.7,-1,wrong answer,0.567901299801,False,True,stimulusHACA03_2IFC_2019_Jul_03_1402_993,stimulusHACA03_2IFC_2019_Jul_03_1402_994,False,2019_Jul_03_1402,2IFC,3,HACA03,
2IFC,47,0,47,0,6.7,-1,correct answer,0.233452100074,True,False,stimulusHACA03_2IFC_2019_Jul_03_1402_995,stimulusHACA03_2IFC_2019_Jul_03_1402_996,False,2019_Jul_03_1402,2IFC,3,HACA03,
2IFC,48,0,48,0,6.7,-1,correct answer,0.0672307999339,False,True,stimulusHACA03_2IFC_2019_Jul_03_1402_997,stimulusHACA03_2IFC_2019_Jul_03_1402_998,False,2019_Jul_03_1402,2IFC,3,HACA03,
2IFC,49,0,49,0,6.7,-1,wrong answer,0.200454600155,True,False,stimulusHACA03_2IFC_2019_Jul_03_1402_999,stimulusHACA03_2IFC_2019_Jul_03_1402_1000,False,2019_Jul_03_1402,2IFC,3,HACA03,
2IFC,50,0,50,0,6.7,-1,wrong answer,0.433925099904,True,False,stimulusHACA03_2IFC_2019_Jul_03_1402_1001,stimulusHACA03_2IFC_2019_Jul_03_1402_1002,False,2019_Jul_03_1402,2IFC,3,HACA03,
2IFC,51,0,51,0,6.7,-1,correct answer,0.16726700007,True,False,stimulusHACA03_2IFC_2019_Jul_03_1402_1003,stimulusHACA03_2IFC_2019_Jul_03_1402_1004,False,2019_Jul_03_1402,2IFC,3,HACA03,
2IFC,52,0,52,0,6.7,-1,correct answer,0.434180800105,False,True,stimulusHACA03_2IFC_2019_Jul_03_1402_1005,stimulusHACA03_2IFC_2019_Jul_03_1402_1006,False,2019_Jul_03_1402,2IFC,3,HACA03,
2IFC,53,0,53,0,6.7,-1,correct answer,0.267870600102,True,False,stimulusHACA03_2IFC_2019_Jul_03_1402_1007,stimulusHACA03_2IFC_2019_Jul_03_1402_1008,False,2019_Jul_03_1402,2IFC,3,HACA03,
2IFC,54,0,54,0,6.7,-1,correct answer,0.167006899836,False,True,stimulusHACA03_2IFC_2019_Jul_03_1402_1009,stimulusHACA03_2IFC_2019_Jul_03_1402_1010,False,2019_Jul_03_1402,2IFC,3,HACA03,
2IFC,55,0,55,0,6.7,-1,correct answer,0.267587099923,False,True,stimulusHACA03_2IFC_2019_Jul_03_1402_1011,stimulusHACA03_2IFC_2019_Jul_03_1402_1012,False,2019_Jul_03_1402,2IFC,3,HACA03,
2IFC,56,0,56,0,6.7,-1,correct answer,0.0993035000283,False,True,stimulusHACA03_2IFC_2019_Jul_03_1402_1013,stimulusHACA03_2IFC_2019_Jul_03_1402_1014,False,2019_Jul_03_1402,2IFC,3,HACA03,
2IFC,57,0,57,0,6.7,-1,wrong answer,0.3006666,False,True,stimulusHACA03_2IFC_2019_Jul_03_1402_1015,stimulusHACA03_2IFC_2019_Jul_03_1402_1016,False,2019_Jul_03_1402,2IFC,3,HACA03,
2IFC,58,0,58,0,6.7,-1,correct answer,0.167140900157,True,False,stimulusHACA03_2IFC_2019_Jul_03_1402_1017,stimulusHACA03_2IFC_2019_Jul_03_1402_1018,False,2019_Jul_03_1402,2IFC,3,HACA03,
2IFC,59,0,59,0,6.7,-1,correct answer,0.0669102999382,False,True,stimulusHACA03_2IFC_2019_Jul_03_1402_1019,stimulusHACA03_2IFC_2019_Jul_03_1402_1020,False,2019_Jul_03_1402,2IFC,3,HACA03,
2IFC,60,0,60,0,6.7,-1,correct answer,0.0347943000961,False,True,stimulusHACA03_2IFC_2019_Jul_03_1402_1021,stimulusHACA03_2IFC_2019_Jul_03_1402_1022,False,2019_Jul_03_1402,2IFC,3,HACA03,
2IFC,61,0,61,0,6.7,-1,correct answer,0.0678600999527,True,False,stimulusHACA03_2IFC_2019_Jul_03_1402_1023,stimulusHACA03_2IFC_2019_Jul_03_1402_1024,False,2019_Jul_03_1402,2IFC,3,HACA03,
2IFC,62,0,62,0,6.7,-1,correct answer,0.0336746000685,False,True,stimulusHACA03_2IFC_2019_Jul_03_1402_1025,stimulusHACA03_2IFC_2019_Jul_03_1402_1026,False,2019_Jul_03_1402,2IFC,3,HACA03,
2IFC,63,0,63,0,6.7,-1,correct answer,0.16778420005,False,True,stimulusHACA03_2IFC_2019_Jul_03_1402_1027,stimulusHACA03_2IFC_2019_Jul_03_1402_1028,False,2019_Jul_03_1402,2IFC,3,HACA03,
2IFC,64,0,64,0,6.7,-1,correct answer,0.267249500146,False,True,stimulusHACA03_2IFC_2019_Jul_03_1402_1029,stimulusHACA03_2IFC_2019_Jul_03_1402_1030,False,2019_Jul_03_1402,2IFC,3,HACA03,
2IFC,65,0,65,0,6.7,-1,correct answer,0.233867800096,True,False,stimulusHACA03_2IFC_2019_Jul_03_1402_1031,stimulusHACA03_2IFC_2019_Jul_03_1402_1032,False,2019_Jul_03_1402,2IFC,3,HACA03,
2IFC,66,0,66,0,6.7,-1,wrong answer,0.0657059999648,False,True,stimulusHACA03_2IFC_2019_Jul_03_1402_1033,stimulusHACA03_2IFC_2019_Jul_03_1402_1034,False,2019_Jul_03_1402,2IFC,3,HACA03,
2IFC,67,0,67,0,6.7,-1,correct answer,0.30060680001,False,True,stimulusHACA03_2IFC_2019_Jul_03_1402_1035,stimulusHACA03_2IFC_2019_Jul_03_1402_1036,False,2019_Jul_03_1402,2IFC,3,HACA03,
2IFC,68,0,68,0,6.7,-1,correct answer,0.534362799954,False,True,stimulusHACA03_2IFC_2019_Jul_03_1402_1037,stimulusHACA03_2IFC_2019_Jul_03_1402_1038,False,2019_Jul_03_1402,2IFC,3,HACA03,
2IFC,69,0,69,0,6.7,-1,correct answer,0.433937599882,True,False,stimulusHACA03_2IFC_2019_Jul_03_1402_1039,stimulusHACA03_2IFC_2019_Jul_03_1402_1040,False,2019_Jul_03_1402,2IFC,3,HACA03,
2IFC,70,0,70,0,6.7,-1,correct answer,0.0669176001102,False,True,stimulusHACA03_2IFC_2019_Jul_03_1402_1041,stimulusHACA03_2IFC_2019_Jul_03_1402_1042,False,2019_Jul_03_1402,2IFC,3,HACA03,
2IFC,71,0,71,0,6.7,-1,correct answer,0.500986200059,True,False,stimulusHACA03_2IFC_2019_Jul_03_1402_1043,stimulusHACA03_2IFC_2019_Jul_03_1402_1044,False,2019_Jul_03_1402,2IFC,3,HACA03,
2IFC,72,0,72,0,6.7,-1,correct answer,0.367088600062,False,True,stimulusHACA03_2IFC_2019_Jul_03_1402_1045,stimulusHACA03_2IFC_2019_Jul_03_1402_1046,False,2019_Jul_03_1402,2IFC,3,HACA03,
2IFC,73,0,73,0,6.7,-1,correct answer,0.13357740012,False,True,stimulusHACA03_2IFC_2019_Jul_03_1402_1047,stimulusHACA03_2IFC_2019_Jul_03_1402_1048,False,2019_Jul_03_1402,2IFC,3,HACA03,
2IFC,74,0,74,0,6.7,-1,correct answer,0.100109399995,True,False,stimulusHACA03_2IFC_2019_Jul_03_1402_1049,stimulusHACA03_2IFC_2019_Jul_03_1402_1050,False,2019_Jul_03_1402,2IFC,3,HACA03,
2IFC,0,0,0,0,4.4,-1,correct answer,0.267481999937,False,True,stimulusHACA03_2IFC_2019_Jul_03_1402_1051,stimulusHACA03_2IFC_2019_Jul_03_1402_1052,False,2019_Jul_03_1402,2IFC,3,HACA03,
2IFC,1,0,1,0,4.4,-1,wrong answer,0.434200899908,True,False,stimulusHACA03_2IFC_2019_Jul_03_1402_1053,stimulusHACA03_2IFC_2019_Jul_03_1402_1054,False,2019_Jul_03_1402,2IFC,3,HACA03,
2IFC,2,0,2,0,4.4,-1,wrong answer,0.234048499959,True,False,stimulusHACA03_2IFC_2019_Jul_03_1402_1055,stimulusHACA03_2IFC_2019_Jul_03_1402_1056,False,2019_Jul_03_1402,2IFC,3,HACA03,
2IFC,3,0,3,0,4.4,-1,correct answer,0.299494100036,False,True,stimulusHACA03_2IFC_2019_Jul_03_1402_1057,stimulusHACA03_2IFC_2019_Jul_03_1402_1058,False,2019_Jul_03_1402,2IFC,3,HACA03,
2IFC,4,0,4,0,4.4,-1,correct answer,0.033606100129,True,False,stimulusHACA03_2IFC_2019_Jul_03_1402_1059,stimulusHACA03_2IFC_2019_Jul_03_1402_1060,False,2019_Jul_03_1402,2IFC,3,HACA03,
2IFC,5,0,5,0,4.4,-1,wrong answer,0.333975100191,False,True,stimulusHACA03_2IFC_2019_Jul_03_1402_1061,stimulusHACA03_2IFC_2019_Jul_03_1402_1062,False,2019_Jul_03_1402,2IFC,3,HACA03,
2IFC,6,0,6,0,4.4,-1,correct answer,0.435595399933,False,True,stimulusHACA03_2IFC_2019_Jul_03_1402_1063,stimulusHACA03_2IFC_2019_Jul_03_1402_1064,False,2019_Jul_03_1402,2IFC,3,HACA03,
2IFC,7,0,7,0,4.4,-1,correct answer,0.100790900178,False,True,stimulusHACA03_2IFC_2019_Jul_03_1402_1065,stimulusHACA03_2IFC_2019_Jul_03_1402_1066,False,2019_Jul_03_1402,2IFC,3,HACA03,
2IFC,8,0,8,0,4.4,-1,correct answer,0.534168999875,False,True,stimulusHACA03_2IFC_2019_Jul_03_1402_1067,stimulusHACA03_2IFC_2019_Jul_03_1402_1068,False,2019_Jul_03_1402,2IFC,3,HACA03,
2IFC,9,0,9,0,4.4,-1,correct answer,0.133827000158,True,False,stimulusHACA03_2IFC_2019_Jul_03_1402_1069,stimulusHACA03_2IFC_2019_Jul_03_1402_1070,False,2019_Jul_03_1402,2IFC,3,HACA03,
2IFC,10,0,10,0,4.4,-1,wrong answer,0.266993499827,True,False,stimulusHACA03_2IFC_2019_Jul_03_1402_1071,stimulusHACA03_2IFC_2019_Jul_03_1402_1072,False,2019_Jul_03_1402,2IFC,3,HACA03,
2IFC,11,0,11,0,4.4,-1,correct answer,0.100743599935,False,True,stimulusHACA03_2IFC_2019_Jul_03_1402_1073,stimulusHACA03_2IFC_2019_Jul_03_1402_1074,False,2019_Jul_03_1402,2IFC,3,HACA03,
2IFC,12,0,12,0,4.4,-1,correct answer,0.0669482999947,True,False,stimulusHACA03_2IFC_2019_Jul_03_1402_1075,stimulusHACA03_2IFC_2019_Jul_03_1402_1076,False,2019_Jul_03_1402,2IFC,3,HACA03,
2IFC,13,0,13,0,4.4,-1,wrong answer,0.200808800058,True,False,stimulusHACA03_2IFC_2019_Jul_03_1402_1077,stimulusHACA03_2IFC_2019_Jul_03_1402_1078,False,2019_Jul_03_1402,2IFC,3,HACA03,
2IFC,14,0,14,0,4.4,-1,wrong answer,0.466935599921,True,False,stimulusHACA03_2IFC_2019_Jul_03_1402_1079,stimulusHACA03_2IFC_2019_Jul_03_1402_1080,False,2019_Jul_03_1402,2IFC,3,HACA03,
2IFC,15,0,15,0,4.4,-1,wrong answer,0.367559599923,True,False,stimulusHACA03_2IFC_2019_Jul_03_1402_1081,stimulusHACA03_2IFC_2019_Jul_03_1402_1082,False,2019_Jul_03_1402,2IFC,3,HACA03,
2IFC,16,0,16,0,4.4,-1,wrong answer,0.233844599919,False,True,stimulusHACA03_2IFC_2019_Jul_03_1402_1083,stimulusHACA03_2IFC_2019_Jul_03_1402_1084,False,2019_Jul_03_1402,2IFC,3,HACA03,
2IFC,17,0,17,0,4.4,-1,wrong answer,0.267020800151,True,False,stimulusHACA03_2IFC_2019_Jul_03_1402_1085,stimulusHACA03_2IFC_2019_Jul_03_1402_1086,False,2019_Jul_03_1402,2IFC,3,HACA03,
2IFC,18,0,18,0,4.4,-1,correct answer,0.234082200099,True,False,stimulusHACA03_2IFC_2019_Jul_03_1402_1087,stimulusHACA03_2IFC_2019_Jul_03_1402_1088,False,2019_Jul_03_1402,2IFC,3,HACA03,
2IFC,19,0,19,0,4.4,-1,correct answer,0.300127600087,True,False,stimulusHACA03_2IFC_2019_Jul_03_1402_1089,stimulusHACA03_2IFC_2019_Jul_03_1402_1090,False,2019_Jul_03_1402,2IFC,3,HACA03,
2IFC,20,0,20,0,4.4,-1,correct answer,0.26698480011,False,True,stimulusHACA03_2IFC_2019_Jul_03_1402_1091,stimulusHACA03_2IFC_2019_Jul_03_1402_1092,False,2019_Jul_03_1402,2IFC,3,HACA03,
