Task,trials.thisRepN,trials.thisTrialN,trials.thisN,trials.thisIndex,signal_intensity,constant Value,response,time_response,signal_on_stimuluspos1,signal_on_stimuluspos2,stimulus_name_pos1,stimulus_name_pos2,random_intensity,date,expName,session,participant,
Yes-No Task,0,0,0,0,11.1,-1,Correct Rejection,0.40008609998,False,-1,stimulus_HACA03_Yes-No Task_2019_Jul_03_1344_1,-1,False,2019_Jul_03_1344,Yes-No Task,3,HACA03,
Yes-No Task,1,0,1,0,11.1,-1,Correct Rejection,0.501055600122,False,-1,stimulus_HACA03_Yes-No Task_2019_Jul_03_1344_2,-1,False,2019_Jul_03_1344,Yes-No Task,3,HACA03,
Yes-No Task,2,0,2,0,11.1,-1,False Alarm,0.634057200048,False,-1,stimulus_HACA03_Yes-No Task_2019_Jul_03_1344_3,-1,False,2019_Jul_03_1344,Yes-No Task,3,HACA03,
Yes-No Task,3,0,3,0,11.1,-1,Hit,0.567782300059,True,-1,stimulus_HACA03_Yes-No Task_2019_Jul_03_1344_4,-1,False,2019_Jul_03_1344,Yes-No Task,3,HACA03,
Yes-No Task,4,0,4,0,11.1,-1,Hit,0.43402549997,True,-1,stimulus_HACA03_Yes-No Task_2019_Jul_03_1344_5,-1,False,2019_Jul_03_1344,Yes-No Task,3,HACA03,
Yes-No Task,5,0,5,0,11.1,-1,False Alarm,0.567416099831,False,-1,stimulus_HACA03_Yes-No Task_2019_Jul_03_1344_6,-1,False,2019_Jul_03_1344,Yes-No Task,3,HACA03,
Yes-No Task,6,0,6,0,11.1,-1,Hit,0.433412499959,True,-1,stimulus_HACA03_Yes-No Task_2019_Jul_03_1344_7,-1,False,2019_Jul_03_1344,Yes-No Task,3,HACA03,
Yes-No Task,7,0,7,0,11.1,-1,Hit,0.467140299967,True,-1,stimulus_HACA03_Yes-No Task_2019_Jul_03_1344_8,-1,False,2019_Jul_03_1344,Yes-No Task,3,HACA03,
Yes-No Task,8,0,8,0,11.1,-1,Hit,0.400992499897,True,-1,stimulus_HACA03_Yes-No Task_2019_Jul_03_1344_9,-1,False,2019_Jul_03_1344,Yes-No Task,3,HACA03,
Yes-No Task,9,0,9,0,11.1,-1,Hit,0.367703499971,True,-1,stimulus_HACA03_Yes-No Task_2019_Jul_03_1344_10,-1,False,2019_Jul_03_1344,Yes-No Task,3,HACA03,
Yes-No Task,10,0,10,0,11.1,-1,Hit,0.433064699871,True,-1,stimulus_HACA03_Yes-No Task_2019_Jul_03_1344_11,-1,False,2019_Jul_03_1344,Yes-No Task,3,HACA03,
Yes-No Task,11,0,11,0,11.1,-1,Hit,0.367343000136,True,-1,stimulus_HACA03_Yes-No Task_2019_Jul_03_1344_12,-1,False,2019_Jul_03_1344,Yes-No Task,3,HACA03,
Yes-No Task,12,0,12,0,11.1,-1,Hit,0.468497399939,True,-1,stimulus_HACA03_Yes-No Task_2019_Jul_03_1344_13,-1,False,2019_Jul_03_1344,Yes-No Task,3,HACA03,
Yes-No Task,13,0,13,0,11.1,-1,Correct Rejection,0.535039699869,False,-1,stimulus_HACA03_Yes-No Task_2019_Jul_03_1344_14,-1,False,2019_Jul_03_1344,Yes-No Task,3,HACA03,
Yes-No Task,14,0,14,0,11.1,-1,Hit,0.467073099921,True,-1,stimulus_HACA03_Yes-No Task_2019_Jul_03_1344_15,-1,False,2019_Jul_03_1344,Yes-No Task,3,HACA03,
Yes-No Task,15,0,15,0,11.1,-1,Correct Rejection,0.59932509996,False,-1,stimulus_HACA03_Yes-No Task_2019_Jul_03_1344_16,-1,False,2019_Jul_03_1344,Yes-No Task,3,HACA03,
Yes-No Task,16,0,16,0,11.1,-1,False Alarm,0.500345899956,False,-1,stimulus_HACA03_Yes-No Task_2019_Jul_03_1344_17,-1,False,2019_Jul_03_1344,Yes-No Task,3,HACA03,
Yes-No Task,17,0,17,0,11.1,-1,Hit,0.50074040005,True,-1,stimulus_HACA03_Yes-No Task_2019_Jul_03_1344_18,-1,False,2019_Jul_03_1344,Yes-No Task,3,HACA03,
Yes-No Task,18,0,18,0,11.1,-1,Correct Rejection,0.500200400129,False,-1,stimulus_HACA03_Yes-No Task_2019_Jul_03_1344_19,-1,False,2019_Jul_03_1344,Yes-No Task,3,HACA03,
Yes-No Task,19,0,19,0,11.1,-1,Hit,0.468080200022,True,-1,stimulus_HACA03_Yes-No Task_2019_Jul_03_1344_20,-1,False,2019_Jul_03_1344,Yes-No Task,3,HACA03,
Yes-No Task,20,0,20,0,11.1,-1,Hit,0.467206100002,True,-1,stimulus_HACA03_Yes-No Task_2019_Jul_03_1344_21,-1,False,2019_Jul_03_1344,Yes-No Task,3,HACA03,
Yes-No Task,21,0,21,0,11.1,-1,Hit,0.501548599917,True,-1,stimulus_HACA03_Yes-No Task_2019_Jul_03_1344_22,-1,False,2019_Jul_03_1344,Yes-No Task,3,HACA03,
Yes-No Task,22,0,22,0,11.1,-1,Hit,0.400961000007,True,-1,stimulus_HACA03_Yes-No Task_2019_Jul_03_1344_23,-1,False,2019_Jul_03_1344,Yes-No Task,3,HACA03,
Yes-No Task,23,0,23,0,11.1,-1,False Alarm,0.399686699966,False,-1,stimulus_HACA03_Yes-No Task_2019_Jul_03_1344_24,-1,False,2019_Jul_03_1344,Yes-No Task,3,HACA03,
Yes-No Task,24,0,24,0,11.1,-1,Correct Rejection,0.500753000146,False,-1,stimulus_HACA03_Yes-No Task_2019_Jul_03_1344_25,-1,False,2019_Jul_03_1344,Yes-No Task,3,HACA03,
Yes-No Task,25,0,25,0,11.1,-1,Correct Rejection,0.467766499845,False,-1,stimulus_HACA03_Yes-No Task_2019_Jul_03_1344_26,-1,False,2019_Jul_03_1344,Yes-No Task,3,HACA03,
Yes-No Task,26,0,26,0,11.1,-1,Correct Rejection,0.633712799987,False,-1,stimulus_HACA03_Yes-No Task_2019_Jul_03_1344_27,-1,False,2019_Jul_03_1344,Yes-No Task,3,HACA03,
Yes-No Task,27,0,27,0,11.1,-1,Correct Rejection,0.468289199984,False,-1,stimulus_HACA03_Yes-No Task_2019_Jul_03_1344_28,-1,False,2019_Jul_03_1344,Yes-No Task,3,HACA03,
Yes-No Task,28,0,28,0,11.1,-1,Hit,0.500619000057,True,-1,stimulus_HACA03_Yes-No Task_2019_Jul_03_1344_29,-1,False,2019_Jul_03_1344,Yes-No Task,3,HACA03,
Yes-No Task,29,0,29,0,11.1,-1,Correct Rejection,0.534775800072,False,-1,stimulus_HACA03_Yes-No Task_2019_Jul_03_1344_30,-1,False,2019_Jul_03_1344,Yes-No Task,3,HACA03,
Yes-No Task,30,0,30,0,11.1,-1,Hit,0.501003900077,True,-1,stimulus_HACA03_Yes-No Task_2019_Jul_03_1344_31,-1,False,2019_Jul_03_1344,Yes-No Task,3,HACA03,
Yes-No Task,31,0,31,0,11.1,-1,Correct Rejection,0.400960800005,False,-1,stimulus_HACA03_Yes-No Task_2019_Jul_03_1344_32,-1,False,2019_Jul_03_1344,Yes-No Task,3,HACA03,
Yes-No Task,32,0,32,0,11.1,-1,Correct Rejection,0.433611500077,False,-1,stimulus_HACA03_Yes-No Task_2019_Jul_03_1344_33,-1,False,2019_Jul_03_1344,Yes-No Task,3,HACA03,
Yes-No Task,33,0,33,0,11.1,-1,Correct Rejection,0.433521999978,False,-1,stimulus_HACA03_Yes-No Task_2019_Jul_03_1344_34,-1,False,2019_Jul_03_1344,Yes-No Task,3,HACA03,
Yes-No Task,34,0,34,0,11.1,-1,False Alarm,0.568387300009,False,-1,stimulus_HACA03_Yes-No Task_2019_Jul_03_1344_35,-1,False,2019_Jul_03_1344,Yes-No Task,3,HACA03,
Yes-No Task,35,0,35,0,11.1,-1,Correct Rejection,0.533903500065,False,-1,stimulus_HACA03_Yes-No Task_2019_Jul_03_1344_36,-1,False,2019_Jul_03_1344,Yes-No Task,3,HACA03,
Yes-No Task,36,0,36,0,11.1,-1,Hit,0.566932999995,True,-1,stimulus_HACA03_Yes-No Task_2019_Jul_03_1344_37,-1,False,2019_Jul_03_1344,Yes-No Task,3,HACA03,
Yes-No Task,37,0,37,0,11.1,-1,Hit,0.432848300086,True,-1,stimulus_HACA03_Yes-No Task_2019_Jul_03_1344_38,-1,False,2019_Jul_03_1344,Yes-No Task,3,HACA03,
Yes-No Task,38,0,38,0,11.1,-1,Correct Rejection,0.468920700019,False,-1,stimulus_HACA03_Yes-No Task_2019_Jul_03_1344_39,-1,False,2019_Jul_03_1344,Yes-No Task,3,HACA03,
Yes-No Task,39,0,39,0,11.1,-1,Hit,0.567363099894,True,-1,stimulus_HACA03_Yes-No Task_2019_Jul_03_1344_40,-1,False,2019_Jul_03_1344,Yes-No Task,3,HACA03,
Yes-No Task,40,0,40,0,11.1,-1,Correct Rejection,0.434724100167,False,-1,stimulus_HACA03_Yes-No Task_2019_Jul_03_1344_41,-1,False,2019_Jul_03_1344,Yes-No Task,3,HACA03,
Yes-No Task,41,0,41,0,11.1,-1,Correct Rejection,0.56821399997,False,-1,stimulus_HACA03_Yes-No Task_2019_Jul_03_1344_42,-1,False,2019_Jul_03_1344,Yes-No Task,3,HACA03,
Yes-No Task,42,0,42,0,11.1,-1,Correct Rejection,0.434413600015,False,-1,stimulus_HACA03_Yes-No Task_2019_Jul_03_1344_43,-1,False,2019_Jul_03_1344,Yes-No Task,3,HACA03,
Yes-No Task,43,0,43,0,11.1,-1,Hit,0.467566000065,True,-1,stimulus_HACA03_Yes-No Task_2019_Jul_03_1344_44,-1,False,2019_Jul_03_1344,Yes-No Task,3,HACA03,
Yes-No Task,44,0,44,0,11.1,-1,Hit,0.500843200134,True,-1,stimulus_HACA03_Yes-No Task_2019_Jul_03_1344_45,-1,False,2019_Jul_03_1344,Yes-No Task,3,HACA03,
Yes-No Task,45,0,45,0,11.1,-1,Hit,0.401040799916,True,-1,stimulus_HACA03_Yes-No Task_2019_Jul_03_1344_46,-1,False,2019_Jul_03_1344,Yes-No Task,3,HACA03,
Yes-No Task,46,0,46,0,11.1,-1,Hit,0.435225099791,True,-1,stimulus_HACA03_Yes-No Task_2019_Jul_03_1344_47,-1,False,2019_Jul_03_1344,Yes-No Task,3,HACA03,
Yes-No Task,47,0,47,0,11.1,-1,False Alarm,0.400688899914,False,-1,stimulus_HACA03_Yes-No Task_2019_Jul_03_1344_48,-1,False,2019_Jul_03_1344,Yes-No Task,3,HACA03,
Yes-No Task,48,0,48,0,11.1,-1,Correct Rejection,0.534298899816,False,-1,stimulus_HACA03_Yes-No Task_2019_Jul_03_1344_49,-1,False,2019_Jul_03_1344,Yes-No Task,3,HACA03,
Yes-No Task,49,0,49,0,11.1,-1,Correct Rejection,0.50022580009,False,-1,stimulus_HACA03_Yes-No Task_2019_Jul_03_1344_50,-1,False,2019_Jul_03_1344,Yes-No Task,3,HACA03,
Yes-No Task,50,0,50,0,11.1,-1,Correct Rejection,0.400152799906,False,-1,stimulus_HACA03_Yes-No Task_2019_Jul_03_1344_51,-1,False,2019_Jul_03_1344,Yes-No Task,3,HACA03,
Yes-No Task,51,0,51,0,11.1,-1,False Alarm,0.53349400009,False,-1,stimulus_HACA03_Yes-No Task_2019_Jul_03_1344_52,-1,False,2019_Jul_03_1344,Yes-No Task,3,HACA03,
Yes-No Task,52,0,52,0,11.1,-1,Hit,0.501180299791,True,-1,stimulus_HACA03_Yes-No Task_2019_Jul_03_1344_53,-1,False,2019_Jul_03_1344,Yes-No Task,3,HACA03,
Yes-No Task,53,0,53,0,11.1,-1,Correct Rejection,0.433696700027,False,-1,stimulus_HACA03_Yes-No Task_2019_Jul_03_1344_54,-1,False,2019_Jul_03_1344,Yes-No Task,3,HACA03,
Yes-No Task,54,0,54,0,11.1,-1,False Alarm,0.466365400003,False,-1,stimulus_HACA03_Yes-No Task_2019_Jul_03_1344_55,-1,False,2019_Jul_03_1344,Yes-No Task,3,HACA03,
Yes-No Task,55,0,55,0,11.1,-1,Hit,0.53440250014,True,-1,stimulus_HACA03_Yes-No Task_2019_Jul_03_1344_56,-1,False,2019_Jul_03_1344,Yes-No Task,3,HACA03,
Yes-No Task,56,0,56,0,11.1,-1,Correct Rejection,0.500913499855,False,-1,stimulus_HACA03_Yes-No Task_2019_Jul_03_1344_57,-1,False,2019_Jul_03_1344,Yes-No Task,3,HACA03,
Yes-No Task,57,0,57,0,11.1,-1,Correct Rejection,0.500980400015,False,-1,stimulus_HACA03_Yes-No Task_2019_Jul_03_1344_58,-1,False,2019_Jul_03_1344,Yes-No Task,3,HACA03,
Yes-No Task,58,0,58,0,11.1,-1,Hit,0.534346299944,True,-1,stimulus_HACA03_Yes-No Task_2019_Jul_03_1344_59,-1,False,2019_Jul_03_1344,Yes-No Task,3,HACA03,
Yes-No Task,59,0,59,0,11.1,-1,Hit,0.434941699961,True,-1,stimulus_HACA03_Yes-No Task_2019_Jul_03_1344_60,-1,False,2019_Jul_03_1344,Yes-No Task,3,HACA03,
Yes-No Task,60,0,60,0,11.1,-1,Hit,0.366810700158,True,-1,stimulus_HACA03_Yes-No Task_2019_Jul_03_1344_61,-1,False,2019_Jul_03_1344,Yes-No Task,3,HACA03,
Yes-No Task,61,0,61,0,11.1,-1,Correct Rejection,0.501136000035,False,-1,stimulus_HACA03_Yes-No Task_2019_Jul_03_1344_62,-1,False,2019_Jul_03_1344,Yes-No Task,3,HACA03,
Yes-No Task,62,0,62,0,11.1,-1,Correct Rejection,0.432665899862,False,-1,stimulus_HACA03_Yes-No Task_2019_Jul_03_1344_63,-1,False,2019_Jul_03_1344,Yes-No Task,3,HACA03,
Yes-No Task,63,0,63,0,11.1,-1,Hit,0.632681200048,True,-1,stimulus_HACA03_Yes-No Task_2019_Jul_03_1344_64,-1,False,2019_Jul_03_1344,Yes-No Task,3,HACA03,
Yes-No Task,64,0,64,0,11.1,-1,Correct Rejection,0.500695999945,False,-1,stimulus_HACA03_Yes-No Task_2019_Jul_03_1344_65,-1,False,2019_Jul_03_1344,Yes-No Task,3,HACA03,
Yes-No Task,65,0,65,0,11.1,-1,Correct Rejection,0.433704800205,False,-1,stimulus_HACA03_Yes-No Task_2019_Jul_03_1344_66,-1,False,2019_Jul_03_1344,Yes-No Task,3,HACA03,
Yes-No Task,66,0,66,0,11.1,-1,False Alarm,0.600705099991,False,-1,stimulus_HACA03_Yes-No Task_2019_Jul_03_1344_67,-1,False,2019_Jul_03_1344,Yes-No Task,3,HACA03,
Yes-No Task,67,0,67,0,11.1,-1,Correct Rejection,0.467384499963,False,-1,stimulus_HACA03_Yes-No Task_2019_Jul_03_1344_68,-1,False,2019_Jul_03_1344,Yes-No Task,3,HACA03,
Yes-No Task,68,0,68,0,11.1,-1,Correct Rejection,0.467774499906,False,-1,stimulus_HACA03_Yes-No Task_2019_Jul_03_1344_69,-1,False,2019_Jul_03_1344,Yes-No Task,3,HACA03,
Yes-No Task,69,0,69,0,11.1,-1,Correct Rejection,0.601195800118,False,-1,stimulus_HACA03_Yes-No Task_2019_Jul_03_1344_70,-1,False,2019_Jul_03_1344,Yes-No Task,3,HACA03,
Yes-No Task,70,0,70,0,11.1,-1,Correct Rejection,0.434566200012,False,-1,stimulus_HACA03_Yes-No Task_2019_Jul_03_1344_71,-1,False,2019_Jul_03_1344,Yes-No Task,3,HACA03,
Yes-No Task,71,0,71,0,11.1,-1,Hit,0.500515100081,True,-1,stimulus_HACA03_Yes-No Task_2019_Jul_03_1344_72,-1,False,2019_Jul_03_1344,Yes-No Task,3,HACA03,
Yes-No Task,72,0,72,0,11.1,-1,Hit,0.436140300008,True,-1,stimulus_HACA03_Yes-No Task_2019_Jul_03_1344_73,-1,False,2019_Jul_03_1344,Yes-No Task,3,HACA03,
Yes-No Task,73,0,73,0,11.1,-1,Correct Rejection,0.50091599999,False,-1,stimulus_HACA03_Yes-No Task_2019_Jul_03_1344_74,-1,False,2019_Jul_03_1344,Yes-No Task,3,HACA03,
Yes-No Task,74,0,74,0,11.1,-1,Correct Rejection,0.498898100108,False,-1,stimulus_HACA03_Yes-No Task_2019_Jul_03_1344_75,-1,False,2019_Jul_03_1344,Yes-No Task,3,HACA03,
Yes-No Task,0,0,0,0,9.8,-1,Correct Rejection,0.501166099915,False,-1,stimulus_HACA03_Yes-No Task_2019_Jul_03_1344_76,-1,False,2019_Jul_03_1344,Yes-No Task,3,HACA03,
Yes-No Task,1,0,1,0,9.8,-1,Hit,0.500816600164,True,-1,stimulus_HACA03_Yes-No Task_2019_Jul_03_1344_77,-1,False,2019_Jul_03_1344,Yes-No Task,3,HACA03,
Yes-No Task,2,0,2,0,9.8,-1,Hit,0.433931799838,True,-1,stimulus_HACA03_Yes-No Task_2019_Jul_03_1344_78,-1,False,2019_Jul_03_1344,Yes-No Task,3,HACA03,
Yes-No Task,3,0,3,0,9.8,-1,Correct Rejection,0.501178999897,False,-1,stimulus_HACA03_Yes-No Task_2019_Jul_03_1344_79,-1,False,2019_Jul_03_1344,Yes-No Task,3,HACA03,
Yes-No Task,4,0,4,0,9.8,-1,Hit,0.434812400024,True,-1,stimulus_HACA03_Yes-No Task_2019_Jul_03_1344_80,-1,False,2019_Jul_03_1344,Yes-No Task,3,HACA03,
Yes-No Task,5,0,5,0,9.8,-1,Correct Rejection,0.434598800028,False,-1,stimulus_HACA03_Yes-No Task_2019_Jul_03_1344_81,-1,False,2019_Jul_03_1344,Yes-No Task,3,HACA03,
Yes-No Task,6,0,6,0,9.8,-1,Correct Rejection,0.568401300116,False,-1,stimulus_HACA03_Yes-No Task_2019_Jul_03_1344_82,-1,False,2019_Jul_03_1344,Yes-No Task,3,HACA03,
Yes-No Task,7,0,7,0,9.8,-1,Correct Rejection,0.500766200013,False,-1,stimulus_HACA03_Yes-No Task_2019_Jul_03_1344_83,-1,False,2019_Jul_03_1344,Yes-No Task,3,HACA03,
Yes-No Task,8,0,8,0,9.8,-1,Correct Rejection,0.399306600215,False,-1,stimulus_HACA03_Yes-No Task_2019_Jul_03_1344_84,-1,False,2019_Jul_03_1344,Yes-No Task,3,HACA03,
Yes-No Task,9,0,9,0,9.8,-1,Hit,0.468864500057,True,-1,stimulus_HACA03_Yes-No Task_2019_Jul_03_1344_85,-1,False,2019_Jul_03_1344,Yes-No Task,3,HACA03,
Yes-No Task,10,0,10,0,9.8,-1,Hit,0.400927300099,True,-1,stimulus_HACA03_Yes-No Task_2019_Jul_03_1344_86,-1,False,2019_Jul_03_1344,Yes-No Task,3,HACA03,
Yes-No Task,11,0,11,0,9.8,-1,Hit,0.434208000079,True,-1,stimulus_HACA03_Yes-No Task_2019_Jul_03_1344_87,-1,False,2019_Jul_03_1344,Yes-No Task,3,HACA03,
Yes-No Task,12,0,12,0,9.8,-1,Correct Rejection,0.367360699922,False,-1,stimulus_HACA03_Yes-No Task_2019_Jul_03_1344_88,-1,False,2019_Jul_03_1344,Yes-No Task,3,HACA03,
Yes-No Task,13,0,13,0,9.8,-1,Hit,0.433997799875,True,-1,stimulus_HACA03_Yes-No Task_2019_Jul_03_1344_89,-1,False,2019_Jul_03_1344,Yes-No Task,3,HACA03,
Yes-No Task,14,0,14,0,9.8,-1,Correct Rejection,0.467110099969,False,-1,stimulus_HACA03_Yes-No Task_2019_Jul_03_1344_90,-1,False,2019_Jul_03_1344,Yes-No Task,3,HACA03,
Yes-No Task,15,0,15,0,9.8,-1,Hit,0.467164900154,True,-1,stimulus_HACA03_Yes-No Task_2019_Jul_03_1344_91,-1,False,2019_Jul_03_1344,Yes-No Task,3,HACA03,
Yes-No Task,16,0,16,0,9.8,-1,Correct Rejection,0.334238700103,False,-1,stimulus_HACA03_Yes-No Task_2019_Jul_03_1344_92,-1,False,2019_Jul_03_1344,Yes-No Task,3,HACA03,
Yes-No Task,17,0,17,0,9.8,-1,Correct Rejection,0.400505200028,False,-1,stimulus_HACA03_Yes-No Task_2019_Jul_03_1344_93,-1,False,2019_Jul_03_1344,Yes-No Task,3,HACA03,
Yes-No Task,18,0,18,0,9.8,-1,Correct Rejection,0.400046499912,False,-1,stimulus_HACA03_Yes-No Task_2019_Jul_03_1344_94,-1,False,2019_Jul_03_1344,Yes-No Task,3,HACA03,
Yes-No Task,19,0,19,0,9.8,-1,Hit,0.466619099956,True,-1,stimulus_HACA03_Yes-No Task_2019_Jul_03_1344_95,-1,False,2019_Jul_03_1344,Yes-No Task,3,HACA03,
Yes-No Task,20,0,20,0,9.8,-1,Correct Rejection,0.468711199937,False,-1,stimulus_HACA03_Yes-No Task_2019_Jul_03_1344_96,-1,False,2019_Jul_03_1344,Yes-No Task,3,HACA03,
Yes-No Task,21,0,21,0,9.8,-1,Miss,0.669239800191,True,-1,stimulus_HACA03_Yes-No Task_2019_Jul_03_1344_97,-1,False,2019_Jul_03_1344,Yes-No Task,3,HACA03,
Yes-No Task,22,0,22,0,9.8,-1,Correct Rejection,0.466748999897,False,-1,stimulus_HACA03_Yes-No Task_2019_Jul_03_1344_98,-1,False,2019_Jul_03_1344,Yes-No Task,3,HACA03,
Yes-No Task,23,0,23,0,9.8,-1,Correct Rejection,0.433421700029,False,-1,stimulus_HACA03_Yes-No Task_2019_Jul_03_1344_99,-1,False,2019_Jul_03_1344,Yes-No Task,3,HACA03,
Yes-No Task,24,0,24,0,9.8,-1,Hit,0.466892299941,True,-1,stimulus_HACA03_Yes-No Task_2019_Jul_03_1344_100,-1,False,2019_Jul_03_1344,Yes-No Task,3,HACA03,
Yes-No Task,25,0,25,0,9.8,-1,Correct Rejection,0.401684199926,False,-1,stimulus_HACA03_Yes-No Task_2019_Jul_03_1344_101,-1,False,2019_Jul_03_1344,Yes-No Task,3,HACA03,
Yes-No Task,26,0,26,0,9.8,-1,Correct Rejection,0.40114880004,False,-1,stimulus_HACA03_Yes-No Task_2019_Jul_03_1344_102,-1,False,2019_Jul_03_1344,Yes-No Task,3,HACA03,
Yes-No Task,27,0,27,0,9.8,-1,Correct Rejection,0.468460700009,False,-1,stimulus_HACA03_Yes-No Task_2019_Jul_03_1344_103,-1,False,2019_Jul_03_1344,Yes-No Task,3,HACA03,
Yes-No Task,28,0,28,0,9.8,-1,Correct Rejection,0.400727299973,False,-1,stimulus_HACA03_Yes-No Task_2019_Jul_03_1344_104,-1,False,2019_Jul_03_1344,Yes-No Task,3,HACA03,
Yes-No Task,29,0,29,0,9.8,-1,Hit,0.467397199944,True,-1,stimulus_HACA03_Yes-No Task_2019_Jul_03_1344_105,-1,False,2019_Jul_03_1344,Yes-No Task,3,HACA03,
Yes-No Task,30,0,30,0,9.8,-1,Correct Rejection,0.400701400125,False,-1,stimulus_HACA03_Yes-No Task_2019_Jul_03_1344_106,-1,False,2019_Jul_03_1344,Yes-No Task,3,HACA03,
Yes-No Task,31,0,31,0,9.8,-1,Miss,0.601725799963,True,-1,stimulus_HACA03_Yes-No Task_2019_Jul_03_1344_107,-1,False,2019_Jul_03_1344,Yes-No Task,3,HACA03,
Yes-No Task,32,0,32,0,9.8,-1,Hit,0.568333499832,True,-1,stimulus_HACA03_Yes-No Task_2019_Jul_03_1344_108,-1,False,2019_Jul_03_1344,Yes-No Task,3,HACA03,
Yes-No Task,33,0,33,0,9.8,-1,Hit,0.467067700112,True,-1,stimulus_HACA03_Yes-No Task_2019_Jul_03_1344_109,-1,False,2019_Jul_03_1344,Yes-No Task,3,HACA03,
Yes-No Task,34,0,34,0,9.8,-1,Correct Rejection,0.36913789995,False,-1,stimulus_HACA03_Yes-No Task_2019_Jul_03_1344_110,-1,False,2019_Jul_03_1344,Yes-No Task,3,HACA03,
Yes-No Task,35,0,35,0,9.8,-1,Correct Rejection,0.401284600142,False,-1,stimulus_HACA03_Yes-No Task_2019_Jul_03_1344_111,-1,False,2019_Jul_03_1344,Yes-No Task,3,HACA03,
Yes-No Task,36,0,36,0,9.8,-1,Hit,0.467460600194,True,-1,stimulus_HACA03_Yes-No Task_2019_Jul_03_1344_112,-1,False,2019_Jul_03_1344,Yes-No Task,3,HACA03,
Yes-No Task,37,0,37,0,9.8,-1,Miss,0.40109859989,True,-1,stimulus_HACA03_Yes-No Task_2019_Jul_03_1344_113,-1,False,2019_Jul_03_1344,Yes-No Task,3,HACA03,
Yes-No Task,38,0,38,0,9.8,-1,Correct Rejection,0.467239999911,False,-1,stimulus_HACA03_Yes-No Task_2019_Jul_03_1344_114,-1,False,2019_Jul_03_1344,Yes-No Task,3,HACA03,
Yes-No Task,39,0,39,0,9.8,-1,Hit,0.50143319997,True,-1,stimulus_HACA03_Yes-No Task_2019_Jul_03_1344_115,-1,False,2019_Jul_03_1344,Yes-No Task,3,HACA03,
Yes-No Task,40,0,40,0,9.8,-1,Correct Rejection,0.400292600039,False,-1,stimulus_HACA03_Yes-No Task_2019_Jul_03_1344_116,-1,False,2019_Jul_03_1344,Yes-No Task,3,HACA03,
Yes-No Task,41,0,41,0,9.8,-1,Correct Rejection,0.400369800162,False,-1,stimulus_HACA03_Yes-No Task_2019_Jul_03_1344_117,-1,False,2019_Jul_03_1344,Yes-No Task,3,HACA03,
Yes-No Task,42,0,42,0,9.8,-1,Miss,0.400154799921,True,-1,stimulus_HACA03_Yes-No Task_2019_Jul_03_1344_118,-1,False,2019_Jul_03_1344,Yes-No Task,3,HACA03,
Yes-No Task,43,0,43,0,9.8,-1,Correct Rejection,0.466335400008,False,-1,stimulus_HACA03_Yes-No Task_2019_Jul_03_1344_119,-1,False,2019_Jul_03_1344,Yes-No Task,3,HACA03,
Yes-No Task,44,0,44,0,9.8,-1,Correct Rejection,0.567342299968,False,-1,stimulus_HACA03_Yes-No Task_2019_Jul_03_1344_120,-1,False,2019_Jul_03_1344,Yes-No Task,3,HACA03,
Yes-No Task,45,0,45,0,9.8,-1,Hit,0.501172600081,True,-1,stimulus_HACA03_Yes-No Task_2019_Jul_03_1344_121,-1,False,2019_Jul_03_1344,Yes-No Task,3,HACA03,
Yes-No Task,46,0,46,0,9.8,-1,Miss,0.43525650003,True,-1,stimulus_HACA03_Yes-No Task_2019_Jul_03_1344_122,-1,False,2019_Jul_03_1344,Yes-No Task,3,HACA03,
Yes-No Task,47,0,47,0,9.8,-1,Hit,0.600112299901,True,-1,stimulus_HACA03_Yes-No Task_2019_Jul_03_1344_123,-1,False,2019_Jul_03_1344,Yes-No Task,3,HACA03,
Yes-No Task,48,0,48,0,9.8,-1,Correct Rejection,0.466514399974,False,-1,stimulus_HACA03_Yes-No Task_2019_Jul_03_1344_124,-1,False,2019_Jul_03_1344,Yes-No Task,3,HACA03,
Yes-No Task,49,0,49,0,9.8,-1,Hit,0.534493000014,True,-1,stimulus_HACA03_Yes-No Task_2019_Jul_03_1344_125,-1,False,2019_Jul_03_1344,Yes-No Task,3,HACA03,
Yes-No Task,50,0,50,0,9.8,-1,Correct Rejection,0.367718399968,False,-1,stimulus_HACA03_Yes-No Task_2019_Jul_03_1344_126,-1,False,2019_Jul_03_1344,Yes-No Task,3,HACA03,
Yes-No Task,51,0,51,0,9.8,-1,Correct Rejection,0.433865799801,False,-1,stimulus_HACA03_Yes-No Task_2019_Jul_03_1344_127,-1,False,2019_Jul_03_1344,Yes-No Task,3,HACA03,
Yes-No Task,52,0,52,0,9.8,-1,Hit,0.533775599906,True,-1,stimulus_HACA03_Yes-No Task_2019_Jul_03_1344_128,-1,False,2019_Jul_03_1344,Yes-No Task,3,HACA03,
Yes-No Task,53,0,53,0,9.8,-1,Correct Rejection,0.36752650002,False,-1,stimulus_HACA03_Yes-No Task_2019_Jul_03_1344_129,-1,False,2019_Jul_03_1344,Yes-No Task,3,HACA03,
Yes-No Task,54,0,54,0,9.8,-1,Correct Rejection,0.467014000053,False,-1,stimulus_HACA03_Yes-No Task_2019_Jul_03_1344_130,-1,False,2019_Jul_03_1344,Yes-No Task,3,HACA03,
Yes-No Task,55,0,55,0,9.8,-1,Hit,0.501115800114,True,-1,stimulus_HACA03_Yes-No Task_2019_Jul_03_1344_131,-1,False,2019_Jul_03_1344,Yes-No Task,3,HACA03,
Yes-No Task,56,0,56,0,9.8,-1,Correct Rejection,0.399352599867,False,-1,stimulus_HACA03_Yes-No Task_2019_Jul_03_1344_132,-1,False,2019_Jul_03_1344,Yes-No Task,3,HACA03,
Yes-No Task,57,0,57,0,9.8,-1,Correct Rejection,0.601203700062,False,-1,stimulus_HACA03_Yes-No Task_2019_Jul_03_1344_133,-1,False,2019_Jul_03_1344,Yes-No Task,3,HACA03,
Yes-No Task,58,0,58,0,9.8,-1,Hit,0.50193769997,True,-1,stimulus_HACA03_Yes-No Task_2019_Jul_03_1344_134,-1,False,2019_Jul_03_1344,Yes-No Task,3,HACA03,
Yes-No Task,59,0,59,0,9.8,-1,Correct Rejection,0.400179499993,False,-1,stimulus_HACA03_Yes-No Task_2019_Jul_03_1344_135,-1,False,2019_Jul_03_1344,Yes-No Task,3,HACA03,
Yes-No Task,60,0,60,0,9.8,-1,Hit,0.436375699937,True,-1,stimulus_HACA03_Yes-No Task_2019_Jul_03_1344_136,-1,False,2019_Jul_03_1344,Yes-No Task,3,HACA03,
Yes-No Task,61,0,61,0,9.8,-1,Correct Rejection,0.400364700006,False,-1,stimulus_HACA03_Yes-No Task_2019_Jul_03_1344_137,-1,False,2019_Jul_03_1344,Yes-No Task,3,HACA03,
Yes-No Task,62,0,62,0,9.8,-1,Correct Rejection,0.400345599977,False,-1,stimulus_HACA03_Yes-No Task_2019_Jul_03_1344_138,-1,False,2019_Jul_03_1344,Yes-No Task,3,HACA03,
Yes-No Task,63,0,63,0,9.8,-1,Correct Rejection,0.401484400034,False,-1,stimulus_HACA03_Yes-No Task_2019_Jul_03_1344_139,-1,False,2019_Jul_03_1344,Yes-No Task,3,HACA03,
Yes-No Task,64,0,64,0,9.8,-1,Correct Rejection,0.434156400152,False,-1,stimulus_HACA03_Yes-No Task_2019_Jul_03_1344_140,-1,False,2019_Jul_03_1344,Yes-No Task,3,HACA03,
Yes-No Task,65,0,65,0,9.8,-1,Correct Rejection,0.400350800017,False,-1,stimulus_HACA03_Yes-No Task_2019_Jul_03_1344_141,-1,False,2019_Jul_03_1344,Yes-No Task,3,HACA03,
Yes-No Task,66,0,66,0,9.8,-1,Correct Rejection,0.400132100098,False,-1,stimulus_HACA03_Yes-No Task_2019_Jul_03_1344_142,-1,False,2019_Jul_03_1344,Yes-No Task,3,HACA03,
Yes-No Task,67,0,67,0,9.8,-1,Hit,0.533831000095,True,-1,stimulus_HACA03_Yes-No Task_2019_Jul_03_1344_143,-1,False,2019_Jul_03_1344,Yes-No Task,3,HACA03,
Yes-No Task,68,0,68,0,9.8,-1,Hit,0.533120600041,True,-1,stimulus_HACA03_Yes-No Task_2019_Jul_03_1344_144,-1,False,2019_Jul_03_1344,Yes-No Task,3,HACA03,
Yes-No Task,69,0,69,0,9.8,-1,Hit,0.533548400039,True,-1,stimulus_HACA03_Yes-No Task_2019_Jul_03_1344_145,-1,False,2019_Jul_03_1344,Yes-No Task,3,HACA03,
Yes-No Task,70,0,70,0,9.8,-1,Hit,0.46724030003,True,-1,stimulus_HACA03_Yes-No Task_2019_Jul_03_1344_146,-1,False,2019_Jul_03_1344,Yes-No Task,3,HACA03,
Yes-No Task,71,0,71,0,9.8,-1,Correct Rejection,0.466964799911,False,-1,stimulus_HACA03_Yes-No Task_2019_Jul_03_1344_147,-1,False,2019_Jul_03_1344,Yes-No Task,3,HACA03,
Yes-No Task,72,0,72,0,9.8,-1,Hit,0.633687299909,True,-1,stimulus_HACA03_Yes-No Task_2019_Jul_03_1344_148,-1,False,2019_Jul_03_1344,Yes-No Task,3,HACA03,
Yes-No Task,73,0,73,0,9.8,-1,Hit,0.435197800165,True,-1,stimulus_HACA03_Yes-No Task_2019_Jul_03_1344_149,-1,False,2019_Jul_03_1344,Yes-No Task,3,HACA03,
Yes-No Task,74,0,74,0,9.8,-1,Hit,0.46812919993,True,-1,stimulus_HACA03_Yes-No Task_2019_Jul_03_1344_150,-1,False,2019_Jul_03_1344,Yes-No Task,3,HACA03,
Yes-No Task,0,0,0,0,2.7,-1,Miss,0.43408409995,True,-1,stimulus_HACA03_Yes-No Task_2019_Jul_03_1344_151,-1,False,2019_Jul_03_1344,Yes-No Task,3,HACA03,
Yes-No Task,1,0,1,0,2.7,-1,Hit,0.534848300042,True,-1,stimulus_HACA03_Yes-No Task_2019_Jul_03_1344_152,-1,False,2019_Jul_03_1344,Yes-No Task,3,HACA03,
Yes-No Task,2,0,2,0,2.7,-1,Miss,0.465896799928,True,-1,stimulus_HACA03_Yes-No Task_2019_Jul_03_1344_153,-1,False,2019_Jul_03_1344,Yes-No Task,3,HACA03,
Yes-No Task,3,0,3,0,2.7,-1,Correct Rejection,0.500479100039,False,-1,stimulus_HACA03_Yes-No Task_2019_Jul_03_1344_154,-1,False,2019_Jul_03_1344,Yes-No Task,3,HACA03,
Yes-No Task,4,0,4,0,2.7,-1,Correct Rejection,0.499803300016,False,-1,stimulus_HACA03_Yes-No Task_2019_Jul_03_1344_155,-1,False,2019_Jul_03_1344,Yes-No Task,3,HACA03,
Yes-No Task,5,0,5,0,2.7,-1,Hit,0.600679100025,True,-1,stimulus_HACA03_Yes-No Task_2019_Jul_03_1344_156,-1,False,2019_Jul_03_1344,Yes-No Task,3,HACA03,
Yes-No Task,6,0,6,0,2.7,-1,Miss,0.46797600016,True,-1,stimulus_HACA03_Yes-No Task_2019_Jul_03_1344_157,-1,False,2019_Jul_03_1344,Yes-No Task,3,HACA03,
Yes-No Task,7,0,7,0,2.7,-1,False Alarm,0.602067699889,False,-1,stimulus_HACA03_Yes-No Task_2019_Jul_03_1344_158,-1,False,2019_Jul_03_1344,Yes-No Task,3,HACA03,
Yes-No Task,8,0,8,0,2.7,-1,Miss,0.467783800093,True,-1,stimulus_HACA03_Yes-No Task_2019_Jul_03_1344_159,-1,False,2019_Jul_03_1344,Yes-No Task,3,HACA03,
Yes-No Task,9,0,9,0,2.7,-1,Miss,0.567717299797,True,-1,stimulus_HACA03_Yes-No Task_2019_Jul_03_1344_160,-1,False,2019_Jul_03_1344,Yes-No Task,3,HACA03,
Yes-No Task,10,0,10,0,2.7,-1,Miss,0.834127499955,True,-1,stimulus_HACA03_Yes-No Task_2019_Jul_03_1344_161,-1,False,2019_Jul_03_1344,Yes-No Task,3,HACA03,
Yes-No Task,11,0,11,0,2.7,-1,Hit,0.601328199962,True,-1,stimulus_HACA03_Yes-No Task_2019_Jul_03_1344_162,-1,False,2019_Jul_03_1344,Yes-No Task,3,HACA03,
Yes-No Task,12,0,12,0,2.7,-1,Hit,0.601928899996,True,-1,stimulus_HACA03_Yes-No Task_2019_Jul_03_1344_163,-1,False,2019_Jul_03_1344,Yes-No Task,3,HACA03,
Yes-No Task,13,0,13,0,2.7,-1,Correct Rejection,0.600405300036,False,-1,stimulus_HACA03_Yes-No Task_2019_Jul_03_1344_164,-1,False,2019_Jul_03_1344,Yes-No Task,3,HACA03,
Yes-No Task,14,0,14,0,2.7,-1,Correct Rejection,0.498518199893,False,-1,stimulus_HACA03_Yes-No Task_2019_Jul_03_1344_165,-1,False,2019_Jul_03_1344,Yes-No Task,3,HACA03,
Yes-No Task,15,0,15,0,2.7,-1,Hit,0.634230999975,True,-1,stimulus_HACA03_Yes-No Task_2019_Jul_03_1344_166,-1,False,2019_Jul_03_1344,Yes-No Task,3,HACA03,
Yes-No Task,16,0,16,0,2.7,-1,Hit,0.534166599857,True,-1,stimulus_HACA03_Yes-No Task_2019_Jul_03_1344_167,-1,False,2019_Jul_03_1344,Yes-No Task,3,HACA03,
Yes-No Task,17,0,17,0,2.7,-1,Correct Rejection,0.46617810009,False,-1,stimulus_HACA03_Yes-No Task_2019_Jul_03_1344_168,-1,False,2019_Jul_03_1344,Yes-No Task,3,HACA03,
Yes-No Task,18,0,18,0,2.7,-1,Miss,0.467498600017,True,-1,stimulus_HACA03_Yes-No Task_2019_Jul_03_1344_169,-1,False,2019_Jul_03_1344,Yes-No Task,3,HACA03,
Yes-No Task,19,0,19,0,2.7,-1,Miss,0.502648599911,True,-1,stimulus_HACA03_Yes-No Task_2019_Jul_03_1344_170,-1,False,2019_Jul_03_1344,Yes-No Task,3,HACA03,
Yes-No Task,20,0,20,0,2.7,-1,Correct Rejection,0.534571099794,False,-1,stimulus_HACA03_Yes-No Task_2019_Jul_03_1344_171,-1,False,2019_Jul_03_1344,Yes-No Task,3,HACA03,
Yes-No Task,21,0,21,0,2.7,-1,False Alarm,0.600767700002,False,-1,stimulus_HACA03_Yes-No Task_2019_Jul_03_1344_172,-1,False,2019_Jul_03_1344,Yes-No Task,3,HACA03,
Yes-No Task,22,0,22,0,2.7,-1,Correct Rejection,0.467741200002,False,-1,stimulus_HACA03_Yes-No Task_2019_Jul_03_1344_173,-1,False,2019_Jul_03_1344,Yes-No Task,3,HACA03,
Yes-No Task,23,0,23,0,2.7,-1,Miss,0.534411399858,True,-1,stimulus_HACA03_Yes-No Task_2019_Jul_03_1344_174,-1,False,2019_Jul_03_1344,Yes-No Task,3,HACA03,
Yes-No Task,24,0,24,0,2.7,-1,Hit,0.533025200013,True,-1,stimulus_HACA03_Yes-No Task_2019_Jul_03_1344_175,-1,False,2019_Jul_03_1344,Yes-No Task,3,HACA03,
Yes-No Task,25,0,25,0,2.7,-1,Correct Rejection,0.566274399869,False,-1,stimulus_HACA03_Yes-No Task_2019_Jul_03_1344_176,-1,False,2019_Jul_03_1344,Yes-No Task,3,HACA03,
Yes-No Task,26,0,26,0,2.7,-1,Correct Rejection,0.533711299999,False,-1,stimulus_HACA03_Yes-No Task_2019_Jul_03_1344_177,-1,False,2019_Jul_03_1344,Yes-No Task,3,HACA03,
Yes-No Task,27,0,27,0,2.7,-1,Correct Rejection,0.467732799938,False,-1,stimulus_HACA03_Yes-No Task_2019_Jul_03_1344_178,-1,False,2019_Jul_03_1344,Yes-No Task,3,HACA03,
Yes-No Task,28,0,28,0,2.7,-1,Hit,0.56789080007,True,-1,stimulus_HACA03_Yes-No Task_2019_Jul_03_1344_179,-1,False,2019_Jul_03_1344,Yes-No Task,3,HACA03,
Yes-No Task,29,0,29,0,2.7,-1,Correct Rejection,0.468537499895,False,-1,stimulus_HACA03_Yes-No Task_2019_Jul_03_1344_180,-1,False,2019_Jul_03_1344,Yes-No Task,3,HACA03,
Yes-No Task,30,0,30,0,2.7,-1,False Alarm,0.633507200051,False,-1,stimulus_HACA03_Yes-No Task_2019_Jul_03_1344_181,-1,False,2019_Jul_03_1344,Yes-No Task,3,HACA03,
Yes-No Task,31,0,31,0,2.7,-1,Miss,0.46696859994,True,-1,stimulus_HACA03_Yes-No Task_2019_Jul_03_1344_182,-1,False,2019_Jul_03_1344,Yes-No Task,3,HACA03,
Yes-No Task,32,0,32,0,2.7,-1,Miss,0.432959999889,True,-1,stimulus_HACA03_Yes-No Task_2019_Jul_03_1344_183,-1,False,2019_Jul_03_1344,Yes-No Task,3,HACA03,
Yes-No Task,33,0,33,0,2.7,-1,Miss,0.600517600076,True,-1,stimulus_HACA03_Yes-No Task_2019_Jul_03_1344_184,-1,False,2019_Jul_03_1344,Yes-No Task,3,HACA03,
Yes-No Task,34,0,34,0,2.7,-1,Hit,0.733530400088,True,-1,stimulus_HACA03_Yes-No Task_2019_Jul_03_1344_185,-1,False,2019_Jul_03_1344,Yes-No Task,3,HACA03,
Yes-No Task,35,0,35,0,2.7,-1,Hit,0.501099099871,True,-1,stimulus_HACA03_Yes-No Task_2019_Jul_03_1344_186,-1,False,2019_Jul_03_1344,Yes-No Task,3,HACA03,
Yes-No Task,36,0,36,0,2.7,-1,Correct Rejection,0.435186699964,False,-1,stimulus_HACA03_Yes-No Task_2019_Jul_03_1344_187,-1,False,2019_Jul_03_1344,Yes-No Task,3,HACA03,
Yes-No Task,37,0,37,0,2.7,-1,Miss,0.466896899976,True,-1,stimulus_HACA03_Yes-No Task_2019_Jul_03_1344_188,-1,False,2019_Jul_03_1344,Yes-No Task,3,HACA03,
Yes-No Task,38,0,38,0,2.7,-1,Miss,0.533532300033,True,-1,stimulus_HACA03_Yes-No Task_2019_Jul_03_1344_189,-1,False,2019_Jul_03_1344,Yes-No Task,3,HACA03,
Yes-No Task,39,0,39,0,2.7,-1,Hit,0.533712500008,True,-1,stimulus_HACA03_Yes-No Task_2019_Jul_03_1344_190,-1,False,2019_Jul_03_1344,Yes-No Task,3,HACA03,
Yes-No Task,40,0,40,0,2.7,-1,Correct Rejection,0.667188900057,False,-1,stimulus_HACA03_Yes-No Task_2019_Jul_03_1344_191,-1,False,2019_Jul_03_1344,Yes-No Task,3,HACA03,
Yes-No Task,41,0,41,0,2.7,-1,Hit,0.500433299923,True,-1,stimulus_HACA03_Yes-No Task_2019_Jul_03_1344_192,-1,False,2019_Jul_03_1344,Yes-No Task,3,HACA03,
Yes-No Task,42,0,42,0,2.7,-1,Miss,0.46686549997,True,-1,stimulus_HACA03_Yes-No Task_2019_Jul_03_1344_193,-1,False,2019_Jul_03_1344,Yes-No Task,3,HACA03,
Yes-No Task,43,0,43,0,2.7,-1,Correct Rejection,0.566959399963,False,-1,stimulus_HACA03_Yes-No Task_2019_Jul_03_1344_194,-1,False,2019_Jul_03_1344,Yes-No Task,3,HACA03,
Yes-No Task,44,0,44,0,2.7,-1,Correct Rejection,0.598087700084,False,-1,stimulus_HACA03_Yes-No Task_2019_Jul_03_1344_195,-1,False,2019_Jul_03_1344,Yes-No Task,3,HACA03,
Yes-No Task,45,0,45,0,2.7,-1,Hit,0.567116899882,True,-1,stimulus_HACA03_Yes-No Task_2019_Jul_03_1344_196,-1,False,2019_Jul_03_1344,Yes-No Task,3,HACA03,
Yes-No Task,46,0,46,0,2.7,-1,Correct Rejection,0.602943900041,False,-1,stimulus_HACA03_Yes-No Task_2019_Jul_03_1344_197,-1,False,2019_Jul_03_1344,Yes-No Task,3,HACA03,
Yes-No Task,47,0,47,0,2.7,-1,Miss,0.5654201,True,-1,stimulus_HACA03_Yes-No Task_2019_Jul_03_1344_198,-1,False,2019_Jul_03_1344,Yes-No Task,3,HACA03,
Yes-No Task,48,0,48,0,2.7,-1,Correct Rejection,0.533160399878,False,-1,stimulus_HACA03_Yes-No Task_2019_Jul_03_1344_199,-1,False,2019_Jul_03_1344,Yes-No Task,3,HACA03,
Yes-No Task,49,0,49,0,2.7,-1,Miss,0.500216499902,True,-1,stimulus_HACA03_Yes-No Task_2019_Jul_03_1344_200,-1,False,2019_Jul_03_1344,Yes-No Task,3,HACA03,
Yes-No Task,50,0,50,0,2.7,-1,Miss,0.53484810004,True,-1,stimulus_HACA03_Yes-No Task_2019_Jul_03_1344_201,-1,False,2019_Jul_03_1344,Yes-No Task,3,HACA03,
Yes-No Task,51,0,51,0,2.7,-1,Correct Rejection,0.500616899924,False,-1,stimulus_HACA03_Yes-No Task_2019_Jul_03_1344_202,-1,False,2019_Jul_03_1344,Yes-No Task,3,HACA03,
Yes-No Task,52,0,52,0,2.7,-1,Correct Rejection,0.534413299989,False,-1,stimulus_HACA03_Yes-No Task_2019_Jul_03_1344_203,-1,False,2019_Jul_03_1344,Yes-No Task,3,HACA03,
Yes-No Task,53,0,53,0,2.7,-1,Miss,0.500970899826,True,-1,stimulus_HACA03_Yes-No Task_2019_Jul_03_1344_204,-1,False,2019_Jul_03_1344,Yes-No Task,3,HACA03,
Yes-No Task,54,0,54,0,2.7,-1,Correct Rejection,0.667271499988,False,-1,stimulus_HACA03_Yes-No Task_2019_Jul_03_1344_205,-1,False,2019_Jul_03_1344,Yes-No Task,3,HACA03,
Yes-No Task,55,0,55,0,2.7,-1,Correct Rejection,0.501158799976,False,-1,stimulus_HACA03_Yes-No Task_2019_Jul_03_1344_206,-1,False,2019_Jul_03_1344,Yes-No Task,3,HACA03,
Yes-No Task,56,0,56,0,2.7,-1,Hit,0.565984299872,True,-1,stimulus_HACA03_Yes-No Task_2019_Jul_03_1344_207,-1,False,2019_Jul_03_1344,Yes-No Task,3,HACA03,
Yes-No Task,57,0,57,0,2.7,-1,Correct Rejection,0.433606900042,False,-1,stimulus_HACA03_Yes-No Task_2019_Jul_03_1344_208,-1,False,2019_Jul_03_1344,Yes-No Task,3,HACA03,
Yes-No Task,58,0,58,0,2.7,-1,Miss,0.401386300102,True,-1,stimulus_HACA03_Yes-No Task_2019_Jul_03_1344_209,-1,False,2019_Jul_03_1344,Yes-No Task,3,HACA03,
Yes-No Task,59,0,59,0,2.7,-1,Miss,0.53370540007,True,-1,stimulus_HACA03_Yes-No Task_2019_Jul_03_1344_210,-1,False,2019_Jul_03_1344,Yes-No Task,3,HACA03,
Yes-No Task,60,0,60,0,2.7,-1,Correct Rejection,0.467987000011,False,-1,stimulus_HACA03_Yes-No Task_2019_Jul_03_1344_211,-1,False,2019_Jul_03_1344,Yes-No Task,3,HACA03,
Yes-No Task,61,0,61,0,2.7,-1,Correct Rejection,0.532859100029,False,-1,stimulus_HACA03_Yes-No Task_2019_Jul_03_1344_212,-1,False,2019_Jul_03_1344,Yes-No Task,3,HACA03,
Yes-No Task,62,0,62,0,2.7,-1,False Alarm,0.735427599866,False,-1,stimulus_HACA03_Yes-No Task_2019_Jul_03_1344_213,-1,False,2019_Jul_03_1344,Yes-No Task,3,HACA03,
Yes-No Task,63,0,63,0,2.7,-1,Correct Rejection,0.434553799918,False,-1,stimulus_HACA03_Yes-No Task_2019_Jul_03_1344_214,-1,False,2019_Jul_03_1344,Yes-No Task,3,HACA03,
Yes-No Task,64,0,64,0,2.7,-1,Correct Rejection,0.500068000052,False,-1,stimulus_HACA03_Yes-No Task_2019_Jul_03_1344_215,-1,False,2019_Jul_03_1344,Yes-No Task,3,HACA03,
Yes-No Task,65,0,65,0,2.7,-1,Miss,0.50036210008,True,-1,stimulus_HACA03_Yes-No Task_2019_Jul_03_1344_216,-1,False,2019_Jul_03_1344,Yes-No Task,3,HACA03,
Yes-No Task,66,0,66,0,2.7,-1,Correct Rejection,0.501042600023,False,-1,stimulus_HACA03_Yes-No Task_2019_Jul_03_1344_217,-1,False,2019_Jul_03_1344,Yes-No Task,3,HACA03,
Yes-No Task,67,0,67,0,2.7,-1,Correct Rejection,0.567100499989,False,-1,stimulus_HACA03_Yes-No Task_2019_Jul_03_1344_218,-1,False,2019_Jul_03_1344,Yes-No Task,3,HACA03,
Yes-No Task,68,0,68,0,2.7,-1,Correct Rejection,0.568731900072,False,-1,stimulus_HACA03_Yes-No Task_2019_Jul_03_1344_219,-1,False,2019_Jul_03_1344,Yes-No Task,3,HACA03,
Yes-No Task,69,0,69,0,2.7,-1,Correct Rejection,0.501465999987,False,-1,stimulus_HACA03_Yes-No Task_2019_Jul_03_1344_220,-1,False,2019_Jul_03_1344,Yes-No Task,3,HACA03,
Yes-No Task,70,0,70,0,2.7,-1,Hit,0.5675584001,True,-1,stimulus_HACA03_Yes-No Task_2019_Jul_03_1344_221,-1,False,2019_Jul_03_1344,Yes-No Task,3,HACA03,
Yes-No Task,71,0,71,0,2.7,-1,Miss,0.468539400026,True,-1,stimulus_HACA03_Yes-No Task_2019_Jul_03_1344_222,-1,False,2019_Jul_03_1344,Yes-No Task,3,HACA03,
Yes-No Task,72,0,72,0,2.7,-1,Correct Rejection,0.467710199999,False,-1,stimulus_HACA03_Yes-No Task_2019_Jul_03_1344_223,-1,False,2019_Jul_03_1344,Yes-No Task,3,HACA03,
Yes-No Task,73,0,73,0,2.7,-1,Correct Rejection,0.567321700044,False,-1,stimulus_HACA03_Yes-No Task_2019_Jul_03_1344_224,-1,False,2019_Jul_03_1344,Yes-No Task,3,HACA03,
Yes-No Task,74,0,74,0,2.7,-1,Miss,0.667055599857,True,-1,stimulus_HACA03_Yes-No Task_2019_Jul_03_1344_225,-1,False,2019_Jul_03_1344,Yes-No Task,3,HACA03,
Yes-No Task,0,0,0,0,8.8,-1,Miss,0.567673499929,True,-1,stimulus_HACA03_Yes-No Task_2019_Jul_03_1344_226,-1,False,2019_Jul_03_1344,Yes-No Task,3,HACA03,
Yes-No Task,1,0,1,0,8.8,-1,Hit,0.534068700159,True,-1,stimulus_HACA03_Yes-No Task_2019_Jul_03_1344_227,-1,False,2019_Jul_03_1344,Yes-No Task,3,HACA03,
Yes-No Task,2,0,2,0,8.8,-1,Hit,0.500788100064,True,-1,stimulus_HACA03_Yes-No Task_2019_Jul_03_1344_228,-1,False,2019_Jul_03_1344,Yes-No Task,3,HACA03,
Yes-No Task,3,0,3,0,8.8,-1,False Alarm,0.467921499861,False,-1,stimulus_HACA03_Yes-No Task_2019_Jul_03_1344_229,-1,False,2019_Jul_03_1344,Yes-No Task,3,HACA03,
Yes-No Task,4,0,4,0,8.8,-1,False Alarm,0.466934900032,False,-1,stimulus_HACA03_Yes-No Task_2019_Jul_03_1344_230,-1,False,2019_Jul_03_1344,Yes-No Task,3,HACA03,
Yes-No Task,5,0,5,0,8.8,-1,Hit,0.534282699926,True,-1,stimulus_HACA03_Yes-No Task_2019_Jul_03_1344_231,-1,False,2019_Jul_03_1344,Yes-No Task,3,HACA03,
Yes-No Task,6,0,6,0,8.8,-1,Correct Rejection,0.599720000057,False,-1,stimulus_HACA03_Yes-No Task_2019_Jul_03_1344_232,-1,False,2019_Jul_03_1344,Yes-No Task,3,HACA03,
Yes-No Task,7,0,7,0,8.8,-1,Hit,0.400623099878,True,-1,stimulus_HACA03_Yes-No Task_2019_Jul_03_1344_233,-1,False,2019_Jul_03_1344,Yes-No Task,3,HACA03,
Yes-No Task,8,0,8,0,8.8,-1,Correct Rejection,0.467273100046,False,-1,stimulus_HACA03_Yes-No Task_2019_Jul_03_1344_234,-1,False,2019_Jul_03_1344,Yes-No Task,3,HACA03,
Yes-No Task,9,0,9,0,8.8,-1,Correct Rejection,0.600888699992,False,-1,stimulus_HACA03_Yes-No Task_2019_Jul_03_1344_235,-1,False,2019_Jul_03_1344,Yes-No Task,3,HACA03,
Yes-No Task,10,0,10,0,8.8,-1,Correct Rejection,0.467209900031,False,-1,stimulus_HACA03_Yes-No Task_2019_Jul_03_1344_236,-1,False,2019_Jul_03_1344,Yes-No Task,3,HACA03,
Yes-No Task,11,0,11,0,8.8,-1,Correct Rejection,0.502149000065,False,-1,stimulus_HACA03_Yes-No Task_2019_Jul_03_1344_237,-1,False,2019_Jul_03_1344,Yes-No Task,3,HACA03,
Yes-No Task,12,0,12,0,8.8,-1,Hit,0.500284600072,True,-1,stimulus_HACA03_Yes-No Task_2019_Jul_03_1344_238,-1,False,2019_Jul_03_1344,Yes-No Task,3,HACA03,
Yes-No Task,13,0,13,0,8.8,-1,Hit,0.468794399872,True,-1,stimulus_HACA03_Yes-No Task_2019_Jul_03_1344_239,-1,False,2019_Jul_03_1344,Yes-No Task,3,HACA03,
Yes-No Task,14,0,14,0,8.8,-1,Hit,0.467527200002,True,-1,stimulus_HACA03_Yes-No Task_2019_Jul_03_1344_240,-1,False,2019_Jul_03_1344,Yes-No Task,3,HACA03,
Yes-No Task,15,0,15,0,8.8,-1,Hit,0.433875799878,True,-1,stimulus_HACA03_Yes-No Task_2019_Jul_03_1344_241,-1,False,2019_Jul_03_1344,Yes-No Task,3,HACA03,
Yes-No Task,16,0,16,0,8.8,-1,Correct Rejection,0.466820300091,False,-1,stimulus_HACA03_Yes-No Task_2019_Jul_03_1344_242,-1,False,2019_Jul_03_1344,Yes-No Task,3,HACA03,
Yes-No Task,17,0,17,0,8.8,-1,Miss,0.433869899949,True,-1,stimulus_HACA03_Yes-No Task_2019_Jul_03_1344_243,-1,False,2019_Jul_03_1344,Yes-No Task,3,HACA03,
Yes-No Task,18,0,18,0,8.8,-1,Hit,0.534094600007,True,-1,stimulus_HACA03_Yes-No Task_2019_Jul_03_1344_244,-1,False,2019_Jul_03_1344,Yes-No Task,3,HACA03,
Yes-No Task,19,0,19,0,8.8,-1,Miss,0.534973900067,True,-1,stimulus_HACA03_Yes-No Task_2019_Jul_03_1344_245,-1,False,2019_Jul_03_1344,Yes-No Task,3,HACA03,
Yes-No Task,20,0,20,0,8.8,-1,Hit,0.434351100121,True,-1,stimulus_HACA03_Yes-No Task_2019_Jul_03_1344_246,-1,False,2019_Jul_03_1344,Yes-No Task,3,HACA03,
Yes-No Task,21,0,21,0,8.8,-1,Hit,0.434743999969,True,-1,stimulus_HACA03_Yes-No Task_2019_Jul_03_1344_247,-1,False,2019_Jul_03_1344,Yes-No Task,3,HACA03,
Yes-No Task,22,0,22,0,8.8,-1,Miss,0.600811099866,True,-1,stimulus_HACA03_Yes-No Task_2019_Jul_03_1344_248,-1,False,2019_Jul_03_1344,Yes-No Task,3,HACA03,
Yes-No Task,23,0,23,0,8.8,-1,Hit,0.435389199993,True,-1,stimulus_HACA03_Yes-No Task_2019_Jul_03_1344_249,-1,False,2019_Jul_03_1344,Yes-No Task,3,HACA03,
Yes-No Task,24,0,24,0,8.8,-1,False Alarm,0.435609800043,False,-1,stimulus_HACA03_Yes-No Task_2019_Jul_03_1344_250,-1,False,2019_Jul_03_1344,Yes-No Task,3,HACA03,
Yes-No Task,25,0,25,0,8.8,-1,Correct Rejection,0.433807099937,False,-1,stimulus_HACA03_Yes-No Task_2019_Jul_03_1344_251,-1,False,2019_Jul_03_1344,Yes-No Task,3,HACA03,
Yes-No Task,26,0,26,0,8.8,-1,Hit,0.533548300155,True,-1,stimulus_HACA03_Yes-No Task_2019_Jul_03_1344_252,-1,False,2019_Jul_03_1344,Yes-No Task,3,HACA03,
Yes-No Task,27,0,27,0,8.8,-1,Correct Rejection,0.467215500074,False,-1,stimulus_HACA03_Yes-No Task_2019_Jul_03_1344_253,-1,False,2019_Jul_03_1344,Yes-No Task,3,HACA03,
Yes-No Task,28,0,28,0,8.8,-1,Hit,0.434086099965,True,-1,stimulus_HACA03_Yes-No Task_2019_Jul_03_1344_254,-1,False,2019_Jul_03_1344,Yes-No Task,3,HACA03,
Yes-No Task,29,0,29,0,8.8,-1,Correct Rejection,0.36774399993,False,-1,stimulus_HACA03_Yes-No Task_2019_Jul_03_1344_255,-1,False,2019_Jul_03_1344,Yes-No Task,3,HACA03,
Yes-No Task,30,0,30,0,8.8,-1,Hit,0.500727999955,True,-1,stimulus_HACA03_Yes-No Task_2019_Jul_03_1344_256,-1,False,2019_Jul_03_1344,Yes-No Task,3,HACA03,
Yes-No Task,31,0,31,0,8.8,-1,Hit,0.534291800112,True,-1,stimulus_HACA03_Yes-No Task_2019_Jul_03_1344_257,-1,False,2019_Jul_03_1344,Yes-No Task,3,HACA03,
Yes-No Task,32,0,32,0,8.8,-1,Correct Rejection,0.434013799997,False,-1,stimulus_HACA03_Yes-No Task_2019_Jul_03_1344_258,-1,False,2019_Jul_03_1344,Yes-No Task,3,HACA03,
Yes-No Task,33,0,33,0,8.8,-1,Correct Rejection,0.467532000039,False,-1,stimulus_HACA03_Yes-No Task_2019_Jul_03_1344_259,-1,False,2019_Jul_03_1344,Yes-No Task,3,HACA03,
Yes-No Task,34,0,34,0,8.8,-1,Correct Rejection,0.432669699891,False,-1,stimulus_HACA03_Yes-No Task_2019_Jul_03_1344_260,-1,False,2019_Jul_03_1344,Yes-No Task,3,HACA03,
Yes-No Task,35,0,35,0,8.8,-1,Hit,0.401103599928,True,-1,stimulus_HACA03_Yes-No Task_2019_Jul_03_1344_261,-1,False,2019_Jul_03_1344,Yes-No Task,3,HACA03,
Yes-No Task,36,0,36,0,8.8,-1,Correct Rejection,0.401156899985,False,-1,stimulus_HACA03_Yes-No Task_2019_Jul_03_1344_262,-1,False,2019_Jul_03_1344,Yes-No Task,3,HACA03,
Yes-No Task,37,0,37,0,8.8,-1,Correct Rejection,0.366544899996,False,-1,stimulus_HACA03_Yes-No Task_2019_Jul_03_1344_263,-1,False,2019_Jul_03_1344,Yes-No Task,3,HACA03,
Yes-No Task,38,0,38,0,8.8,-1,False Alarm,0.43369760015,False,-1,stimulus_HACA03_Yes-No Task_2019_Jul_03_1344_264,-1,False,2019_Jul_03_1344,Yes-No Task,3,HACA03,
Yes-No Task,39,0,39,0,8.8,-1,Hit,0.56858099997,True,-1,stimulus_HACA03_Yes-No Task_2019_Jul_03_1344_265,-1,False,2019_Jul_03_1344,Yes-No Task,3,HACA03,
Yes-No Task,40,0,40,0,8.8,-1,Correct Rejection,0.368713099975,False,-1,stimulus_HACA03_Yes-No Task_2019_Jul_03_1344_266,-1,False,2019_Jul_03_1344,Yes-No Task,3,HACA03,
Yes-No Task,41,0,41,0,8.8,-1,Hit,0.501332100015,True,-1,stimulus_HACA03_Yes-No Task_2019_Jul_03_1344_267,-1,False,2019_Jul_03_1344,Yes-No Task,3,HACA03,
Yes-No Task,42,0,42,0,8.8,-1,Hit,0.60125930002,True,-1,stimulus_HACA03_Yes-No Task_2019_Jul_03_1344_268,-1,False,2019_Jul_03_1344,Yes-No Task,3,HACA03,
Yes-No Task,43,0,43,0,8.8,-1,Correct Rejection,0.400932499906,False,-1,stimulus_HACA03_Yes-No Task_2019_Jul_03_1344_269,-1,False,2019_Jul_03_1344,Yes-No Task,3,HACA03,
Yes-No Task,44,0,44,0,8.8,-1,Hit,0.433519799961,True,-1,stimulus_HACA03_Yes-No Task_2019_Jul_03_1344_270,-1,False,2019_Jul_03_1344,Yes-No Task,3,HACA03,
Yes-No Task,45,0,45,0,8.8,-1,Correct Rejection,0.432762200013,False,-1,stimulus_HACA03_Yes-No Task_2019_Jul_03_1344_271,-1,False,2019_Jul_03_1344,Yes-No Task,3,HACA03,
Yes-No Task,46,0,46,0,8.8,-1,Hit,0.434273099992,True,-1,stimulus_HACA03_Yes-No Task_2019_Jul_03_1344_272,-1,False,2019_Jul_03_1344,Yes-No Task,3,HACA03,
Yes-No Task,47,0,47,0,8.8,-1,Correct Rejection,0.433577599935,False,-1,stimulus_HACA03_Yes-No Task_2019_Jul_03_1344_273,-1,False,2019_Jul_03_1344,Yes-No Task,3,HACA03,
Yes-No Task,48,0,48,0,8.8,-1,Correct Rejection,0.46708439989,False,-1,stimulus_HACA03_Yes-No Task_2019_Jul_03_1344_274,-1,False,2019_Jul_03_1344,Yes-No Task,3,HACA03,
Yes-No Task,49,0,49,0,8.8,-1,Hit,0.433547399938,True,-1,stimulus_HACA03_Yes-No Task_2019_Jul_03_1344_275,-1,False,2019_Jul_03_1344,Yes-No Task,3,HACA03,
Yes-No Task,50,0,50,0,8.8,-1,Correct Rejection,0.434153800132,False,-1,stimulus_HACA03_Yes-No Task_2019_Jul_03_1344_276,-1,False,2019_Jul_03_1344,Yes-No Task,3,HACA03,
Yes-No Task,51,0,51,0,8.8,-1,Miss,0.467131300131,True,-1,stimulus_HACA03_Yes-No Task_2019_Jul_03_1344_277,-1,False,2019_Jul_03_1344,Yes-No Task,3,HACA03,
Yes-No Task,52,0,52,0,8.8,-1,Correct Rejection,0.634143300122,False,-1,stimulus_HACA03_Yes-No Task_2019_Jul_03_1344_278,-1,False,2019_Jul_03_1344,Yes-No Task,3,HACA03,
Yes-No Task,53,0,53,0,8.8,-1,Hit,0.466753599932,True,-1,stimulus_HACA03_Yes-No Task_2019_Jul_03_1344_279,-1,False,2019_Jul_03_1344,Yes-No Task,3,HACA03,
Yes-No Task,54,0,54,0,8.8,-1,Correct Rejection,0.46625529998,False,-1,stimulus_HACA03_Yes-No Task_2019_Jul_03_1344_280,-1,False,2019_Jul_03_1344,Yes-No Task,3,HACA03,
Yes-No Task,55,0,55,0,8.8,-1,Correct Rejection,0.534255999839,False,-1,stimulus_HACA03_Yes-No Task_2019_Jul_03_1344_281,-1,False,2019_Jul_03_1344,Yes-No Task,3,HACA03,
Yes-No Task,56,0,56,0,8.8,-1,Hit,0.50080330018,True,-1,stimulus_HACA03_Yes-No Task_2019_Jul_03_1344_282,-1,False,2019_Jul_03_1344,Yes-No Task,3,HACA03,
Yes-No Task,57,0,57,0,8.8,-1,Correct Rejection,0.434347400209,False,-1,stimulus_HACA03_Yes-No Task_2019_Jul_03_1344_283,-1,False,2019_Jul_03_1344,Yes-No Task,3,HACA03,
Yes-No Task,58,0,58,0,8.8,-1,Correct Rejection,0.634524800116,False,-1,stimulus_HACA03_Yes-No Task_2019_Jul_03_1344_284,-1,False,2019_Jul_03_1344,Yes-No Task,3,HACA03,
Yes-No Task,59,0,59,0,8.8,-1,Hit,0.5001966001,True,-1,stimulus_HACA03_Yes-No Task_2019_Jul_03_1344_285,-1,False,2019_Jul_03_1344,Yes-No Task,3,HACA03,
Yes-No Task,60,0,60,0,8.8,-1,Hit,0.566939700162,True,-1,stimulus_HACA03_Yes-No Task_2019_Jul_03_1344_286,-1,False,2019_Jul_03_1344,Yes-No Task,3,HACA03,
Yes-No Task,61,0,61,0,8.8,-1,Correct Rejection,0.500404099934,False,-1,stimulus_HACA03_Yes-No Task_2019_Jul_03_1344_287,-1,False,2019_Jul_03_1344,Yes-No Task,3,HACA03,
Yes-No Task,62,0,62,0,8.8,-1,Hit,0.566907700151,True,-1,stimulus_HACA03_Yes-No Task_2019_Jul_03_1344_288,-1,False,2019_Jul_03_1344,Yes-No Task,3,HACA03,
Yes-No Task,63,0,63,0,8.8,-1,Hit,0.501172899967,True,-1,stimulus_HACA03_Yes-No Task_2019_Jul_03_1344_289,-1,False,2019_Jul_03_1344,Yes-No Task,3,HACA03,
Yes-No Task,64,0,64,0,8.8,-1,Miss,0.501212799922,True,-1,stimulus_HACA03_Yes-No Task_2019_Jul_03_1344_290,-1,False,2019_Jul_03_1344,Yes-No Task,3,HACA03,
Yes-No Task,65,0,65,0,8.8,-1,Hit,0.433192800032,True,-1,stimulus_HACA03_Yes-No Task_2019_Jul_03_1344_291,-1,False,2019_Jul_03_1344,Yes-No Task,3,HACA03,
Yes-No Task,66,0,66,0,8.8,-1,Correct Rejection,0.467115200125,False,-1,stimulus_HACA03_Yes-No Task_2019_Jul_03_1344_292,-1,False,2019_Jul_03_1344,Yes-No Task,3,HACA03,
Yes-No Task,67,0,67,0,8.8,-1,Hit,0.534563000081,True,-1,stimulus_HACA03_Yes-No Task_2019_Jul_03_1344_293,-1,False,2019_Jul_03_1344,Yes-No Task,3,HACA03,
Yes-No Task,68,0,68,0,8.8,-1,Hit,0.502538200002,True,-1,stimulus_HACA03_Yes-No Task_2019_Jul_03_1344_294,-1,False,2019_Jul_03_1344,Yes-No Task,3,HACA03,
Yes-No Task,69,0,69,0,8.8,-1,Correct Rejection,0.501055300003,False,-1,stimulus_HACA03_Yes-No Task_2019_Jul_03_1344_295,-1,False,2019_Jul_03_1344,Yes-No Task,3,HACA03,
Yes-No Task,70,0,70,0,8.8,-1,Hit,0.433847900014,True,-1,stimulus_HACA03_Yes-No Task_2019_Jul_03_1344_296,-1,False,2019_Jul_03_1344,Yes-No Task,3,HACA03,
Yes-No Task,71,0,71,0,8.8,-1,Correct Rejection,0.434572499944,False,-1,stimulus_HACA03_Yes-No Task_2019_Jul_03_1344_297,-1,False,2019_Jul_03_1344,Yes-No Task,3,HACA03,
Yes-No Task,72,0,72,0,8.8,-1,Correct Rejection,0.63442129991,False,-1,stimulus_HACA03_Yes-No Task_2019_Jul_03_1344_298,-1,False,2019_Jul_03_1344,Yes-No Task,3,HACA03,
Yes-No Task,73,0,73,0,8.8,-1,Hit,0.467192200013,True,-1,stimulus_HACA03_Yes-No Task_2019_Jul_03_1344_299,-1,False,2019_Jul_03_1344,Yes-No Task,3,HACA03,
Yes-No Task,74,0,74,0,8.8,-1,Hit,0.500356999924,True,-1,stimulus_HACA03_Yes-No Task_2019_Jul_03_1344_300,-1,False,2019_Jul_03_1344,Yes-No Task,3,HACA03,
Yes-No Task,0,0,0,0,5.7,-1,Correct Rejection,0.534256499959,False,-1,stimulus_HACA03_Yes-No Task_2019_Jul_03_1344_301,-1,False,2019_Jul_03_1344,Yes-No Task,3,HACA03,
Yes-No Task,1,0,1,0,5.7,-1,Miss,0.50261519989,True,-1,stimulus_HACA03_Yes-No Task_2019_Jul_03_1344_302,-1,False,2019_Jul_03_1344,Yes-No Task,3,HACA03,
Yes-No Task,2,0,2,0,5.7,-1,Hit,0.567949000048,True,-1,stimulus_HACA03_Yes-No Task_2019_Jul_03_1344_303,-1,False,2019_Jul_03_1344,Yes-No Task,3,HACA03,
Yes-No Task,3,0,3,0,5.7,-1,Hit,0.567230300047,True,-1,stimulus_HACA03_Yes-No Task_2019_Jul_03_1344_304,-1,False,2019_Jul_03_1344,Yes-No Task,3,HACA03,
Yes-No Task,4,0,4,0,5.7,-1,Correct Rejection,0.433878900018,False,-1,stimulus_HACA03_Yes-No Task_2019_Jul_03_1344_305,-1,False,2019_Jul_03_1344,Yes-No Task,3,HACA03,
Yes-No Task,5,0,5,0,5.7,-1,Correct Rejection,0.600853900192,False,-1,stimulus_HACA03_Yes-No Task_2019_Jul_03_1344_306,-1,False,2019_Jul_03_1344,Yes-No Task,3,HACA03,
Yes-No Task,6,0,6,0,5.7,-1,Miss,0.499009700026,True,-1,stimulus_HACA03_Yes-No Task_2019_Jul_03_1344_307,-1,False,2019_Jul_03_1344,Yes-No Task,3,HACA03,
Yes-No Task,7,0,7,0,5.7,-1,Hit,0.500986499945,True,-1,stimulus_HACA03_Yes-No Task_2019_Jul_03_1344_308,-1,False,2019_Jul_03_1344,Yes-No Task,3,HACA03,
Yes-No Task,8,0,8,0,5.7,-1,Correct Rejection,0.467319000047,False,-1,stimulus_HACA03_Yes-No Task_2019_Jul_03_1344_309,-1,False,2019_Jul_03_1344,Yes-No Task,3,HACA03,
Yes-No Task,9,0,9,0,5.7,-1,Correct Rejection,0.467492799973,False,-1,stimulus_HACA03_Yes-No Task_2019_Jul_03_1344_310,-1,False,2019_Jul_03_1344,Yes-No Task,3,HACA03,
Yes-No Task,10,0,10,0,5.7,-1,Correct Rejection,0.500372400042,False,-1,stimulus_HACA03_Yes-No Task_2019_Jul_03_1344_311,-1,False,2019_Jul_03_1344,Yes-No Task,3,HACA03,
Yes-No Task,11,0,11,0,5.7,-1,Correct Rejection,0.534003200009,False,-1,stimulus_HACA03_Yes-No Task_2019_Jul_03_1344_312,-1,False,2019_Jul_03_1344,Yes-No Task,3,HACA03,
Yes-No Task,12,0,12,0,5.7,-1,Correct Rejection,0.467097900109,False,-1,stimulus_HACA03_Yes-No Task_2019_Jul_03_1344_313,-1,False,2019_Jul_03_1344,Yes-No Task,3,HACA03,
Yes-No Task,13,0,13,0,5.7,-1,Hit,0.43346950016,True,-1,stimulus_HACA03_Yes-No Task_2019_Jul_03_1344_314,-1,False,2019_Jul_03_1344,Yes-No Task,3,HACA03,
Yes-No Task,14,0,14,0,5.7,-1,Correct Rejection,0.466818300076,False,-1,stimulus_HACA03_Yes-No Task_2019_Jul_03_1344_315,-1,False,2019_Jul_03_1344,Yes-No Task,3,HACA03,
Yes-No Task,15,0,15,0,5.7,-1,Hit,0.501329200109,True,-1,stimulus_HACA03_Yes-No Task_2019_Jul_03_1344_316,-1,False,2019_Jul_03_1344,Yes-No Task,3,HACA03,
Yes-No Task,16,0,16,0,5.7,-1,False Alarm,0.533431000076,False,-1,stimulus_HACA03_Yes-No Task_2019_Jul_03_1344_317,-1,False,2019_Jul_03_1344,Yes-No Task,3,HACA03,
Yes-No Task,17,0,17,0,5.7,-1,Hit,0.569538600044,True,-1,stimulus_HACA03_Yes-No Task_2019_Jul_03_1344_318,-1,False,2019_Jul_03_1344,Yes-No Task,3,HACA03,
Yes-No Task,18,0,18,0,5.7,-1,Correct Rejection,0.467022000114,False,-1,stimulus_HACA03_Yes-No Task_2019_Jul_03_1344_319,-1,False,2019_Jul_03_1344,Yes-No Task,3,HACA03,
Yes-No Task,19,0,19,0,5.7,-1,Hit,0.533117799787,True,-1,stimulus_HACA03_Yes-No Task_2019_Jul_03_1344_320,-1,False,2019_Jul_03_1344,Yes-No Task,3,HACA03,
Yes-No Task,20,0,20,0,5.7,-1,False Alarm,0.600537399994,False,-1,stimulus_HACA03_Yes-No Task_2019_Jul_03_1344_321,-1,False,2019_Jul_03_1344,Yes-No Task,3,HACA03,
Yes-No Task,21,0,21,0,5.7,-1,Miss,0.568243299844,True,-1,stimulus_HACA03_Yes-No Task_2019_Jul_03_1344_322,-1,False,2019_Jul_03_1344,Yes-No Task,3,HACA03,
Yes-No Task,22,0,22,0,5.7,-1,Hit,0.533927500015,True,-1,stimulus_HACA03_Yes-No Task_2019_Jul_03_1344_323,-1,False,2019_Jul_03_1344,Yes-No Task,3,HACA03,
Yes-No Task,23,0,23,0,5.7,-1,Hit,0.436343899928,True,-1,stimulus_HACA03_Yes-No Task_2019_Jul_03_1344_324,-1,False,2019_Jul_03_1344,Yes-No Task,3,HACA03,
Yes-No Task,24,0,24,0,5.7,-1,Correct Rejection,0.666881300043,False,-1,stimulus_HACA03_Yes-No Task_2019_Jul_03_1344_325,-1,False,2019_Jul_03_1344,Yes-No Task,3,HACA03,
Yes-No Task,25,0,25,0,5.7,-1,Miss,0.567291300045,True,-1,stimulus_HACA03_Yes-No Task_2019_Jul_03_1344_326,-1,False,2019_Jul_03_1344,Yes-No Task,3,HACA03,
Yes-No Task,26,0,26,0,5.7,-1,Miss,0.500512200175,True,-1,stimulus_HACA03_Yes-No Task_2019_Jul_03_1344_327,-1,False,2019_Jul_03_1344,Yes-No Task,3,HACA03,
Yes-No Task,27,0,27,0,5.7,-1,Correct Rejection,0.566942699952,False,-1,stimulus_HACA03_Yes-No Task_2019_Jul_03_1344_328,-1,False,2019_Jul_03_1344,Yes-No Task,3,HACA03,
Yes-No Task,28,0,28,0,5.7,-1,Correct Rejection,0.501093300059,False,-1,stimulus_HACA03_Yes-No Task_2019_Jul_03_1344_329,-1,False,2019_Jul_03_1344,Yes-No Task,3,HACA03,
Yes-No Task,29,0,29,0,5.7,-1,Hit,0.567119499901,True,-1,stimulus_HACA03_Yes-No Task_2019_Jul_03_1344_330,-1,False,2019_Jul_03_1344,Yes-No Task,3,HACA03,
Yes-No Task,30,0,30,0,5.7,-1,Hit,0.468084399821,True,-1,stimulus_HACA03_Yes-No Task_2019_Jul_03_1344_331,-1,False,2019_Jul_03_1344,Yes-No Task,3,HACA03,
Yes-No Task,31,0,31,0,5.7,-1,False Alarm,0.533738400089,False,-1,stimulus_HACA03_Yes-No Task_2019_Jul_03_1344_332,-1,False,2019_Jul_03_1344,Yes-No Task,3,HACA03,
Yes-No Task,32,0,32,0,5.7,-1,Miss,0.46635579993,True,-1,stimulus_HACA03_Yes-No Task_2019_Jul_03_1344_333,-1,False,2019_Jul_03_1344,Yes-No Task,3,HACA03,
Yes-No Task,33,0,33,0,5.7,-1,False Alarm,0.434030999895,False,-1,stimulus_HACA03_Yes-No Task_2019_Jul_03_1344_334,-1,False,2019_Jul_03_1344,Yes-No Task,3,HACA03,
Yes-No Task,34,0,34,0,5.7,-1,False Alarm,0.600989300059,False,-1,stimulus_HACA03_Yes-No Task_2019_Jul_03_1344_335,-1,False,2019_Jul_03_1344,Yes-No Task,3,HACA03,
Yes-No Task,35,0,35,0,5.7,-1,Miss,0.500811599893,True,-1,stimulus_HACA03_Yes-No Task_2019_Jul_03_1344_336,-1,False,2019_Jul_03_1344,Yes-No Task,3,HACA03,
Yes-No Task,36,0,36,0,5.7,-1,Miss,0.50019749999,True,-1,stimulus_HACA03_Yes-No Task_2019_Jul_03_1344_337,-1,False,2019_Jul_03_1344,Yes-No Task,3,HACA03,
Yes-No Task,37,0,37,0,5.7,-1,Correct Rejection,0.603728000075,False,-1,stimulus_HACA03_Yes-No Task_2019_Jul_03_1344_338,-1,False,2019_Jul_03_1344,Yes-No Task,3,HACA03,
Yes-No Task,38,0,38,0,5.7,-1,Miss,0.567108999938,True,-1,stimulus_HACA03_Yes-No Task_2019_Jul_03_1344_339,-1,False,2019_Jul_03_1344,Yes-No Task,3,HACA03,
Yes-No Task,39,0,39,0,5.7,-1,False Alarm,0.500921499915,False,-1,stimulus_HACA03_Yes-No Task_2019_Jul_03_1344_340,-1,False,2019_Jul_03_1344,Yes-No Task,3,HACA03,
Yes-No Task,40,0,40,0,5.7,-1,Miss,0.700990400044,True,-1,stimulus_HACA03_Yes-No Task_2019_Jul_03_1344_341,-1,False,2019_Jul_03_1344,Yes-No Task,3,HACA03,
Yes-No Task,41,0,41,0,5.7,-1,Miss,0.634486399824,True,-1,stimulus_HACA03_Yes-No Task_2019_Jul_03_1344_342,-1,False,2019_Jul_03_1344,Yes-No Task,3,HACA03,
Yes-No Task,42,0,42,0,5.7,-1,Correct Rejection,0.834552400047,False,-1,stimulus_HACA03_Yes-No Task_2019_Jul_03_1344_343,-1,False,2019_Jul_03_1344,Yes-No Task,3,HACA03,
Yes-No Task,43,0,43,0,5.7,-1,Correct Rejection,0.535347499885,False,-1,stimulus_HACA03_Yes-No Task_2019_Jul_03_1344_344,-1,False,2019_Jul_03_1344,Yes-No Task,3,HACA03,
Yes-No Task,44,0,44,0,5.7,-1,Hit,0.533507599961,True,-1,stimulus_HACA03_Yes-No Task_2019_Jul_03_1344_345,-1,False,2019_Jul_03_1344,Yes-No Task,3,HACA03,
Yes-No Task,45,0,45,0,5.7,-1,Miss,0.433725200128,True,-1,stimulus_HACA03_Yes-No Task_2019_Jul_03_1344_346,-1,False,2019_Jul_03_1344,Yes-No Task,3,HACA03,
Yes-No Task,46,0,46,0,5.7,-1,Correct Rejection,0.500305199996,False,-1,stimulus_HACA03_Yes-No Task_2019_Jul_03_1344_347,-1,False,2019_Jul_03_1344,Yes-No Task,3,HACA03,
Yes-No Task,47,0,47,0,5.7,-1,Hit,0.500711400062,True,-1,stimulus_HACA03_Yes-No Task_2019_Jul_03_1344_348,-1,False,2019_Jul_03_1344,Yes-No Task,3,HACA03,
Yes-No Task,48,0,48,0,5.7,-1,Hit,0.567480900092,True,-1,stimulus_HACA03_Yes-No Task_2019_Jul_03_1344_349,-1,False,2019_Jul_03_1344,Yes-No Task,3,HACA03,
Yes-No Task,49,0,49,0,5.7,-1,Correct Rejection,0.398893899983,False,-1,stimulus_HACA03_Yes-No Task_2019_Jul_03_1344_350,-1,False,2019_Jul_03_1344,Yes-No Task,3,HACA03,
Yes-No Task,50,0,50,0,5.7,-1,Hit,0.433983199997,True,-1,stimulus_HACA03_Yes-No Task_2019_Jul_03_1344_351,-1,False,2019_Jul_03_1344,Yes-No Task,3,HACA03,
Yes-No Task,51,0,51,0,5.7,-1,Correct Rejection,0.467136800056,False,-1,stimulus_HACA03_Yes-No Task_2019_Jul_03_1344_352,-1,False,2019_Jul_03_1344,Yes-No Task,3,HACA03,
Yes-No Task,52,0,52,0,5.7,-1,Hit,0.633184399921,True,-1,stimulus_HACA03_Yes-No Task_2019_Jul_03_1344_353,-1,False,2019_Jul_03_1344,Yes-No Task,3,HACA03,
Yes-No Task,53,0,53,0,5.7,-1,Hit,0.533452300122,True,-1,stimulus_HACA03_Yes-No Task_2019_Jul_03_1344_354,-1,False,2019_Jul_03_1344,Yes-No Task,3,HACA03,
Yes-No Task,54,0,54,0,5.7,-1,Correct Rejection,0.468260399997,False,-1,stimulus_HACA03_Yes-No Task_2019_Jul_03_1344_355,-1,False,2019_Jul_03_1344,Yes-No Task,3,HACA03,
Yes-No Task,55,0,55,0,5.7,-1,Miss,0.635106200119,True,-1,stimulus_HACA03_Yes-No Task_2019_Jul_03_1344_356,-1,False,2019_Jul_03_1344,Yes-No Task,3,HACA03,
Yes-No Task,56,0,56,0,5.7,-1,Correct Rejection,0.465308400104,False,-1,stimulus_HACA03_Yes-No Task_2019_Jul_03_1344_357,-1,False,2019_Jul_03_1344,Yes-No Task,3,HACA03,
Yes-No Task,57,0,57,0,5.7,-1,Correct Rejection,0.468380500097,False,-1,stimulus_HACA03_Yes-No Task_2019_Jul_03_1344_358,-1,False,2019_Jul_03_1344,Yes-No Task,3,HACA03,
Yes-No Task,58,0,58,0,5.7,-1,Correct Rejection,0.467689799843,False,-1,stimulus_HACA03_Yes-No Task_2019_Jul_03_1344_359,-1,False,2019_Jul_03_1344,Yes-No Task,3,HACA03,
Yes-No Task,59,0,59,0,5.7,-1,Correct Rejection,0.433135600062,False,-1,stimulus_HACA03_Yes-No Task_2019_Jul_03_1344_360,-1,False,2019_Jul_03_1344,Yes-No Task,3,HACA03,
Yes-No Task,60,0,60,0,5.7,-1,Correct Rejection,0.434035300044,False,-1,stimulus_HACA03_Yes-No Task_2019_Jul_03_1344_361,-1,False,2019_Jul_03_1344,Yes-No Task,3,HACA03,
Yes-No Task,61,0,61,0,5.7,-1,Correct Rejection,0.43416879978,False,-1,stimulus_HACA03_Yes-No Task_2019_Jul_03_1344_362,-1,False,2019_Jul_03_1344,Yes-No Task,3,HACA03,
Yes-No Task,62,0,62,0,5.7,-1,Hit,0.467049499974,True,-1,stimulus_HACA03_Yes-No Task_2019_Jul_03_1344_363,-1,False,2019_Jul_03_1344,Yes-No Task,3,HACA03,
Yes-No Task,63,0,63,0,5.7,-1,Miss,0.435022100108,True,-1,stimulus_HACA03_Yes-No Task_2019_Jul_03_1344_364,-1,False,2019_Jul_03_1344,Yes-No Task,3,HACA03,
Yes-No Task,64,0,64,0,5.7,-1,Miss,0.333276000107,True,-1,stimulus_HACA03_Yes-No Task_2019_Jul_03_1344_365,-1,False,2019_Jul_03_1344,Yes-No Task,3,HACA03,
Yes-No Task,65,0,65,0,5.7,-1,Miss,0.433505299967,True,-1,stimulus_HACA03_Yes-No Task_2019_Jul_03_1344_366,-1,False,2019_Jul_03_1344,Yes-No Task,3,HACA03,
Yes-No Task,66,0,66,0,5.7,-1,Miss,0.501927700127,True,-1,stimulus_HACA03_Yes-No Task_2019_Jul_03_1344_367,-1,False,2019_Jul_03_1344,Yes-No Task,3,HACA03,
Yes-No Task,67,0,67,0,5.7,-1,Miss,0.46877749986,True,-1,stimulus_HACA03_Yes-No Task_2019_Jul_03_1344_368,-1,False,2019_Jul_03_1344,Yes-No Task,3,HACA03,
Yes-No Task,68,0,68,0,5.7,-1,Hit,0.500674299896,True,-1,stimulus_HACA03_Yes-No Task_2019_Jul_03_1344_369,-1,False,2019_Jul_03_1344,Yes-No Task,3,HACA03,
Yes-No Task,69,0,69,0,5.7,-1,Correct Rejection,0.465558900032,False,-1,stimulus_HACA03_Yes-No Task_2019_Jul_03_1344_370,-1,False,2019_Jul_03_1344,Yes-No Task,3,HACA03,
Yes-No Task,70,0,70,0,5.7,-1,Correct Rejection,0.468792000087,False,-1,stimulus_HACA03_Yes-No Task_2019_Jul_03_1344_371,-1,False,2019_Jul_03_1344,Yes-No Task,3,HACA03,
Yes-No Task,71,0,71,0,5.7,-1,False Alarm,0.467548999935,False,-1,stimulus_HACA03_Yes-No Task_2019_Jul_03_1344_372,-1,False,2019_Jul_03_1344,Yes-No Task,3,HACA03,
Yes-No Task,72,0,72,0,5.7,-1,Hit,0.633877600078,True,-1,stimulus_HACA03_Yes-No Task_2019_Jul_03_1344_373,-1,False,2019_Jul_03_1344,Yes-No Task,3,HACA03,
Yes-No Task,73,0,73,0,5.7,-1,Miss,0.399946299847,True,-1,stimulus_HACA03_Yes-No Task_2019_Jul_03_1344_374,-1,False,2019_Jul_03_1344,Yes-No Task,3,HACA03,
Yes-No Task,74,0,74,0,5.7,-1,Miss,0.568361199927,True,-1,stimulus_HACA03_Yes-No Task_2019_Jul_03_1344_375,-1,False,2019_Jul_03_1344,Yes-No Task,3,HACA03,
Yes-No Task,0,0,0,0,7.8,-1,Correct Rejection,0.700682000024,False,-1,stimulus_HACA03_Yes-No Task_2019_Jul_03_1344_376,-1,False,2019_Jul_03_1344,Yes-No Task,3,HACA03,
Yes-No Task,1,0,1,0,7.8,-1,False Alarm,0.433564399835,False,-1,stimulus_HACA03_Yes-No Task_2019_Jul_03_1344_377,-1,False,2019_Jul_03_1344,Yes-No Task,3,HACA03,
Yes-No Task,2,0,2,0,7.8,-1,Correct Rejection,0.600121899974,False,-1,stimulus_HACA03_Yes-No Task_2019_Jul_03_1344_378,-1,False,2019_Jul_03_1344,Yes-No Task,3,HACA03,
Yes-No Task,3,0,3,0,7.8,-1,Hit,0.468901500106,True,-1,stimulus_HACA03_Yes-No Task_2019_Jul_03_1344_379,-1,False,2019_Jul_03_1344,Yes-No Task,3,HACA03,
Yes-No Task,4,0,4,0,7.8,-1,Hit,0.534185600001,True,-1,stimulus_HACA03_Yes-No Task_2019_Jul_03_1344_380,-1,False,2019_Jul_03_1344,Yes-No Task,3,HACA03,
Yes-No Task,5,0,5,0,7.8,-1,Hit,0.400996200042,True,-1,stimulus_HACA03_Yes-No Task_2019_Jul_03_1344_381,-1,False,2019_Jul_03_1344,Yes-No Task,3,HACA03,
Yes-No Task,6,0,6,0,7.8,-1,Hit,0.398202700075,True,-1,stimulus_HACA03_Yes-No Task_2019_Jul_03_1344_382,-1,False,2019_Jul_03_1344,Yes-No Task,3,HACA03,
Yes-No Task,7,0,7,0,7.8,-1,Correct Rejection,0.434568000026,False,-1,stimulus_HACA03_Yes-No Task_2019_Jul_03_1344_383,-1,False,2019_Jul_03_1344,Yes-No Task,3,HACA03,
Yes-No Task,8,0,8,0,7.8,-1,Hit,0.535180799896,True,-1,stimulus_HACA03_Yes-No Task_2019_Jul_03_1344_384,-1,False,2019_Jul_03_1344,Yes-No Task,3,HACA03,
Yes-No Task,9,0,9,0,7.8,-1,Correct Rejection,0.467720800079,False,-1,stimulus_HACA03_Yes-No Task_2019_Jul_03_1344_385,-1,False,2019_Jul_03_1344,Yes-No Task,3,HACA03,
Yes-No Task,10,0,10,0,7.8,-1,Correct Rejection,0.466020999942,False,-1,stimulus_HACA03_Yes-No Task_2019_Jul_03_1344_386,-1,False,2019_Jul_03_1344,Yes-No Task,3,HACA03,
Yes-No Task,11,0,11,0,7.8,-1,Correct Rejection,0.501071700128,False,-1,stimulus_HACA03_Yes-No Task_2019_Jul_03_1344_387,-1,False,2019_Jul_03_1344,Yes-No Task,3,HACA03,
Yes-No Task,12,0,12,0,7.8,-1,Hit,0.56859889999,True,-1,stimulus_HACA03_Yes-No Task_2019_Jul_03_1344_388,-1,False,2019_Jul_03_1344,Yes-No Task,3,HACA03,
Yes-No Task,13,0,13,0,7.8,-1,Hit,0.46805860009,True,-1,stimulus_HACA03_Yes-No Task_2019_Jul_03_1344_389,-1,False,2019_Jul_03_1344,Yes-No Task,3,HACA03,
Yes-No Task,14,0,14,0,7.8,-1,Correct Rejection,0.468459099997,False,-1,stimulus_HACA03_Yes-No Task_2019_Jul_03_1344_390,-1,False,2019_Jul_03_1344,Yes-No Task,3,HACA03,
Yes-No Task,15,0,15,0,7.8,-1,Hit,0.467052799882,True,-1,stimulus_HACA03_Yes-No Task_2019_Jul_03_1344_391,-1,False,2019_Jul_03_1344,Yes-No Task,3,HACA03,
Yes-No Task,16,0,16,0,7.8,-1,Correct Rejection,0.466509700054,False,-1,stimulus_HACA03_Yes-No Task_2019_Jul_03_1344_392,-1,False,2019_Jul_03_1344,Yes-No Task,3,HACA03,
Yes-No Task,17,0,17,0,7.8,-1,Correct Rejection,0.46663049981,False,-1,stimulus_HACA03_Yes-No Task_2019_Jul_03_1344_393,-1,False,2019_Jul_03_1344,Yes-No Task,3,HACA03,
Yes-No Task,18,0,18,0,7.8,-1,Hit,0.50006849994,True,-1,stimulus_HACA03_Yes-No Task_2019_Jul_03_1344_394,-1,False,2019_Jul_03_1344,Yes-No Task,3,HACA03,
Yes-No Task,19,0,19,0,7.8,-1,Correct Rejection,0.434100899845,False,-1,stimulus_HACA03_Yes-No Task_2019_Jul_03_1344_395,-1,False,2019_Jul_03_1344,Yes-No Task,3,HACA03,
Yes-No Task,20,0,20,0,7.8,-1,Hit,0.500788700068,True,-1,stimulus_HACA03_Yes-No Task_2019_Jul_03_1344_396,-1,False,2019_Jul_03_1344,Yes-No Task,3,HACA03,
Yes-No Task,21,0,21,0,7.8,-1,Correct Rejection,0.500559000066,False,-1,stimulus_HACA03_Yes-No Task_2019_Jul_03_1344_397,-1,False,2019_Jul_03_1344,Yes-No Task,3,HACA03,
Yes-No Task,22,0,22,0,7.8,-1,Miss,0.467142299982,True,-1,stimulus_HACA03_Yes-No Task_2019_Jul_03_1344_398,-1,False,2019_Jul_03_1344,Yes-No Task,3,HACA03,
Yes-No Task,23,0,23,0,7.8,-1,Hit,0.467388200108,True,-1,stimulus_HACA03_Yes-No Task_2019_Jul_03_1344_399,-1,False,2019_Jul_03_1344,Yes-No Task,3,HACA03,
Yes-No Task,24,0,24,0,7.8,-1,Hit,0.499895799905,True,-1,stimulus_HACA03_Yes-No Task_2019_Jul_03_1344_400,-1,False,2019_Jul_03_1344,Yes-No Task,3,HACA03,
Yes-No Task,25,0,25,0,7.8,-1,Correct Rejection,0.467613199959,False,-1,stimulus_HACA03_Yes-No Task_2019_Jul_03_1344_401,-1,False,2019_Jul_03_1344,Yes-No Task,3,HACA03,
Yes-No Task,26,0,26,0,7.8,-1,Correct Rejection,0.500618100166,False,-1,stimulus_HACA03_Yes-No Task_2019_Jul_03_1344_402,-1,False,2019_Jul_03_1344,Yes-No Task,3,HACA03,
Yes-No Task,27,0,27,0,7.8,-1,Correct Rejection,0.468100700062,False,-1,stimulus_HACA03_Yes-No Task_2019_Jul_03_1344_403,-1,False,2019_Jul_03_1344,Yes-No Task,3,HACA03,
Yes-No Task,28,0,28,0,7.8,-1,Correct Rejection,0.434030300006,False,-1,stimulus_HACA03_Yes-No Task_2019_Jul_03_1344_404,-1,False,2019_Jul_03_1344,Yes-No Task,3,HACA03,
Yes-No Task,29,0,29,0,7.8,-1,Correct Rejection,0.467339300085,False,-1,stimulus_HACA03_Yes-No Task_2019_Jul_03_1344_405,-1,False,2019_Jul_03_1344,Yes-No Task,3,HACA03,
Yes-No Task,30,0,30,0,7.8,-1,False Alarm,0.533607499907,False,-1,stimulus_HACA03_Yes-No Task_2019_Jul_03_1344_406,-1,False,2019_Jul_03_1344,Yes-No Task,3,HACA03,
Yes-No Task,31,0,31,0,7.8,-1,Miss,0.533456700156,True,-1,stimulus_HACA03_Yes-No Task_2019_Jul_03_1344_407,-1,False,2019_Jul_03_1344,Yes-No Task,3,HACA03,
Yes-No Task,32,0,32,0,7.8,-1,Hit,0.566631800029,True,-1,stimulus_HACA03_Yes-No Task_2019_Jul_03_1344_408,-1,False,2019_Jul_03_1344,Yes-No Task,3,HACA03,
Yes-No Task,33,0,33,0,7.8,-1,Correct Rejection,0.501763799926,False,-1,stimulus_HACA03_Yes-No Task_2019_Jul_03_1344_409,-1,False,2019_Jul_03_1344,Yes-No Task,3,HACA03,
Yes-No Task,34,0,34,0,7.8,-1,Correct Rejection,0.467138100183,False,-1,stimulus_HACA03_Yes-No Task_2019_Jul_03_1344_410,-1,False,2019_Jul_03_1344,Yes-No Task,3,HACA03,
Yes-No Task,35,0,35,0,7.8,-1,Correct Rejection,0.467575999908,False,-1,stimulus_HACA03_Yes-No Task_2019_Jul_03_1344_411,-1,False,2019_Jul_03_1344,Yes-No Task,3,HACA03,
Yes-No Task,36,0,36,0,7.8,-1,Miss,0.467298199888,True,-1,stimulus_HACA03_Yes-No Task_2019_Jul_03_1344_412,-1,False,2019_Jul_03_1344,Yes-No Task,3,HACA03,
Yes-No Task,37,0,37,0,7.8,-1,Hit,0.701151400106,True,-1,stimulus_HACA03_Yes-No Task_2019_Jul_03_1344_413,-1,False,2019_Jul_03_1344,Yes-No Task,3,HACA03,
Yes-No Task,38,0,38,0,7.8,-1,False Alarm,0.433960199822,False,-1,stimulus_HACA03_Yes-No Task_2019_Jul_03_1344_414,-1,False,2019_Jul_03_1344,Yes-No Task,3,HACA03,
Yes-No Task,39,0,39,0,7.8,-1,Hit,0.466925400076,True,-1,stimulus_HACA03_Yes-No Task_2019_Jul_03_1344_415,-1,False,2019_Jul_03_1344,Yes-No Task,3,HACA03,
Yes-No Task,40,0,40,0,7.8,-1,Miss,0.501471400028,True,-1,stimulus_HACA03_Yes-No Task_2019_Jul_03_1344_416,-1,False,2019_Jul_03_1344,Yes-No Task,3,HACA03,
Yes-No Task,41,0,41,0,7.8,-1,Correct Rejection,0.534723500023,False,-1,stimulus_HACA03_Yes-No Task_2019_Jul_03_1344_417,-1,False,2019_Jul_03_1344,Yes-No Task,3,HACA03,
Yes-No Task,42,0,42,0,7.8,-1,Hit,0.5678489001,True,-1,stimulus_HACA03_Yes-No Task_2019_Jul_03_1344_418,-1,False,2019_Jul_03_1344,Yes-No Task,3,HACA03,
Yes-No Task,43,0,43,0,7.8,-1,Hit,0.435092899948,True,-1,stimulus_HACA03_Yes-No Task_2019_Jul_03_1344_419,-1,False,2019_Jul_03_1344,Yes-No Task,3,HACA03,
Yes-No Task,44,0,44,0,7.8,-1,Hit,0.43368649995,True,-1,stimulus_HACA03_Yes-No Task_2019_Jul_03_1344_420,-1,False,2019_Jul_03_1344,Yes-No Task,3,HACA03,
Yes-No Task,45,0,45,0,7.8,-1,Miss,0.534315000055,True,-1,stimulus_HACA03_Yes-No Task_2019_Jul_03_1344_421,-1,False,2019_Jul_03_1344,Yes-No Task,3,HACA03,
Yes-No Task,46,0,46,0,7.8,-1,Correct Rejection,0.50024149986,False,-1,stimulus_HACA03_Yes-No Task_2019_Jul_03_1344_422,-1,False,2019_Jul_03_1344,Yes-No Task,3,HACA03,
Yes-No Task,47,0,47,0,7.8,-1,Hit,0.466818299843,True,-1,stimulus_HACA03_Yes-No Task_2019_Jul_03_1344_423,-1,False,2019_Jul_03_1344,Yes-No Task,3,HACA03,
Yes-No Task,48,0,48,0,7.8,-1,Correct Rejection,0.467205999885,False,-1,stimulus_HACA03_Yes-No Task_2019_Jul_03_1344_424,-1,False,2019_Jul_03_1344,Yes-No Task,3,HACA03,
Yes-No Task,49,0,49,0,7.8,-1,Correct Rejection,0.76650119992,False,-1,stimulus_HACA03_Yes-No Task_2019_Jul_03_1344_425,-1,False,2019_Jul_03_1344,Yes-No Task,3,HACA03,
Yes-No Task,50,0,50,0,7.8,-1,Correct Rejection,0.500358699821,False,-1,stimulus_HACA03_Yes-No Task_2019_Jul_03_1344_426,-1,False,2019_Jul_03_1344,Yes-No Task,3,HACA03,
Yes-No Task,51,0,51,0,7.8,-1,Correct Rejection,0.500706300139,False,-1,stimulus_HACA03_Yes-No Task_2019_Jul_03_1344_427,-1,False,2019_Jul_03_1344,Yes-No Task,3,HACA03,
Yes-No Task,52,0,52,0,7.8,-1,Hit,0.535812800052,True,-1,stimulus_HACA03_Yes-No Task_2019_Jul_03_1344_428,-1,False,2019_Jul_03_1344,Yes-No Task,3,HACA03,
Yes-No Task,53,0,53,0,7.8,-1,Hit,0.534031599993,True,-1,stimulus_HACA03_Yes-No Task_2019_Jul_03_1344_429,-1,False,2019_Jul_03_1344,Yes-No Task,3,HACA03,
Yes-No Task,54,0,54,0,7.8,-1,Correct Rejection,0.46562719997,False,-1,stimulus_HACA03_Yes-No Task_2019_Jul_03_1344_430,-1,False,2019_Jul_03_1344,Yes-No Task,3,HACA03,
Yes-No Task,55,0,55,0,7.8,-1,Correct Rejection,0.467543100007,False,-1,stimulus_HACA03_Yes-No Task_2019_Jul_03_1344_431,-1,False,2019_Jul_03_1344,Yes-No Task,3,HACA03,
Yes-No Task,56,0,56,0,7.8,-1,Correct Rejection,0.399916799972,False,-1,stimulus_HACA03_Yes-No Task_2019_Jul_03_1344_432,-1,False,2019_Jul_03_1344,Yes-No Task,3,HACA03,
Yes-No Task,57,0,57,0,7.8,-1,Correct Rejection,0.467818999896,False,-1,stimulus_HACA03_Yes-No Task_2019_Jul_03_1344_433,-1,False,2019_Jul_03_1344,Yes-No Task,3,HACA03,
Yes-No Task,58,0,58,0,7.8,-1,Correct Rejection,0.400424899999,False,-1,stimulus_HACA03_Yes-No Task_2019_Jul_03_1344_434,-1,False,2019_Jul_03_1344,Yes-No Task,3,HACA03,
Yes-No Task,59,0,59,0,7.8,-1,Hit,0.467121999944,True,-1,stimulus_HACA03_Yes-No Task_2019_Jul_03_1344_435,-1,False,2019_Jul_03_1344,Yes-No Task,3,HACA03,
Yes-No Task,60,0,60,0,7.8,-1,Hit,0.400608400116,True,-1,stimulus_HACA03_Yes-No Task_2019_Jul_03_1344_436,-1,False,2019_Jul_03_1344,Yes-No Task,3,HACA03,
Yes-No Task,61,0,61,0,7.8,-1,Miss,0.434690899914,True,-1,stimulus_HACA03_Yes-No Task_2019_Jul_03_1344_437,-1,False,2019_Jul_03_1344,Yes-No Task,3,HACA03,
Yes-No Task,62,0,62,0,7.8,-1,Miss,0.432655500015,True,-1,stimulus_HACA03_Yes-No Task_2019_Jul_03_1344_438,-1,False,2019_Jul_03_1344,Yes-No Task,3,HACA03,
Yes-No Task,63,0,63,0,7.8,-1,Miss,0.500110700028,True,-1,stimulus_HACA03_Yes-No Task_2019_Jul_03_1344_439,-1,False,2019_Jul_03_1344,Yes-No Task,3,HACA03,
Yes-No Task,64,0,64,0,7.8,-1,False Alarm,0.633409699891,False,-1,stimulus_HACA03_Yes-No Task_2019_Jul_03_1344_440,-1,False,2019_Jul_03_1344,Yes-No Task,3,HACA03,
Yes-No Task,65,0,65,0,7.8,-1,Correct Rejection,0.468413300114,False,-1,stimulus_HACA03_Yes-No Task_2019_Jul_03_1344_441,-1,False,2019_Jul_03_1344,Yes-No Task,3,HACA03,
Yes-No Task,66,0,66,0,7.8,-1,Hit,0.432901999913,True,-1,stimulus_HACA03_Yes-No Task_2019_Jul_03_1344_442,-1,False,2019_Jul_03_1344,Yes-No Task,3,HACA03,
Yes-No Task,67,0,67,0,7.8,-1,Hit,0.433778399834,True,-1,stimulus_HACA03_Yes-No Task_2019_Jul_03_1344_443,-1,False,2019_Jul_03_1344,Yes-No Task,3,HACA03,
Yes-No Task,68,0,68,0,7.8,-1,Miss,0.400051899953,True,-1,stimulus_HACA03_Yes-No Task_2019_Jul_03_1344_444,-1,False,2019_Jul_03_1344,Yes-No Task,3,HACA03,
Yes-No Task,69,0,69,0,7.8,-1,Hit,0.50045599998,True,-1,stimulus_HACA03_Yes-No Task_2019_Jul_03_1344_445,-1,False,2019_Jul_03_1344,Yes-No Task,3,HACA03,
Yes-No Task,70,0,70,0,7.8,-1,Hit,0.399914199952,True,-1,stimulus_HACA03_Yes-No Task_2019_Jul_03_1344_446,-1,False,2019_Jul_03_1344,Yes-No Task,3,HACA03,
Yes-No Task,71,0,71,0,7.8,-1,Correct Rejection,0.467249599984,False,-1,stimulus_HACA03_Yes-No Task_2019_Jul_03_1344_447,-1,False,2019_Jul_03_1344,Yes-No Task,3,HACA03,
Yes-No Task,72,0,72,0,7.8,-1,Correct Rejection,0.434054599842,False,-1,stimulus_HACA03_Yes-No Task_2019_Jul_03_1344_448,-1,False,2019_Jul_03_1344,Yes-No Task,3,HACA03,
Yes-No Task,73,0,73,0,7.8,-1,False Alarm,0.434471800225,False,-1,stimulus_HACA03_Yes-No Task_2019_Jul_03_1344_449,-1,False,2019_Jul_03_1344,Yes-No Task,3,HACA03,
Yes-No Task,74,0,74,0,7.8,-1,Hit,0.533661700087,True,-1,stimulus_HACA03_Yes-No Task_2019_Jul_03_1344_450,-1,False,2019_Jul_03_1344,Yes-No Task,3,HACA03,
Yes-No Task,0,0,0,0,6.7,-1,Miss,0.636855399935,True,-1,stimulus_HACA03_Yes-No Task_2019_Jul_03_1344_451,-1,False,2019_Jul_03_1344,Yes-No Task,3,HACA03,
Yes-No Task,1,0,1,0,6.7,-1,Hit,0.566843300126,True,-1,stimulus_HACA03_Yes-No Task_2019_Jul_03_1344_452,-1,False,2019_Jul_03_1344,Yes-No Task,3,HACA03,
Yes-No Task,2,0,2,0,6.7,-1,Hit,0.3997849999,True,-1,stimulus_HACA03_Yes-No Task_2019_Jul_03_1344_453,-1,False,2019_Jul_03_1344,Yes-No Task,3,HACA03,
Yes-No Task,3,0,3,0,6.7,-1,Correct Rejection,0.466207199963,False,-1,stimulus_HACA03_Yes-No Task_2019_Jul_03_1344_454,-1,False,2019_Jul_03_1344,Yes-No Task,3,HACA03,
Yes-No Task,4,0,4,0,6.7,-1,Hit,0.50126330019,True,-1,stimulus_HACA03_Yes-No Task_2019_Jul_03_1344_455,-1,False,2019_Jul_03_1344,Yes-No Task,3,HACA03,
Yes-No Task,5,0,5,0,6.7,-1,False Alarm,0.401313700015,False,-1,stimulus_HACA03_Yes-No Task_2019_Jul_03_1344_456,-1,False,2019_Jul_03_1344,Yes-No Task,3,HACA03,
Yes-No Task,6,0,6,0,6.7,-1,Correct Rejection,0.56695550005,False,-1,stimulus_HACA03_Yes-No Task_2019_Jul_03_1344_457,-1,False,2019_Jul_03_1344,Yes-No Task,3,HACA03,
Yes-No Task,7,0,7,0,6.7,-1,Hit,0.467319099931,True,-1,stimulus_HACA03_Yes-No Task_2019_Jul_03_1344_458,-1,False,2019_Jul_03_1344,Yes-No Task,3,HACA03,
Yes-No Task,8,0,8,0,6.7,-1,Hit,0.401303900173,True,-1,stimulus_HACA03_Yes-No Task_2019_Jul_03_1344_459,-1,False,2019_Jul_03_1344,Yes-No Task,3,HACA03,
Yes-No Task,9,0,9,0,6.7,-1,Hit,0.400836699875,True,-1,stimulus_HACA03_Yes-No Task_2019_Jul_03_1344_460,-1,False,2019_Jul_03_1344,Yes-No Task,3,HACA03,
Yes-No Task,10,0,10,0,6.7,-1,False Alarm,0.466876799939,False,-1,stimulus_HACA03_Yes-No Task_2019_Jul_03_1344_461,-1,False,2019_Jul_03_1344,Yes-No Task,3,HACA03,
Yes-No Task,11,0,11,0,6.7,-1,Hit,0.400748399785,True,-1,stimulus_HACA03_Yes-No Task_2019_Jul_03_1344_462,-1,False,2019_Jul_03_1344,Yes-No Task,3,HACA03,
Yes-No Task,12,0,12,0,6.7,-1,False Alarm,0.568347000051,False,-1,stimulus_HACA03_Yes-No Task_2019_Jul_03_1344_463,-1,False,2019_Jul_03_1344,Yes-No Task,3,HACA03,
Yes-No Task,13,0,13,0,6.7,-1,Hit,0.502295000013,True,-1,stimulus_HACA03_Yes-No Task_2019_Jul_03_1344_464,-1,False,2019_Jul_03_1344,Yes-No Task,3,HACA03,
Yes-No Task,14,0,14,0,6.7,-1,Hit,0.567831899971,True,-1,stimulus_HACA03_Yes-No Task_2019_Jul_03_1344_465,-1,False,2019_Jul_03_1344,Yes-No Task,3,HACA03,
Yes-No Task,15,0,15,0,6.7,-1,Correct Rejection,0.501240900019,False,-1,stimulus_HACA03_Yes-No Task_2019_Jul_03_1344_466,-1,False,2019_Jul_03_1344,Yes-No Task,3,HACA03,
Yes-No Task,16,0,16,0,6.7,-1,Correct Rejection,0.467266399879,False,-1,stimulus_HACA03_Yes-No Task_2019_Jul_03_1344_467,-1,False,2019_Jul_03_1344,Yes-No Task,3,HACA03,
Yes-No Task,17,0,17,0,6.7,-1,Hit,0.534193100175,True,-1,stimulus_HACA03_Yes-No Task_2019_Jul_03_1344_468,-1,False,2019_Jul_03_1344,Yes-No Task,3,HACA03,
Yes-No Task,18,0,18,0,6.7,-1,False Alarm,0.633676599944,False,-1,stimulus_HACA03_Yes-No Task_2019_Jul_03_1344_469,-1,False,2019_Jul_03_1344,Yes-No Task,3,HACA03,
Yes-No Task,19,0,19,0,6.7,-1,Hit,0.434866100084,True,-1,stimulus_HACA03_Yes-No Task_2019_Jul_03_1344_470,-1,False,2019_Jul_03_1344,Yes-No Task,3,HACA03,
Yes-No Task,20,0,20,0,6.7,-1,Hit,0.433735399973,True,-1,stimulus_HACA03_Yes-No Task_2019_Jul_03_1344_471,-1,False,2019_Jul_03_1344,Yes-No Task,3,HACA03,
Yes-No Task,21,0,21,0,6.7,-1,Hit,0.401048999978,True,-1,stimulus_HACA03_Yes-No Task_2019_Jul_03_1344_472,-1,False,2019_Jul_03_1344,Yes-No Task,3,HACA03,
Yes-No Task,22,0,22,0,6.7,-1,Hit,0.400292800041,True,-1,stimulus_HACA03_Yes-No Task_2019_Jul_03_1344_473,-1,False,2019_Jul_03_1344,Yes-No Task,3,HACA03,
Yes-No Task,23,0,23,0,6.7,-1,False Alarm,0.367169300094,False,-1,stimulus_HACA03_Yes-No Task_2019_Jul_03_1344_474,-1,False,2019_Jul_03_1344,Yes-No Task,3,HACA03,
Yes-No Task,24,0,24,0,6.7,-1,False Alarm,0.470374499913,False,-1,stimulus_HACA03_Yes-No Task_2019_Jul_03_1344_475,-1,False,2019_Jul_03_1344,Yes-No Task,3,HACA03,
Yes-No Task,25,0,25,0,6.7,-1,Correct Rejection,0.533692499856,False,-1,stimulus_HACA03_Yes-No Task_2019_Jul_03_1344_476,-1,False,2019_Jul_03_1344,Yes-No Task,3,HACA03,
Yes-No Task,26,0,26,0,6.7,-1,Correct Rejection,0.467520899838,False,-1,stimulus_HACA03_Yes-No Task_2019_Jul_03_1344_477,-1,False,2019_Jul_03_1344,Yes-No Task,3,HACA03,
Yes-No Task,27,0,27,0,6.7,-1,Correct Rejection,0.500509300036,False,-1,stimulus_HACA03_Yes-No Task_2019_Jul_03_1344_478,-1,False,2019_Jul_03_1344,Yes-No Task,3,HACA03,
Yes-No Task,28,0,28,0,6.7,-1,Hit,0.500699500088,True,-1,stimulus_HACA03_Yes-No Task_2019_Jul_03_1344_479,-1,False,2019_Jul_03_1344,Yes-No Task,3,HACA03,
Yes-No Task,29,0,29,0,6.7,-1,Correct Rejection,0.366954699857,False,-1,stimulus_HACA03_Yes-No Task_2019_Jul_03_1344_480,-1,False,2019_Jul_03_1344,Yes-No Task,3,HACA03,
Yes-No Task,30,0,30,0,6.7,-1,Hit,0.467179199914,True,-1,stimulus_HACA03_Yes-No Task_2019_Jul_03_1344_481,-1,False,2019_Jul_03_1344,Yes-No Task,3,HACA03,
Yes-No Task,31,0,31,0,6.7,-1,Miss,0.434536300134,True,-1,stimulus_HACA03_Yes-No Task_2019_Jul_03_1344_482,-1,False,2019_Jul_03_1344,Yes-No Task,3,HACA03,
Yes-No Task,32,0,32,0,6.7,-1,Hit,0.533655800158,True,-1,stimulus_HACA03_Yes-No Task_2019_Jul_03_1344_483,-1,False,2019_Jul_03_1344,Yes-No Task,3,HACA03,
Yes-No Task,33,0,33,0,6.7,-1,Correct Rejection,0.567128699971,False,-1,stimulus_HACA03_Yes-No Task_2019_Jul_03_1344_484,-1,False,2019_Jul_03_1344,Yes-No Task,3,HACA03,
Yes-No Task,34,0,34,0,6.7,-1,Hit,0.534353200113,True,-1,stimulus_HACA03_Yes-No Task_2019_Jul_03_1344_485,-1,False,2019_Jul_03_1344,Yes-No Task,3,HACA03,
Yes-No Task,35,0,35,0,6.7,-1,Correct Rejection,0.466708399821,False,-1,stimulus_HACA03_Yes-No Task_2019_Jul_03_1344_486,-1,False,2019_Jul_03_1344,Yes-No Task,3,HACA03,
Yes-No Task,36,0,36,0,6.7,-1,Miss,0.467505200068,True,-1,stimulus_HACA03_Yes-No Task_2019_Jul_03_1344_487,-1,False,2019_Jul_03_1344,Yes-No Task,3,HACA03,
Yes-No Task,37,0,37,0,6.7,-1,Correct Rejection,0.46846870007,False,-1,stimulus_HACA03_Yes-No Task_2019_Jul_03_1344_488,-1,False,2019_Jul_03_1344,Yes-No Task,3,HACA03,
Yes-No Task,38,0,38,0,6.7,-1,Correct Rejection,0.466793,False,-1,stimulus_HACA03_Yes-No Task_2019_Jul_03_1344_489,-1,False,2019_Jul_03_1344,Yes-No Task,3,HACA03,
Yes-No Task,39,0,39,0,6.7,-1,Correct Rejection,0.466676099924,False,-1,stimulus_HACA03_Yes-No Task_2019_Jul_03_1344_490,-1,False,2019_Jul_03_1344,Yes-No Task,3,HACA03,
Yes-No Task,40,0,40,0,6.7,-1,Correct Rejection,0.433717799839,False,-1,stimulus_HACA03_Yes-No Task_2019_Jul_03_1344_491,-1,False,2019_Jul_03_1344,Yes-No Task,3,HACA03,
Yes-No Task,41,0,41,0,6.7,-1,Miss,0.467066300102,True,-1,stimulus_HACA03_Yes-No Task_2019_Jul_03_1344_492,-1,False,2019_Jul_03_1344,Yes-No Task,3,HACA03,
Yes-No Task,42,0,42,0,6.7,-1,Correct Rejection,0.500441499986,False,-1,stimulus_HACA03_Yes-No Task_2019_Jul_03_1344_493,-1,False,2019_Jul_03_1344,Yes-No Task,3,HACA03,
Yes-No Task,43,0,43,0,6.7,-1,False Alarm,0.600284200162,False,-1,stimulus_HACA03_Yes-No Task_2019_Jul_03_1344_494,-1,False,2019_Jul_03_1344,Yes-No Task,3,HACA03,
Yes-No Task,44,0,44,0,6.7,-1,Correct Rejection,0.434215500019,False,-1,stimulus_HACA03_Yes-No Task_2019_Jul_03_1344_495,-1,False,2019_Jul_03_1344,Yes-No Task,3,HACA03,
Yes-No Task,45,0,45,0,6.7,-1,Correct Rejection,0.467406299897,False,-1,stimulus_HACA03_Yes-No Task_2019_Jul_03_1344_496,-1,False,2019_Jul_03_1344,Yes-No Task,3,HACA03,
Yes-No Task,46,0,46,0,6.7,-1,Miss,0.435045900056,True,-1,stimulus_HACA03_Yes-No Task_2019_Jul_03_1344_497,-1,False,2019_Jul_03_1344,Yes-No Task,3,HACA03,
Yes-No Task,47,0,47,0,6.7,-1,Correct Rejection,0.500705600018,False,-1,stimulus_HACA03_Yes-No Task_2019_Jul_03_1344_498,-1,False,2019_Jul_03_1344,Yes-No Task,3,HACA03,
Yes-No Task,48,0,48,0,6.7,-1,Correct Rejection,0.466939999955,False,-1,stimulus_HACA03_Yes-No Task_2019_Jul_03_1344_499,-1,False,2019_Jul_03_1344,Yes-No Task,3,HACA03,
Yes-No Task,49,0,49,0,6.7,-1,Correct Rejection,0.501091399929,False,-1,stimulus_HACA03_Yes-No Task_2019_Jul_03_1344_500,-1,False,2019_Jul_03_1344,Yes-No Task,3,HACA03,
Yes-No Task,50,0,50,0,6.7,-1,Hit,0.599785000086,True,-1,stimulus_HACA03_Yes-No Task_2019_Jul_03_1344_501,-1,False,2019_Jul_03_1344,Yes-No Task,3,HACA03,
Yes-No Task,51,0,51,0,6.7,-1,Correct Rejection,0.366796700051,False,-1,stimulus_HACA03_Yes-No Task_2019_Jul_03_1344_502,-1,False,2019_Jul_03_1344,Yes-No Task,3,HACA03,
Yes-No Task,52,0,52,0,6.7,-1,Correct Rejection,0.431460699998,False,-1,stimulus_HACA03_Yes-No Task_2019_Jul_03_1344_503,-1,False,2019_Jul_03_1344,Yes-No Task,3,HACA03,
Yes-No Task,53,0,53,0,6.7,-1,Correct Rejection,0.433470499935,False,-1,stimulus_HACA03_Yes-No Task_2019_Jul_03_1344_504,-1,False,2019_Jul_03_1344,Yes-No Task,3,HACA03,
Yes-No Task,54,0,54,0,6.7,-1,Correct Rejection,0.465922199888,False,-1,stimulus_HACA03_Yes-No Task_2019_Jul_03_1344_505,-1,False,2019_Jul_03_1344,Yes-No Task,3,HACA03,
Yes-No Task,55,0,55,0,6.7,-1,Hit,0.468364200089,True,-1,stimulus_HACA03_Yes-No Task_2019_Jul_03_1344_506,-1,False,2019_Jul_03_1344,Yes-No Task,3,HACA03,
Yes-No Task,56,0,56,0,6.7,-1,Correct Rejection,0.434232999803,False,-1,stimulus_HACA03_Yes-No Task_2019_Jul_03_1344_507,-1,False,2019_Jul_03_1344,Yes-No Task,3,HACA03,
Yes-No Task,57,0,57,0,6.7,-1,False Alarm,0.50226229988,False,-1,stimulus_HACA03_Yes-No Task_2019_Jul_03_1344_508,-1,False,2019_Jul_03_1344,Yes-No Task,3,HACA03,
Yes-No Task,58,0,58,0,6.7,-1,Hit,0.53379840008,True,-1,stimulus_HACA03_Yes-No Task_2019_Jul_03_1344_509,-1,False,2019_Jul_03_1344,Yes-No Task,3,HACA03,
Yes-No Task,59,0,59,0,6.7,-1,Correct Rejection,0.400594900129,False,-1,stimulus_HACA03_Yes-No Task_2019_Jul_03_1344_510,-1,False,2019_Jul_03_1344,Yes-No Task,3,HACA03,
Yes-No Task,60,0,60,0,6.7,-1,Correct Rejection,0.467503299937,False,-1,stimulus_HACA03_Yes-No Task_2019_Jul_03_1344_511,-1,False,2019_Jul_03_1344,Yes-No Task,3,HACA03,
Yes-No Task,61,0,61,0,6.7,-1,Correct Rejection,0.43486430007,False,-1,stimulus_HACA03_Yes-No Task_2019_Jul_03_1344_512,-1,False,2019_Jul_03_1344,Yes-No Task,3,HACA03,
Yes-No Task,62,0,62,0,6.7,-1,False Alarm,0.567952200072,False,-1,stimulus_HACA03_Yes-No Task_2019_Jul_03_1344_513,-1,False,2019_Jul_03_1344,Yes-No Task,3,HACA03,
Yes-No Task,63,0,63,0,6.7,-1,Miss,0.400410800008,True,-1,stimulus_HACA03_Yes-No Task_2019_Jul_03_1344_514,-1,False,2019_Jul_03_1344,Yes-No Task,3,HACA03,
Yes-No Task,64,0,64,0,6.7,-1,Correct Rejection,0.434933900135,False,-1,stimulus_HACA03_Yes-No Task_2019_Jul_03_1344_515,-1,False,2019_Jul_03_1344,Yes-No Task,3,HACA03,
Yes-No Task,65,0,65,0,6.7,-1,Hit,0.566617700038,True,-1,stimulus_HACA03_Yes-No Task_2019_Jul_03_1344_516,-1,False,2019_Jul_03_1344,Yes-No Task,3,HACA03,
Yes-No Task,66,0,66,0,6.7,-1,Correct Rejection,0.534896899946,False,-1,stimulus_HACA03_Yes-No Task_2019_Jul_03_1344_517,-1,False,2019_Jul_03_1344,Yes-No Task,3,HACA03,
Yes-No Task,67,0,67,0,6.7,-1,Hit,0.500276000006,True,-1,stimulus_HACA03_Yes-No Task_2019_Jul_03_1344_518,-1,False,2019_Jul_03_1344,Yes-No Task,3,HACA03,
Yes-No Task,68,0,68,0,6.7,-1,Miss,0.433382399846,True,-1,stimulus_HACA03_Yes-No Task_2019_Jul_03_1344_519,-1,False,2019_Jul_03_1344,Yes-No Task,3,HACA03,
Yes-No Task,69,0,69,0,6.7,-1,Correct Rejection,0.467417999869,False,-1,stimulus_HACA03_Yes-No Task_2019_Jul_03_1344_520,-1,False,2019_Jul_03_1344,Yes-No Task,3,HACA03,
Yes-No Task,70,0,70,0,6.7,-1,Hit,0.467342999997,True,-1,stimulus_HACA03_Yes-No Task_2019_Jul_03_1344_521,-1,False,2019_Jul_03_1344,Yes-No Task,3,HACA03,
Yes-No Task,71,0,71,0,6.7,-1,Miss,0.500286200084,True,-1,stimulus_HACA03_Yes-No Task_2019_Jul_03_1344_522,-1,False,2019_Jul_03_1344,Yes-No Task,3,HACA03,
Yes-No Task,72,0,72,0,6.7,-1,Hit,0.433420199901,True,-1,stimulus_HACA03_Yes-No Task_2019_Jul_03_1344_523,-1,False,2019_Jul_03_1344,Yes-No Task,3,HACA03,
Yes-No Task,73,0,73,0,6.7,-1,Hit,0.400039399974,True,-1,stimulus_HACA03_Yes-No Task_2019_Jul_03_1344_524,-1,False,2019_Jul_03_1344,Yes-No Task,3,HACA03,
Yes-No Task,74,0,74,0,6.7,-1,Correct Rejection,0.500740899937,False,-1,stimulus_HACA03_Yes-No Task_2019_Jul_03_1344_525,-1,False,2019_Jul_03_1344,Yes-No Task,3,HACA03,
Yes-No Task,0,0,0,0,4.4,-1,Miss,0.467270700028,True,-1,stimulus_HACA03_Yes-No Task_2019_Jul_03_1344_526,-1,False,2019_Jul_03_1344,Yes-No Task,3,HACA03,
Yes-No Task,1,0,1,0,4.4,-1,Miss,0.53406890016,True,-1,stimulus_HACA03_Yes-No Task_2019_Jul_03_1344_527,-1,False,2019_Jul_03_1344,Yes-No Task,3,HACA03,
Yes-No Task,2,0,2,0,4.4,-1,Hit,0.433232899988,True,-1,stimulus_HACA03_Yes-No Task_2019_Jul_03_1344_528,-1,False,2019_Jul_03_1344,Yes-No Task,3,HACA03,
Yes-No Task,3,0,3,0,4.4,-1,Hit,0.433612699853,True,-1,stimulus_HACA03_Yes-No Task_2019_Jul_03_1344_529,-1,False,2019_Jul_03_1344,Yes-No Task,3,HACA03,
Yes-No Task,4,0,4,0,4.4,-1,Correct Rejection,0.468673700001,False,-1,stimulus_HACA03_Yes-No Task_2019_Jul_03_1344_530,-1,False,2019_Jul_03_1344,Yes-No Task,3,HACA03,
Yes-No Task,5,0,5,0,4.4,-1,Hit,0.434311999939,True,-1,stimulus_HACA03_Yes-No Task_2019_Jul_03_1344_531,-1,False,2019_Jul_03_1344,Yes-No Task,3,HACA03,
Yes-No Task,6,0,6,0,4.4,-1,False Alarm,0.567428499926,False,-1,stimulus_HACA03_Yes-No Task_2019_Jul_03_1344_532,-1,False,2019_Jul_03_1344,Yes-No Task,3,HACA03,
Yes-No Task,7,0,7,0,4.4,-1,Hit,0.400677700061,True,-1,stimulus_HACA03_Yes-No Task_2019_Jul_03_1344_533,-1,False,2019_Jul_03_1344,Yes-No Task,3,HACA03,
Yes-No Task,8,0,8,0,4.4,-1,Hit,0.400374300079,True,-1,stimulus_HACA03_Yes-No Task_2019_Jul_03_1344_534,-1,False,2019_Jul_03_1344,Yes-No Task,3,HACA03,
Yes-No Task,9,0,9,0,4.4,-1,Miss,0.400404800195,True,-1,stimulus_HACA03_Yes-No Task_2019_Jul_03_1344_535,-1,False,2019_Jul_03_1344,Yes-No Task,3,HACA03,
Yes-No Task,10,0,10,0,4.4,-1,Miss,0.469212700147,True,-1,stimulus_HACA03_Yes-No Task_2019_Jul_03_1344_536,-1,False,2019_Jul_03_1344,Yes-No Task,3,HACA03,
Yes-No Task,11,0,11,0,4.4,-1,Correct Rejection,0.432308899937,False,-1,stimulus_HACA03_Yes-No Task_2019_Jul_03_1344_537,-1,False,2019_Jul_03_1344,Yes-No Task,3,HACA03,
Yes-No Task,12,0,12,0,4.4,-1,Correct Rejection,0.434019499924,False,-1,stimulus_HACA03_Yes-No Task_2019_Jul_03_1344_538,-1,False,2019_Jul_03_1344,Yes-No Task,3,HACA03,
Yes-No Task,13,0,13,0,4.4,-1,Correct Rejection,0.434470299864,False,-1,stimulus_HACA03_Yes-No Task_2019_Jul_03_1344_539,-1,False,2019_Jul_03_1344,Yes-No Task,3,HACA03,
Yes-No Task,14,0,14,0,4.4,-1,Correct Rejection,0.399742099922,False,-1,stimulus_HACA03_Yes-No Task_2019_Jul_03_1344_540,-1,False,2019_Jul_03_1344,Yes-No Task,3,HACA03,
Yes-No Task,15,0,15,0,4.4,-1,Miss,0.400172600057,True,-1,stimulus_HACA03_Yes-No Task_2019_Jul_03_1344_541,-1,False,2019_Jul_03_1344,Yes-No Task,3,HACA03,
Yes-No Task,16,0,16,0,4.4,-1,Hit,0.501146499999,True,-1,stimulus_HACA03_Yes-No Task_2019_Jul_03_1344_542,-1,False,2019_Jul_03_1344,Yes-No Task,3,HACA03,
Yes-No Task,17,0,17,0,4.4,-1,Correct Rejection,0.4008378,False,-1,stimulus_HACA03_Yes-No Task_2019_Jul_03_1344_543,-1,False,2019_Jul_03_1344,Yes-No Task,3,HACA03,
Yes-No Task,18,0,18,0,4.4,-1,Correct Rejection,0.433462599991,False,-1,stimulus_HACA03_Yes-No Task_2019_Jul_03_1344_544,-1,False,2019_Jul_03_1344,Yes-No Task,3,HACA03,
Yes-No Task,19,0,19,0,4.4,-1,Hit,0.533529500011,True,-1,stimulus_HACA03_Yes-No Task_2019_Jul_03_1344_545,-1,False,2019_Jul_03_1344,Yes-No Task,3,HACA03,
Yes-No Task,20,0,20,0,4.4,-1,Miss,0.400057799881,True,-1,stimulus_HACA03_Yes-No Task_2019_Jul_03_1344_546,-1,False,2019_Jul_03_1344,Yes-No Task,3,HACA03,
Yes-No Task,21,0,21,0,4.4,-1,Correct Rejection,0.434484400088,False,-1,stimulus_HACA03_Yes-No Task_2019_Jul_03_1344_547,-1,False,2019_Jul_03_1344,Yes-No Task,3,HACA03,
Yes-No Task,22,0,22,0,4.4,-1,Miss,0.500844100025,True,-1,stimulus_HACA03_Yes-No Task_2019_Jul_03_1344_548,-1,False,2019_Jul_03_1344,Yes-No Task,3,HACA03,
Yes-No Task,23,0,23,0,4.4,-1,Correct Rejection,0.501659699949,False,-1,stimulus_HACA03_Yes-No Task_2019_Jul_03_1344_549,-1,False,2019_Jul_03_1344,Yes-No Task,3,HACA03,
Yes-No Task,24,0,24,0,4.4,-1,Correct Rejection,0.49948629993,False,-1,stimulus_HACA03_Yes-No Task_2019_Jul_03_1344_550,-1,False,2019_Jul_03_1344,Yes-No Task,3,HACA03,
Yes-No Task,25,0,25,0,4.4,-1,False Alarm,0.536458700197,False,-1,stimulus_HACA03_Yes-No Task_2019_Jul_03_1344_551,-1,False,2019_Jul_03_1344,Yes-No Task,3,HACA03,
Yes-No Task,26,0,26,0,4.4,-1,Correct Rejection,0.435258500045,False,-1,stimulus_HACA03_Yes-No Task_2019_Jul_03_1344_552,-1,False,2019_Jul_03_1344,Yes-No Task,3,HACA03,
Yes-No Task,27,0,27,0,4.4,-1,False Alarm,0.60115760006,False,-1,stimulus_HACA03_Yes-No Task_2019_Jul_03_1344_553,-1,False,2019_Jul_03_1344,Yes-No Task,3,HACA03,
Yes-No Task,28,0,28,0,4.4,-1,Correct Rejection,0.400822000112,False,-1,stimulus_HACA03_Yes-No Task_2019_Jul_03_1344_554,-1,False,2019_Jul_03_1344,Yes-No Task,3,HACA03,
Yes-No Task,29,0,29,0,4.4,-1,False Alarm,0.50315549993,False,-1,stimulus_HACA03_Yes-No Task_2019_Jul_03_1344_555,-1,False,2019_Jul_03_1344,Yes-No Task,3,HACA03,
Yes-No Task,30,0,30,0,4.4,-1,Correct Rejection,0.600769800134,False,-1,stimulus_HACA03_Yes-No Task_2019_Jul_03_1344_556,-1,False,2019_Jul_03_1344,Yes-No Task,3,HACA03,
Yes-No Task,31,0,31,0,4.4,-1,Hit,0.467592699919,True,-1,stimulus_HACA03_Yes-No Task_2019_Jul_03_1344_557,-1,False,2019_Jul_03_1344,Yes-No Task,3,HACA03,
Yes-No Task,32,0,32,0,4.4,-1,Hit,0.534732000204,True,-1,stimulus_HACA03_Yes-No Task_2019_Jul_03_1344_558,-1,False,2019_Jul_03_1344,Yes-No Task,3,HACA03,
Yes-No Task,33,0,33,0,4.4,-1,Correct Rejection,0.433771400014,False,-1,stimulus_HACA03_Yes-No Task_2019_Jul_03_1344_559,-1,False,2019_Jul_03_1344,Yes-No Task,3,HACA03,
Yes-No Task,34,0,34,0,4.4,-1,Correct Rejection,0.466704200022,False,-1,stimulus_HACA03_Yes-No Task_2019_Jul_03_1344_560,-1,False,2019_Jul_03_1344,Yes-No Task,3,HACA03,
Yes-No Task,35,0,35,0,4.4,-1,Correct Rejection,0.500823399983,False,-1,stimulus_HACA03_Yes-No Task_2019_Jul_03_1344_561,-1,False,2019_Jul_03_1344,Yes-No Task,3,HACA03,
Yes-No Task,36,0,36,0,4.4,-1,Miss,0.47025969997,True,-1,stimulus_HACA03_Yes-No Task_2019_Jul_03_1344_562,-1,False,2019_Jul_03_1344,Yes-No Task,3,HACA03,
Yes-No Task,37,0,37,0,4.4,-1,False Alarm,0.56808690005,False,-1,stimulus_HACA03_Yes-No Task_2019_Jul_03_1344_563,-1,False,2019_Jul_03_1344,Yes-No Task,3,HACA03,
Yes-No Task,38,0,38,0,4.4,-1,Correct Rejection,0.533502900042,False,-1,stimulus_HACA03_Yes-No Task_2019_Jul_03_1344_564,-1,False,2019_Jul_03_1344,Yes-No Task,3,HACA03,
Yes-No Task,39,0,39,0,4.4,-1,False Alarm,0.40021789982,False,-1,stimulus_HACA03_Yes-No Task_2019_Jul_03_1344_565,-1,False,2019_Jul_03_1344,Yes-No Task,3,HACA03,
Yes-No Task,40,0,40,0,4.4,-1,Miss,0.500387399923,True,-1,stimulus_HACA03_Yes-No Task_2019_Jul_03_1344_566,-1,False,2019_Jul_03_1344,Yes-No Task,3,HACA03,
Yes-No Task,41,0,41,0,4.4,-1,Miss,0.566967200022,True,-1,stimulus_HACA03_Yes-No Task_2019_Jul_03_1344_567,-1,False,2019_Jul_03_1344,Yes-No Task,3,HACA03,
Yes-No Task,42,0,42,0,4.4,-1,False Alarm,0.4329154999,False,-1,stimulus_HACA03_Yes-No Task_2019_Jul_03_1344_568,-1,False,2019_Jul_03_1344,Yes-No Task,3,HACA03,
Yes-No Task,43,0,43,0,4.4,-1,False Alarm,0.533169599948,False,-1,stimulus_HACA03_Yes-No Task_2019_Jul_03_1344_569,-1,False,2019_Jul_03_1344,Yes-No Task,3,HACA03,
Yes-No Task,44,0,44,0,4.4,-1,Correct Rejection,0.567062800052,False,-1,stimulus_HACA03_Yes-No Task_2019_Jul_03_1344_570,-1,False,2019_Jul_03_1344,Yes-No Task,3,HACA03,
Yes-No Task,45,0,45,0,4.4,-1,Correct Rejection,0.466753599932,False,-1,stimulus_HACA03_Yes-No Task_2019_Jul_03_1344_571,-1,False,2019_Jul_03_1344,Yes-No Task,3,HACA03,
Yes-No Task,46,0,46,0,4.4,-1,Miss,0.467871499946,True,-1,stimulus_HACA03_Yes-No Task_2019_Jul_03_1344_572,-1,False,2019_Jul_03_1344,Yes-No Task,3,HACA03,
Yes-No Task,47,0,47,0,4.4,-1,Hit,0.434122999897,True,-1,stimulus_HACA03_Yes-No Task_2019_Jul_03_1344_573,-1,False,2019_Jul_03_1344,Yes-No Task,3,HACA03,
Yes-No Task,48,0,48,0,4.4,-1,Correct Rejection,0.4339509001,False,-1,stimulus_HACA03_Yes-No Task_2019_Jul_03_1344_574,-1,False,2019_Jul_03_1344,Yes-No Task,3,HACA03,
Yes-No Task,49,0,49,0,4.4,-1,Hit,0.400695199845,True,-1,stimulus_HACA03_Yes-No Task_2019_Jul_03_1344_575,-1,False,2019_Jul_03_1344,Yes-No Task,3,HACA03,
Yes-No Task,50,0,50,0,4.4,-1,Correct Rejection,0.467290800065,False,-1,stimulus_HACA03_Yes-No Task_2019_Jul_03_1344_576,-1,False,2019_Jul_03_1344,Yes-No Task,3,HACA03,
Yes-No Task,51,0,51,0,4.4,-1,Hit,0.534720700001,True,-1,stimulus_HACA03_Yes-No Task_2019_Jul_03_1344_577,-1,False,2019_Jul_03_1344,Yes-No Task,3,HACA03,
Yes-No Task,52,0,52,0,4.4,-1,Miss,0.400204499951,True,-1,stimulus_HACA03_Yes-No Task_2019_Jul_03_1344_578,-1,False,2019_Jul_03_1344,Yes-No Task,3,HACA03,
Yes-No Task,53,0,53,0,4.4,-1,Miss,0.434716100106,True,-1,stimulus_HACA03_Yes-No Task_2019_Jul_03_1344_579,-1,False,2019_Jul_03_1344,Yes-No Task,3,HACA03,
Yes-No Task,54,0,54,0,4.4,-1,Correct Rejection,0.432776300004,False,-1,stimulus_HACA03_Yes-No Task_2019_Jul_03_1344_580,-1,False,2019_Jul_03_1344,Yes-No Task,3,HACA03,
Yes-No Task,55,0,55,0,4.4,-1,Hit,0.434173799818,True,-1,stimulus_HACA03_Yes-No Task_2019_Jul_03_1344_581,-1,False,2019_Jul_03_1344,Yes-No Task,3,HACA03,
Yes-No Task,56,0,56,0,4.4,-1,Miss,0.434053299949,True,-1,stimulus_HACA03_Yes-No Task_2019_Jul_03_1344_582,-1,False,2019_Jul_03_1344,Yes-No Task,3,HACA03,
Yes-No Task,57,0,57,0,4.4,-1,Hit,0.366826300044,True,-1,stimulus_HACA03_Yes-No Task_2019_Jul_03_1344_583,-1,False,2019_Jul_03_1344,Yes-No Task,3,HACA03,
Yes-No Task,58,0,58,0,4.4,-1,Correct Rejection,0.501378699904,False,-1,stimulus_HACA03_Yes-No Task_2019_Jul_03_1344_584,-1,False,2019_Jul_03_1344,Yes-No Task,3,HACA03,
Yes-No Task,59,0,59,0,4.4,-1,Hit,0.53374769981,True,-1,stimulus_HACA03_Yes-No Task_2019_Jul_03_1344_585,-1,False,2019_Jul_03_1344,Yes-No Task,3,HACA03,
Yes-No Task,60,0,60,0,4.4,-1,Correct Rejection,0.534072299954,False,-1,stimulus_HACA03_Yes-No Task_2019_Jul_03_1344_586,-1,False,2019_Jul_03_1344,Yes-No Task,3,HACA03,
Yes-No Task,61,0,61,0,4.4,-1,Correct Rejection,0.466866499977,False,-1,stimulus_HACA03_Yes-No Task_2019_Jul_03_1344_587,-1,False,2019_Jul_03_1344,Yes-No Task,3,HACA03,
Yes-No Task,62,0,62,0,4.4,-1,False Alarm,0.467185799964,False,-1,stimulus_HACA03_Yes-No Task_2019_Jul_03_1344_588,-1,False,2019_Jul_03_1344,Yes-No Task,3,HACA03,
Yes-No Task,63,0,63,0,4.4,-1,Miss,0.401020700112,True,-1,stimulus_HACA03_Yes-No Task_2019_Jul_03_1344_589,-1,False,2019_Jul_03_1344,Yes-No Task,3,HACA03,
Yes-No Task,64,0,64,0,4.4,-1,Miss,0.397109200014,True,-1,stimulus_HACA03_Yes-No Task_2019_Jul_03_1344_590,-1,False,2019_Jul_03_1344,Yes-No Task,3,HACA03,
Yes-No Task,65,0,65,0,4.4,-1,Hit,0.567600500071,True,-1,stimulus_HACA03_Yes-No Task_2019_Jul_03_1344_591,-1,False,2019_Jul_03_1344,Yes-No Task,3,HACA03,
Yes-No Task,66,0,66,0,4.4,-1,Hit,0.434486699989,True,-1,stimulus_HACA03_Yes-No Task_2019_Jul_03_1344_592,-1,False,2019_Jul_03_1344,Yes-No Task,3,HACA03,
Yes-No Task,67,0,67,0,4.4,-1,Correct Rejection,0.43437149981,False,-1,stimulus_HACA03_Yes-No Task_2019_Jul_03_1344_593,-1,False,2019_Jul_03_1344,Yes-No Task,3,HACA03,
Yes-No Task,68,0,68,0,4.4,-1,Correct Rejection,0.466720700031,False,-1,stimulus_HACA03_Yes-No Task_2019_Jul_03_1344_594,-1,False,2019_Jul_03_1344,Yes-No Task,3,HACA03,
Yes-No Task,69,0,69,0,4.4,-1,Hit,0.401496700011,True,-1,stimulus_HACA03_Yes-No Task_2019_Jul_03_1344_595,-1,False,2019_Jul_03_1344,Yes-No Task,3,HACA03,
Yes-No Task,70,0,70,0,4.4,-1,Correct Rejection,0.434061000124,False,-1,stimulus_HACA03_Yes-No Task_2019_Jul_03_1344_596,-1,False,2019_Jul_03_1344,Yes-No Task,3,HACA03,
Yes-No Task,71,0,71,0,4.4,-1,Correct Rejection,0.366924500093,False,-1,stimulus_HACA03_Yes-No Task_2019_Jul_03_1344_597,-1,False,2019_Jul_03_1344,Yes-No Task,3,HACA03,
Yes-No Task,72,0,72,0,4.4,-1,Correct Rejection,0.401633400004,False,-1,stimulus_HACA03_Yes-No Task_2019_Jul_03_1344_598,-1,False,2019_Jul_03_1344,Yes-No Task,3,HACA03,
Yes-No Task,73,0,73,0,4.4,-1,Miss,0.367931199959,True,-1,stimulus_HACA03_Yes-No Task_2019_Jul_03_1344_599,-1,False,2019_Jul_03_1344,Yes-No Task,3,HACA03,
Yes-No Task,74,0,74,0,4.4,-1,Hit,0.4662579,True,-1,stimulus_HACA03_Yes-No Task_2019_Jul_03_1344_600,-1,False,2019_Jul_03_1344,Yes-No Task,3,HACA03,
