Task,trials.thisRepN,trials.thisTrialN,trials.thisN,trials.thisIndex,signal_intensity,constant Value,response,time_response,signal_on_stimuluspos1,signal_on_stimuluspos2,stimulus_name_pos1,stimulus_name_pos2,date,expName,session,participant,
Yes-No Task,0,0,0,0,5.3,-1,Correct Rejection,0.351324099989,False,-1,stimulus_HE28GE_Yes-No Task_2019_Mar_25_1847_6,-1,2019_Mar_25_1847,Yes-No Task,2,HE28GE,
Yes-No Task,1,0,1,0,5.3,-1,Correct Rejection,0.232460099971,False,-1,stimulus_HE28GE_Yes-No Task_2019_Mar_25_1847_7,-1,2019_Mar_25_1847,Yes-No Task,2,HE28GE,
Yes-No Task,2,0,2,0,5.3,-1,Miss,0.450655799999,True,-1,stimulus_HE28GE_Yes-No Task_2019_Mar_25_1847_8,-1,2019_Mar_25_1847,Yes-No Task,2,HE28GE,
Yes-No Task,3,0,3,0,5.3,-1,Miss,0.301114200032,True,-1,stimulus_HE28GE_Yes-No Task_2019_Mar_25_1847_9,-1,2019_Mar_25_1847,Yes-No Task,2,HE28GE,
Yes-No Task,4,0,4,0,5.3,-1,Correct Rejection,0.384427499957,False,-1,stimulus_HE28GE_Yes-No Task_2019_Mar_25_1847_10,-1,2019_Mar_25_1847,Yes-No Task,2,HE28GE,
Yes-No Task,5,0,5,0,5.3,-1,Correct Rejection,0.850290599978,False,-1,stimulus_HE28GE_Yes-No Task_2019_Mar_25_1847_11,-1,2019_Mar_25_1847,Yes-No Task,2,HE28GE,
Yes-No Task,6,0,6,0,5.3,-1,Hit,1.01687300002,True,-1,stimulus_HE28GE_Yes-No Task_2019_Mar_25_1847_12,-1,2019_Mar_25_1847,Yes-No Task,2,HE28GE,
Yes-No Task,7,0,7,0,5.3,-1,Miss,0.334695100028,True,-1,stimulus_HE28GE_Yes-No Task_2019_Mar_25_1847_13,-1,2019_Mar_25_1847,Yes-No Task,2,HE28GE,
Yes-No Task,8,0,8,0,5.3,-1,Correct Rejection,0.633876300009,False,-1,stimulus_HE28GE_Yes-No Task_2019_Mar_25_1847_14,-1,2019_Mar_25_1847,Yes-No Task,2,HE28GE,
Yes-No Task,9,0,9,0,5.3,-1,Hit,0.65084409999,True,-1,stimulus_HE28GE_Yes-No Task_2019_Mar_25_1847_15,-1,2019_Mar_25_1847,Yes-No Task,2,HE28GE,
Yes-No Task,10,0,10,0,5.3,-1,Miss,0.782697899966,True,-1,stimulus_HE28GE_Yes-No Task_2019_Mar_25_1847_16,-1,2019_Mar_25_1847,Yes-No Task,2,HE28GE,
Yes-No Task,11,0,11,0,5.3,-1,Miss,0.685346100014,True,-1,stimulus_HE28GE_Yes-No Task_2019_Mar_25_1847_17,-1,2019_Mar_25_1847,Yes-No Task,2,HE28GE,
Yes-No Task,12,0,12,0,5.3,-1,Correct Rejection,0.816111800028,False,-1,stimulus_HE28GE_Yes-No Task_2019_Mar_25_1847_18,-1,2019_Mar_25_1847,Yes-No Task,2,HE28GE,
Yes-No Task,13,0,13,0,5.3,-1,False Alarm,0.668424499978,False,-1,stimulus_HE28GE_Yes-No Task_2019_Mar_25_1847_19,-1,2019_Mar_25_1847,Yes-No Task,2,HE28GE,
Yes-No Task,14,0,14,0,5.3,-1,Correct Rejection,0.317564300029,False,-1,stimulus_HE28GE_Yes-No Task_2019_Mar_25_1847_20,-1,2019_Mar_25_1847,Yes-No Task,2,HE28GE,
Yes-No Task,15,0,15,0,5.3,-1,False Alarm,1.18538169999,False,-1,stimulus_HE28GE_Yes-No Task_2019_Mar_25_1847_21,-1,2019_Mar_25_1847,Yes-No Task,2,HE28GE,
Yes-No Task,16,0,16,0,5.3,-1,Correct Rejection,0.467544600018,False,-1,stimulus_HE28GE_Yes-No Task_2019_Mar_25_1847_22,-1,2019_Mar_25_1847,Yes-No Task,2,HE28GE,
Yes-No Task,17,0,17,0,5.3,-1,Correct Rejection,0.349405399989,False,-1,stimulus_HE28GE_Yes-No Task_2019_Mar_25_1847_23,-1,2019_Mar_25_1847,Yes-No Task,2,HE28GE,
Yes-No Task,18,0,18,0,5.3,-1,Miss,0.450586500054,True,-1,stimulus_HE28GE_Yes-No Task_2019_Mar_25_1847_24,-1,2019_Mar_25_1847,Yes-No Task,2,HE28GE,
Yes-No Task,19,0,19,0,5.3,-1,Miss,0.400324699993,True,-1,stimulus_HE28GE_Yes-No Task_2019_Mar_25_1847_25,-1,2019_Mar_25_1847,Yes-No Task,2,HE28GE,
Yes-No Task,20,0,20,0,5.3,-1,Hit,0.416166100011,True,-1,stimulus_HE28GE_Yes-No Task_2019_Mar_25_1847_26,-1,2019_Mar_25_1847,Yes-No Task,2,HE28GE,
Yes-No Task,21,0,21,0,5.3,-1,Correct Rejection,0.484422900015,False,-1,stimulus_HE28GE_Yes-No Task_2019_Mar_25_1847_27,-1,2019_Mar_25_1847,Yes-No Task,2,HE28GE,
Yes-No Task,22,0,22,0,5.3,-1,Hit,0.836054100015,True,-1,stimulus_HE28GE_Yes-No Task_2019_Mar_25_1847_28,-1,2019_Mar_25_1847,Yes-No Task,2,HE28GE,
Yes-No Task,23,0,23,0,5.3,-1,Hit,0.433678700007,True,-1,stimulus_HE28GE_Yes-No Task_2019_Mar_25_1847_29,-1,2019_Mar_25_1847,Yes-No Task,2,HE28GE,
Yes-No Task,24,0,24,0,5.3,-1,Hit,0.451813800028,True,-1,stimulus_HE28GE_Yes-No Task_2019_Mar_25_1847_30,-1,2019_Mar_25_1847,Yes-No Task,2,HE28GE,
Yes-No Task,25,0,25,0,5.3,-1,Correct Rejection,0.317894400039,False,-1,stimulus_HE28GE_Yes-No Task_2019_Mar_25_1847_31,-1,2019_Mar_25_1847,Yes-No Task,2,HE28GE,
Yes-No Task,26,0,26,0,5.3,-1,Hit,0.536064600048,True,-1,stimulus_HE28GE_Yes-No Task_2019_Mar_25_1847_32,-1,2019_Mar_25_1847,Yes-No Task,2,HE28GE,
Yes-No Task,27,0,27,0,5.3,-1,Miss,0.335424199991,True,-1,stimulus_HE28GE_Yes-No Task_2019_Mar_25_1847_33,-1,2019_Mar_25_1847,Yes-No Task,2,HE28GE,
Yes-No Task,28,0,28,0,5.3,-1,Correct Rejection,0.398484100006,False,-1,stimulus_HE28GE_Yes-No Task_2019_Mar_25_1847_34,-1,2019_Mar_25_1847,Yes-No Task,2,HE28GE,
Yes-No Task,29,0,29,0,5.3,-1,Miss,0.368237699964,True,-1,stimulus_HE28GE_Yes-No Task_2019_Mar_25_1847_35,-1,2019_Mar_25_1847,Yes-No Task,2,HE28GE,
Yes-No Task,30,0,30,0,5.3,-1,Hit,0.451428500004,True,-1,stimulus_HE28GE_Yes-No Task_2019_Mar_25_1847_36,-1,2019_Mar_25_1847,Yes-No Task,2,HE28GE,
Yes-No Task,31,0,31,0,5.3,-1,Hit,0.535561500001,True,-1,stimulus_HE28GE_Yes-No Task_2019_Mar_25_1847_37,-1,2019_Mar_25_1847,Yes-No Task,2,HE28GE,
Yes-No Task,32,0,32,0,5.3,-1,Correct Rejection,0.570412700006,False,-1,stimulus_HE28GE_Yes-No Task_2019_Mar_25_1847_38,-1,2019_Mar_25_1847,Yes-No Task,2,HE28GE,
Yes-No Task,33,0,33,0,5.3,-1,False Alarm,0.635416099976,False,-1,stimulus_HE28GE_Yes-No Task_2019_Mar_25_1847_39,-1,2019_Mar_25_1847,Yes-No Task,2,HE28GE,
Yes-No Task,34,0,34,0,5.3,-1,Correct Rejection,0.515996399976,False,-1,stimulus_HE28GE_Yes-No Task_2019_Mar_25_1847_40,-1,2019_Mar_25_1847,Yes-No Task,2,HE28GE,
Yes-No Task,35,0,35,0,5.3,-1,Correct Rejection,0.450202599983,False,-1,stimulus_HE28GE_Yes-No Task_2019_Mar_25_1847_41,-1,2019_Mar_25_1847,Yes-No Task,2,HE28GE,
Yes-No Task,36,0,36,0,5.3,-1,Correct Rejection,0.484760399966,False,-1,stimulus_HE28GE_Yes-No Task_2019_Mar_25_1847_42,-1,2019_Mar_25_1847,Yes-No Task,2,HE28GE,
Yes-No Task,37,0,37,0,5.3,-1,False Alarm,0.752576600004,False,-1,stimulus_HE28GE_Yes-No Task_2019_Mar_25_1847_43,-1,2019_Mar_25_1847,Yes-No Task,2,HE28GE,
Yes-No Task,38,0,38,0,5.3,-1,Hit,0.418482800014,True,-1,stimulus_HE28GE_Yes-No Task_2019_Mar_25_1847_44,-1,2019_Mar_25_1847,Yes-No Task,2,HE28GE,
Yes-No Task,39,0,39,0,5.3,-1,Correct Rejection,0.384507699986,False,-1,stimulus_HE28GE_Yes-No Task_2019_Mar_25_1847_45,-1,2019_Mar_25_1847,Yes-No Task,2,HE28GE,
Yes-No Task,40,0,40,0,5.3,-1,Correct Rejection,0.298765399959,False,-1,stimulus_HE28GE_Yes-No Task_2019_Mar_25_1847_46,-1,2019_Mar_25_1847,Yes-No Task,2,HE28GE,
Yes-No Task,41,0,41,0,5.3,-1,Hit,0.504184000019,True,-1,stimulus_HE28GE_Yes-No Task_2019_Mar_25_1847_47,-1,2019_Mar_25_1847,Yes-No Task,2,HE28GE,
Yes-No Task,42,0,42,0,5.3,-1,Miss,0.284009499999,True,-1,stimulus_HE28GE_Yes-No Task_2019_Mar_25_1847_48,-1,2019_Mar_25_1847,Yes-No Task,2,HE28GE,
Yes-No Task,43,0,43,0,5.3,-1,Correct Rejection,0.35102079995,False,-1,stimulus_HE28GE_Yes-No Task_2019_Mar_25_1847_49,-1,2019_Mar_25_1847,Yes-No Task,2,HE28GE,
Yes-No Task,44,0,44,0,5.3,-1,Hit,0.467798300029,True,-1,stimulus_HE28GE_Yes-No Task_2019_Mar_25_1847_50,-1,2019_Mar_25_1847,Yes-No Task,2,HE28GE,
Yes-No Task,45,0,45,0,5.3,-1,Correct Rejection,0.336124599969,False,-1,stimulus_HE28GE_Yes-No Task_2019_Mar_25_1847_51,-1,2019_Mar_25_1847,Yes-No Task,2,HE28GE,
Yes-No Task,46,0,46,0,5.3,-1,Hit,0.500163699966,True,-1,stimulus_HE28GE_Yes-No Task_2019_Mar_25_1847_52,-1,2019_Mar_25_1847,Yes-No Task,2,HE28GE,
Yes-No Task,47,0,47,0,5.3,-1,Hit,0.352104399994,True,-1,stimulus_HE28GE_Yes-No Task_2019_Mar_25_1847_53,-1,2019_Mar_25_1847,Yes-No Task,2,HE28GE,
Yes-No Task,48,0,48,0,5.3,-1,Correct Rejection,0.351945500006,False,-1,stimulus_HE28GE_Yes-No Task_2019_Mar_25_1847_54,-1,2019_Mar_25_1847,Yes-No Task,2,HE28GE,
Yes-No Task,49,0,49,0,5.3,-1,Hit,0.584908399964,True,-1,stimulus_HE28GE_Yes-No Task_2019_Mar_25_1847_55,-1,2019_Mar_25_1847,Yes-No Task,2,HE28GE,
Yes-No Task,50,0,50,0,5.3,-1,Miss,0.452680100047,True,-1,stimulus_HE28GE_Yes-No Task_2019_Mar_25_1847_56,-1,2019_Mar_25_1847,Yes-No Task,2,HE28GE,
Yes-No Task,51,0,51,0,5.3,-1,Correct Rejection,0.383234599954,False,-1,stimulus_HE28GE_Yes-No Task_2019_Mar_25_1847_57,-1,2019_Mar_25_1847,Yes-No Task,2,HE28GE,
Yes-No Task,52,0,52,0,5.3,-1,Correct Rejection,0.36770100001,False,-1,stimulus_HE28GE_Yes-No Task_2019_Mar_25_1847_58,-1,2019_Mar_25_1847,Yes-No Task,2,HE28GE,
Yes-No Task,53,0,53,0,5.3,-1,Hit,0.452252399991,True,-1,stimulus_HE28GE_Yes-No Task_2019_Mar_25_1847_59,-1,2019_Mar_25_1847,Yes-No Task,2,HE28GE,
Yes-No Task,54,0,54,0,5.3,-1,Correct Rejection,0.351212900016,False,-1,stimulus_HE28GE_Yes-No Task_2019_Mar_25_1847_60,-1,2019_Mar_25_1847,Yes-No Task,2,HE28GE,
Yes-No Task,55,0,55,0,5.3,-1,Miss,0.298848200007,True,-1,stimulus_HE28GE_Yes-No Task_2019_Mar_25_1847_61,-1,2019_Mar_25_1847,Yes-No Task,2,HE28GE,
Yes-No Task,56,0,56,0,5.3,-1,Hit,0.484219900041,True,-1,stimulus_HE28GE_Yes-No Task_2019_Mar_25_1847_62,-1,2019_Mar_25_1847,Yes-No Task,2,HE28GE,
Yes-No Task,57,0,57,0,5.3,-1,Hit,0.368822799996,True,-1,stimulus_HE28GE_Yes-No Task_2019_Mar_25_1847_63,-1,2019_Mar_25_1847,Yes-No Task,2,HE28GE,
Yes-No Task,58,0,58,0,5.3,-1,Miss,0.516846899991,True,-1,stimulus_HE28GE_Yes-No Task_2019_Mar_25_1847_64,-1,2019_Mar_25_1847,Yes-No Task,2,HE28GE,
Yes-No Task,59,0,59,0,5.3,-1,Miss,0.334709600022,True,-1,stimulus_HE28GE_Yes-No Task_2019_Mar_25_1847_65,-1,2019_Mar_25_1847,Yes-No Task,2,HE28GE,
Yes-No Task,60,0,60,0,5.3,-1,False Alarm,0.498770800012,False,-1,stimulus_HE28GE_Yes-No Task_2019_Mar_25_1847_66,-1,2019_Mar_25_1847,Yes-No Task,2,HE28GE,
Yes-No Task,61,0,61,0,5.3,-1,Correct Rejection,0.534952099959,False,-1,stimulus_HE28GE_Yes-No Task_2019_Mar_25_1847_67,-1,2019_Mar_25_1847,Yes-No Task,2,HE28GE,
Yes-No Task,62,0,62,0,5.3,-1,Correct Rejection,0.767349299975,False,-1,stimulus_HE28GE_Yes-No Task_2019_Mar_25_1847_68,-1,2019_Mar_25_1847,Yes-No Task,2,HE28GE,
Yes-No Task,63,0,63,0,5.3,-1,Hit,0.552347899997,True,-1,stimulus_HE28GE_Yes-No Task_2019_Mar_25_1847_69,-1,2019_Mar_25_1847,Yes-No Task,2,HE28GE,
Yes-No Task,64,0,64,0,5.3,-1,Miss,0.450878400006,True,-1,stimulus_HE28GE_Yes-No Task_2019_Mar_25_1847_70,-1,2019_Mar_25_1847,Yes-No Task,2,HE28GE,
Yes-No Task,65,0,65,0,5.3,-1,Hit,0.517798200017,True,-1,stimulus_HE28GE_Yes-No Task_2019_Mar_25_1847_71,-1,2019_Mar_25_1847,Yes-No Task,2,HE28GE,
Yes-No Task,66,0,66,0,5.3,-1,False Alarm,0.617333400005,False,-1,stimulus_HE28GE_Yes-No Task_2019_Mar_25_1847_72,-1,2019_Mar_25_1847,Yes-No Task,2,HE28GE,
Yes-No Task,67,0,67,0,5.3,-1,Correct Rejection,0.48333170003,False,-1,stimulus_HE28GE_Yes-No Task_2019_Mar_25_1847_73,-1,2019_Mar_25_1847,Yes-No Task,2,HE28GE,
Yes-No Task,68,0,68,0,5.3,-1,Hit,0.518044899974,True,-1,stimulus_HE28GE_Yes-No Task_2019_Mar_25_1847_74,-1,2019_Mar_25_1847,Yes-No Task,2,HE28GE,
Yes-No Task,69,0,69,0,5.3,-1,Hit,0.45079079998,True,-1,stimulus_HE28GE_Yes-No Task_2019_Mar_25_1847_75,-1,2019_Mar_25_1847,Yes-No Task,2,HE28GE,
Yes-No Task,70,0,70,0,5.3,-1,False Alarm,0.517544000002,False,-1,stimulus_HE28GE_Yes-No Task_2019_Mar_25_1847_76,-1,2019_Mar_25_1847,Yes-No Task,2,HE28GE,
Yes-No Task,71,0,71,0,5.3,-1,Correct Rejection,0.467444399954,False,-1,stimulus_HE28GE_Yes-No Task_2019_Mar_25_1847_77,-1,2019_Mar_25_1847,Yes-No Task,2,HE28GE,
Yes-No Task,72,0,72,0,5.3,-1,Correct Rejection,0.550508800021,False,-1,stimulus_HE28GE_Yes-No Task_2019_Mar_25_1847_78,-1,2019_Mar_25_1847,Yes-No Task,2,HE28GE,
Yes-No Task,73,0,73,0,5.3,-1,False Alarm,0.534453400003,False,-1,stimulus_HE28GE_Yes-No Task_2019_Mar_25_1847_79,-1,2019_Mar_25_1847,Yes-No Task,2,HE28GE,
Yes-No Task,74,0,74,0,5.3,-1,Miss,0.601292700041,True,-1,stimulus_HE28GE_Yes-No Task_2019_Mar_25_1847_80,-1,2019_Mar_25_1847,Yes-No Task,2,HE28GE,
Yes-No Task,75,0,75,0,5.3,-1,False Alarm,0.831865000015,False,-1,stimulus_HE28GE_Yes-No Task_2019_Mar_25_1847_81,-1,2019_Mar_25_1847,Yes-No Task,2,HE28GE,
Yes-No Task,76,0,76,0,5.3,-1,False Alarm,0.434361300024,False,-1,stimulus_HE28GE_Yes-No Task_2019_Mar_25_1847_82,-1,2019_Mar_25_1847,Yes-No Task,2,HE28GE,
Yes-No Task,77,0,77,0,5.3,-1,Hit,0.617816200014,True,-1,stimulus_HE28GE_Yes-No Task_2019_Mar_25_1847_83,-1,2019_Mar_25_1847,Yes-No Task,2,HE28GE,
Yes-No Task,78,0,78,0,5.3,-1,False Alarm,0.501493699965,False,-1,stimulus_HE28GE_Yes-No Task_2019_Mar_25_1847_84,-1,2019_Mar_25_1847,Yes-No Task,2,HE28GE,
Yes-No Task,79,0,79,0,5.3,-1,Hit,0.500976600044,True,-1,stimulus_HE28GE_Yes-No Task_2019_Mar_25_1847_85,-1,2019_Mar_25_1847,Yes-No Task,2,HE28GE,
Yes-No Task,80,0,80,0,5.3,-1,Hit,0.467170600023,True,-1,stimulus_HE28GE_Yes-No Task_2019_Mar_25_1847_86,-1,2019_Mar_25_1847,Yes-No Task,2,HE28GE,
Yes-No Task,81,0,81,0,5.3,-1,Correct Rejection,0.39877259999,False,-1,stimulus_HE28GE_Yes-No Task_2019_Mar_25_1847_87,-1,2019_Mar_25_1847,Yes-No Task,2,HE28GE,
Yes-No Task,82,0,82,0,5.3,-1,Correct Rejection,0.350305900036,False,-1,stimulus_HE28GE_Yes-No Task_2019_Mar_25_1847_88,-1,2019_Mar_25_1847,Yes-No Task,2,HE28GE,
Yes-No Task,83,0,83,0,5.3,-1,Correct Rejection,0.418972300016,False,-1,stimulus_HE28GE_Yes-No Task_2019_Mar_25_1847_89,-1,2019_Mar_25_1847,Yes-No Task,2,HE28GE,
Yes-No Task,84,0,84,0,5.3,-1,Correct Rejection,0.367833000026,False,-1,stimulus_HE28GE_Yes-No Task_2019_Mar_25_1847_90,-1,2019_Mar_25_1847,Yes-No Task,2,HE28GE,
Yes-No Task,85,0,85,0,5.3,-1,Correct Rejection,0.350764700037,False,-1,stimulus_HE28GE_Yes-No Task_2019_Mar_25_1847_91,-1,2019_Mar_25_1847,Yes-No Task,2,HE28GE,
Yes-No Task,86,0,86,0,5.3,-1,Correct Rejection,0.302377199987,False,-1,stimulus_HE28GE_Yes-No Task_2019_Mar_25_1847_92,-1,2019_Mar_25_1847,Yes-No Task,2,HE28GE,
Yes-No Task,87,0,87,0,5.3,-1,Correct Rejection,0.383554700005,False,-1,stimulus_HE28GE_Yes-No Task_2019_Mar_25_1847_93,-1,2019_Mar_25_1847,Yes-No Task,2,HE28GE,
Yes-No Task,88,0,88,0,5.3,-1,Hit,0.467541699996,True,-1,stimulus_HE28GE_Yes-No Task_2019_Mar_25_1847_94,-1,2019_Mar_25_1847,Yes-No Task,2,HE28GE,
Yes-No Task,89,0,89,0,5.3,-1,Correct Rejection,0.298733500007,False,-1,stimulus_HE28GE_Yes-No Task_2019_Mar_25_1847_95,-1,2019_Mar_25_1847,Yes-No Task,2,HE28GE,
Yes-No Task,90,0,90,0,5.3,-1,Hit,0.401746799995,True,-1,stimulus_HE28GE_Yes-No Task_2019_Mar_25_1847_96,-1,2019_Mar_25_1847,Yes-No Task,2,HE28GE,
Yes-No Task,91,0,91,0,5.3,-1,Miss,0.284463499964,True,-1,stimulus_HE28GE_Yes-No Task_2019_Mar_25_1847_97,-1,2019_Mar_25_1847,Yes-No Task,2,HE28GE,
Yes-No Task,92,0,92,0,5.3,-1,Correct Rejection,0.468199800001,False,-1,stimulus_HE28GE_Yes-No Task_2019_Mar_25_1847_98,-1,2019_Mar_25_1847,Yes-No Task,2,HE28GE,
Yes-No Task,93,0,93,0,5.3,-1,Miss,0.451814899978,True,-1,stimulus_HE28GE_Yes-No Task_2019_Mar_25_1847_99,-1,2019_Mar_25_1847,Yes-No Task,2,HE28GE,
Yes-No Task,94,0,94,0,5.3,-1,Correct Rejection,0.485077299993,False,-1,stimulus_HE28GE_Yes-No Task_2019_Mar_25_1847_100,-1,2019_Mar_25_1847,Yes-No Task,2,HE28GE,
Yes-No Task,95,0,95,0,5.3,-1,Correct Rejection,0.317514399998,False,-1,stimulus_HE28GE_Yes-No Task_2019_Mar_25_1847_101,-1,2019_Mar_25_1847,Yes-No Task,2,HE28GE,
Yes-No Task,96,0,96,0,5.3,-1,Miss,0.548844000034,True,-1,stimulus_HE28GE_Yes-No Task_2019_Mar_25_1847_102,-1,2019_Mar_25_1847,Yes-No Task,2,HE28GE,
Yes-No Task,97,0,97,0,5.3,-1,Correct Rejection,0.351294599997,False,-1,stimulus_HE28GE_Yes-No Task_2019_Mar_25_1847_103,-1,2019_Mar_25_1847,Yes-No Task,2,HE28GE,
Yes-No Task,98,0,98,0,5.3,-1,Miss,0.350227200019,True,-1,stimulus_HE28GE_Yes-No Task_2019_Mar_25_1847_104,-1,2019_Mar_25_1847,Yes-No Task,2,HE28GE,
Yes-No Task,99,0,99,0,5.3,-1,Correct Rejection,0.582454000018,False,-1,stimulus_HE28GE_Yes-No Task_2019_Mar_25_1847_105,-1,2019_Mar_25_1847,Yes-No Task,2,HE28GE,
Yes-No Task,0,0,0,0,5.3,-1,Miss,0.301089200017,True,-1,stimulus_HE28GE_Yes-No Task_2019_Mar_25_1847_106,-1,2019_Mar_25_1847,Yes-No Task,2,HE28GE,
Yes-No Task,1,0,1,0,5.3,-1,Correct Rejection,0.300634299987,False,-1,stimulus_HE28GE_Yes-No Task_2019_Mar_25_1847_107,-1,2019_Mar_25_1847,Yes-No Task,2,HE28GE,
Yes-No Task,2,0,2,0,5.3,-1,Hit,0.467783999979,True,-1,stimulus_HE28GE_Yes-No Task_2019_Mar_25_1847_108,-1,2019_Mar_25_1847,Yes-No Task,2,HE28GE,
Yes-No Task,3,0,3,0,5.3,-1,Hit,0.467348799983,True,-1,stimulus_HE28GE_Yes-No Task_2019_Mar_25_1847_109,-1,2019_Mar_25_1847,Yes-No Task,2,HE28GE,
Yes-No Task,4,0,4,0,5.3,-1,Hit,0.516988200019,True,-1,stimulus_HE28GE_Yes-No Task_2019_Mar_25_1847_110,-1,2019_Mar_25_1847,Yes-No Task,2,HE28GE,
Yes-No Task,5,0,5,0,5.3,-1,Hit,0.470636800048,True,-1,stimulus_HE28GE_Yes-No Task_2019_Mar_25_1847_111,-1,2019_Mar_25_1847,Yes-No Task,2,HE28GE,
Yes-No Task,6,0,6,0,5.3,-1,Correct Rejection,0.433808800008,False,-1,stimulus_HE28GE_Yes-No Task_2019_Mar_25_1847_112,-1,2019_Mar_25_1847,Yes-No Task,2,HE28GE,
Yes-No Task,7,0,7,0,5.3,-1,Correct Rejection,0.268159699976,False,-1,stimulus_HE28GE_Yes-No Task_2019_Mar_25_1847_113,-1,2019_Mar_25_1847,Yes-No Task,2,HE28GE,
Yes-No Task,8,0,8,0,5.3,-1,Miss,0.385335600004,True,-1,stimulus_HE28GE_Yes-No Task_2019_Mar_25_1847_114,-1,2019_Mar_25_1847,Yes-No Task,2,HE28GE,
Yes-No Task,9,0,9,0,5.3,-1,Correct Rejection,0.450629900035,False,-1,stimulus_HE28GE_Yes-No Task_2019_Mar_25_1847_115,-1,2019_Mar_25_1847,Yes-No Task,2,HE28GE,
Yes-No Task,10,0,10,0,5.3,-1,False Alarm,0.400405899971,False,-1,stimulus_HE28GE_Yes-No Task_2019_Mar_25_1847_116,-1,2019_Mar_25_1847,Yes-No Task,2,HE28GE,
Yes-No Task,11,0,11,0,5.3,-1,Correct Rejection,0.385636400024,False,-1,stimulus_HE28GE_Yes-No Task_2019_Mar_25_1847_117,-1,2019_Mar_25_1847,Yes-No Task,2,HE28GE,
Yes-No Task,12,0,12,0,5.3,-1,Correct Rejection,0.749780999962,False,-1,stimulus_HE28GE_Yes-No Task_2019_Mar_25_1847_118,-1,2019_Mar_25_1847,Yes-No Task,2,HE28GE,
Yes-No Task,13,0,13,0,5.3,-1,Miss,0.550968500029,True,-1,stimulus_HE28GE_Yes-No Task_2019_Mar_25_1847_119,-1,2019_Mar_25_1847,Yes-No Task,2,HE28GE,
Yes-No Task,14,0,14,0,5.3,-1,Correct Rejection,0.534860999964,False,-1,stimulus_HE28GE_Yes-No Task_2019_Mar_25_1847_120,-1,2019_Mar_25_1847,Yes-No Task,2,HE28GE,
Yes-No Task,15,0,15,0,5.3,-1,Correct Rejection,0.850801699969,False,-1,stimulus_HE28GE_Yes-No Task_2019_Mar_25_1847_121,-1,2019_Mar_25_1847,Yes-No Task,2,HE28GE,
Yes-No Task,16,0,16,0,5.3,-1,Hit,0.55086800002,True,-1,stimulus_HE28GE_Yes-No Task_2019_Mar_25_1847_122,-1,2019_Mar_25_1847,Yes-No Task,2,HE28GE,
Yes-No Task,17,0,17,0,5.3,-1,Correct Rejection,0.550912100007,False,-1,stimulus_HE28GE_Yes-No Task_2019_Mar_25_1847_123,-1,2019_Mar_25_1847,Yes-No Task,2,HE28GE,
Yes-No Task,18,0,18,0,5.3,-1,Hit,0.583834899997,True,-1,stimulus_HE28GE_Yes-No Task_2019_Mar_25_1847_124,-1,2019_Mar_25_1847,Yes-No Task,2,HE28GE,
Yes-No Task,19,0,19,0,5.3,-1,Hit,0.450709500001,True,-1,stimulus_HE28GE_Yes-No Task_2019_Mar_25_1847_125,-1,2019_Mar_25_1847,Yes-No Task,2,HE28GE,
Yes-No Task,20,0,20,0,5.3,-1,False Alarm,0.402140100021,False,-1,stimulus_HE28GE_Yes-No Task_2019_Mar_25_1847_126,-1,2019_Mar_25_1847,Yes-No Task,2,HE28GE,
Yes-No Task,21,0,21,0,5.3,-1,Correct Rejection,0.335185600037,False,-1,stimulus_HE28GE_Yes-No Task_2019_Mar_25_1847_127,-1,2019_Mar_25_1847,Yes-No Task,2,HE28GE,
Yes-No Task,22,0,22,0,5.3,-1,Correct Rejection,0.465189600014,False,-1,stimulus_HE28GE_Yes-No Task_2019_Mar_25_1847_128,-1,2019_Mar_25_1847,Yes-No Task,2,HE28GE,
Yes-No Task,23,0,23,0,5.3,-1,Hit,0.617661900003,True,-1,stimulus_HE28GE_Yes-No Task_2019_Mar_25_1847_129,-1,2019_Mar_25_1847,Yes-No Task,2,HE28GE,
Yes-No Task,24,0,24,0,5.3,-1,Miss,0.417706399981,True,-1,stimulus_HE28GE_Yes-No Task_2019_Mar_25_1847_130,-1,2019_Mar_25_1847,Yes-No Task,2,HE28GE,
Yes-No Task,25,0,25,0,5.3,-1,Hit,0.433803500026,True,-1,stimulus_HE28GE_Yes-No Task_2019_Mar_25_1847_131,-1,2019_Mar_25_1847,Yes-No Task,2,HE28GE,
Yes-No Task,26,0,26,0,5.3,-1,False Alarm,0.48463729996,False,-1,stimulus_HE28GE_Yes-No Task_2019_Mar_25_1847_132,-1,2019_Mar_25_1847,Yes-No Task,2,HE28GE,
Yes-No Task,27,0,27,0,5.3,-1,Miss,0.384413300024,True,-1,stimulus_HE28GE_Yes-No Task_2019_Mar_25_1847_133,-1,2019_Mar_25_1847,Yes-No Task,2,HE28GE,
Yes-No Task,28,0,28,0,5.3,-1,Hit,0.55122730002,True,-1,stimulus_HE28GE_Yes-No Task_2019_Mar_25_1847_134,-1,2019_Mar_25_1847,Yes-No Task,2,HE28GE,
Yes-No Task,29,0,29,0,5.3,-1,Miss,0.467278700031,True,-1,stimulus_HE28GE_Yes-No Task_2019_Mar_25_1847_135,-1,2019_Mar_25_1847,Yes-No Task,2,HE28GE,
Yes-No Task,30,0,30,0,5.3,-1,Miss,1.21769439999,True,-1,stimulus_HE28GE_Yes-No Task_2019_Mar_25_1847_136,-1,2019_Mar_25_1847,Yes-No Task,2,HE28GE,
Yes-No Task,31,0,31,0,5.3,-1,Correct Rejection,0.334034399944,False,-1,stimulus_HE28GE_Yes-No Task_2019_Mar_25_1847_137,-1,2019_Mar_25_1847,Yes-No Task,2,HE28GE,
Yes-No Task,32,0,32,0,5.3,-1,Hit,0.467062700016,True,-1,stimulus_HE28GE_Yes-No Task_2019_Mar_25_1847_138,-1,2019_Mar_25_1847,Yes-No Task,2,HE28GE,
Yes-No Task,33,0,33,0,5.3,-1,Miss,0.350868600013,True,-1,stimulus_HE28GE_Yes-No Task_2019_Mar_25_1847_139,-1,2019_Mar_25_1847,Yes-No Task,2,HE28GE,
Yes-No Task,34,0,34,0,5.3,-1,Hit,0.434146500018,True,-1,stimulus_HE28GE_Yes-No Task_2019_Mar_25_1847_140,-1,2019_Mar_25_1847,Yes-No Task,2,HE28GE,
Yes-No Task,35,0,35,0,5.3,-1,Hit,0.568803699978,True,-1,stimulus_HE28GE_Yes-No Task_2019_Mar_25_1847_141,-1,2019_Mar_25_1847,Yes-No Task,2,HE28GE,
Yes-No Task,36,0,36,0,5.3,-1,Hit,0.534873900004,True,-1,stimulus_HE28GE_Yes-No Task_2019_Mar_25_1847_142,-1,2019_Mar_25_1847,Yes-No Task,2,HE28GE,
Yes-No Task,37,0,37,0,5.3,-1,Hit,0.534014500037,True,-1,stimulus_HE28GE_Yes-No Task_2019_Mar_25_1847_143,-1,2019_Mar_25_1847,Yes-No Task,2,HE28GE,
Yes-No Task,38,0,38,0,5.3,-1,Hit,0.483786700002,True,-1,stimulus_HE28GE_Yes-No Task_2019_Mar_25_1847_144,-1,2019_Mar_25_1847,Yes-No Task,2,HE28GE,
Yes-No Task,39,0,39,0,5.3,-1,Correct Rejection,0.617067700019,False,-1,stimulus_HE28GE_Yes-No Task_2019_Mar_25_1847_145,-1,2019_Mar_25_1847,Yes-No Task,2,HE28GE,
Yes-No Task,40,0,40,0,5.3,-1,False Alarm,0.467676300032,False,-1,stimulus_HE28GE_Yes-No Task_2019_Mar_25_1847_146,-1,2019_Mar_25_1847,Yes-No Task,2,HE28GE,
Yes-No Task,41,0,41,0,5.3,-1,Miss,0.301830500015,True,-1,stimulus_HE28GE_Yes-No Task_2019_Mar_25_1847_147,-1,2019_Mar_25_1847,Yes-No Task,2,HE28GE,
Yes-No Task,42,0,42,0,5.3,-1,False Alarm,0.348756099993,False,-1,stimulus_HE28GE_Yes-No Task_2019_Mar_25_1847_148,-1,2019_Mar_25_1847,Yes-No Task,2,HE28GE,
Yes-No Task,43,0,43,0,5.3,-1,Correct Rejection,0.301798100001,False,-1,stimulus_HE28GE_Yes-No Task_2019_Mar_25_1847_149,-1,2019_Mar_25_1847,Yes-No Task,2,HE28GE,
Yes-No Task,44,0,44,0,5.3,-1,Hit,0.534438000002,True,-1,stimulus_HE28GE_Yes-No Task_2019_Mar_25_1847_150,-1,2019_Mar_25_1847,Yes-No Task,2,HE28GE,
Yes-No Task,45,0,45,0,5.3,-1,Correct Rejection,0.584541300021,False,-1,stimulus_HE28GE_Yes-No Task_2019_Mar_25_1847_151,-1,2019_Mar_25_1847,Yes-No Task,2,HE28GE,
Yes-No Task,46,0,46,0,5.3,-1,Correct Rejection,0.533100400004,False,-1,stimulus_HE28GE_Yes-No Task_2019_Mar_25_1847_152,-1,2019_Mar_25_1847,Yes-No Task,2,HE28GE,
Yes-No Task,47,0,47,0,5.3,-1,Hit,0.650266400015,True,-1,stimulus_HE28GE_Yes-No Task_2019_Mar_25_1847_153,-1,2019_Mar_25_1847,Yes-No Task,2,HE28GE,
Yes-No Task,48,0,48,0,5.3,-1,Miss,0.350020200014,True,-1,stimulus_HE28GE_Yes-No Task_2019_Mar_25_1847_154,-1,2019_Mar_25_1847,Yes-No Task,2,HE28GE,
Yes-No Task,49,0,49,0,5.3,-1,Correct Rejection,0.551249400014,False,-1,stimulus_HE28GE_Yes-No Task_2019_Mar_25_1847_155,-1,2019_Mar_25_1847,Yes-No Task,2,HE28GE,
Yes-No Task,50,0,50,0,5.3,-1,Hit,0.651613399968,True,-1,stimulus_HE28GE_Yes-No Task_2019_Mar_25_1847_156,-1,2019_Mar_25_1847,Yes-No Task,2,HE28GE,
Yes-No Task,51,0,51,0,5.3,-1,Correct Rejection,0.518646000011,False,-1,stimulus_HE28GE_Yes-No Task_2019_Mar_25_1847_157,-1,2019_Mar_25_1847,Yes-No Task,2,HE28GE,
Yes-No Task,52,0,52,0,5.3,-1,Correct Rejection,0.332506800012,False,-1,stimulus_HE28GE_Yes-No Task_2019_Mar_25_1847_158,-1,2019_Mar_25_1847,Yes-No Task,2,HE28GE,
Yes-No Task,53,0,53,0,5.3,-1,Correct Rejection,0.467426999996,False,-1,stimulus_HE28GE_Yes-No Task_2019_Mar_25_1847_159,-1,2019_Mar_25_1847,Yes-No Task,2,HE28GE,
Yes-No Task,54,0,54,0,5.3,-1,False Alarm,0.616607400007,False,-1,stimulus_HE28GE_Yes-No Task_2019_Mar_25_1847_160,-1,2019_Mar_25_1847,Yes-No Task,2,HE28GE,
Yes-No Task,55,0,55,0,5.3,-1,Hit,0.567040199996,True,-1,stimulus_HE28GE_Yes-No Task_2019_Mar_25_1847_161,-1,2019_Mar_25_1847,Yes-No Task,2,HE28GE,
Yes-No Task,56,0,56,0,5.3,-1,Hit,0.48467440001,True,-1,stimulus_HE28GE_Yes-No Task_2019_Mar_25_1847_162,-1,2019_Mar_25_1847,Yes-No Task,2,HE28GE,
Yes-No Task,57,0,57,0,5.3,-1,Miss,0.366338299995,True,-1,stimulus_HE28GE_Yes-No Task_2019_Mar_25_1847_163,-1,2019_Mar_25_1847,Yes-No Task,2,HE28GE,
Yes-No Task,58,0,58,0,5.3,-1,Miss,0.316633799986,True,-1,stimulus_HE28GE_Yes-No Task_2019_Mar_25_1847_164,-1,2019_Mar_25_1847,Yes-No Task,2,HE28GE,
Yes-No Task,59,0,59,0,5.3,-1,Miss,0.435631299973,True,-1,stimulus_HE28GE_Yes-No Task_2019_Mar_25_1847_165,-1,2019_Mar_25_1847,Yes-No Task,2,HE28GE,
Yes-No Task,60,0,60,0,5.3,-1,Correct Rejection,0.552315499983,False,-1,stimulus_HE28GE_Yes-No Task_2019_Mar_25_1847_166,-1,2019_Mar_25_1847,Yes-No Task,2,HE28GE,
Yes-No Task,61,0,61,0,5.3,-1,Hit,0.450784399989,True,-1,stimulus_HE28GE_Yes-No Task_2019_Mar_25_1847_167,-1,2019_Mar_25_1847,Yes-No Task,2,HE28GE,
Yes-No Task,62,0,62,0,5.3,-1,False Alarm,0.334275099973,False,-1,stimulus_HE28GE_Yes-No Task_2019_Mar_25_1847_168,-1,2019_Mar_25_1847,Yes-No Task,2,HE28GE,
Yes-No Task,63,0,63,0,5.3,-1,Correct Rejection,0.285782700055,False,-1,stimulus_HE28GE_Yes-No Task_2019_Mar_25_1847_169,-1,2019_Mar_25_1847,Yes-No Task,2,HE28GE,
Yes-No Task,64,0,64,0,5.3,-1,Miss,0.684271500038,True,-1,stimulus_HE28GE_Yes-No Task_2019_Mar_25_1847_170,-1,2019_Mar_25_1847,Yes-No Task,2,HE28GE,
Yes-No Task,65,0,65,0,5.3,-1,Hit,0.817425300018,True,-1,stimulus_HE28GE_Yes-No Task_2019_Mar_25_1847_171,-1,2019_Mar_25_1847,Yes-No Task,2,HE28GE,
Yes-No Task,66,0,66,0,5.3,-1,Miss,0.884402900003,True,-1,stimulus_HE28GE_Yes-No Task_2019_Mar_25_1847_172,-1,2019_Mar_25_1847,Yes-No Task,2,HE28GE,
Yes-No Task,67,0,67,0,5.3,-1,Miss,0.517748699989,True,-1,stimulus_HE28GE_Yes-No Task_2019_Mar_25_1847_173,-1,2019_Mar_25_1847,Yes-No Task,2,HE28GE,
Yes-No Task,68,0,68,0,5.3,-1,Miss,0.601406399976,True,-1,stimulus_HE28GE_Yes-No Task_2019_Mar_25_1847_174,-1,2019_Mar_25_1847,Yes-No Task,2,HE28GE,
Yes-No Task,69,0,69,0,5.3,-1,Miss,0.649336599978,True,-1,stimulus_HE28GE_Yes-No Task_2019_Mar_25_1847_175,-1,2019_Mar_25_1847,Yes-No Task,2,HE28GE,
Yes-No Task,70,0,70,0,5.3,-1,Correct Rejection,0.683934699977,False,-1,stimulus_HE28GE_Yes-No Task_2019_Mar_25_1847_176,-1,2019_Mar_25_1847,Yes-No Task,2,HE28GE,
Yes-No Task,71,0,71,0,5.3,-1,Hit,0.468292800011,True,-1,stimulus_HE28GE_Yes-No Task_2019_Mar_25_1847_177,-1,2019_Mar_25_1847,Yes-No Task,2,HE28GE,
Yes-No Task,72,0,72,0,5.3,-1,Correct Rejection,0.417873600032,False,-1,stimulus_HE28GE_Yes-No Task_2019_Mar_25_1847_178,-1,2019_Mar_25_1847,Yes-No Task,2,HE28GE,
Yes-No Task,73,0,73,0,5.3,-1,False Alarm,0.399818599981,False,-1,stimulus_HE28GE_Yes-No Task_2019_Mar_25_1847_179,-1,2019_Mar_25_1847,Yes-No Task,2,HE28GE,
Yes-No Task,74,0,74,0,5.3,-1,Miss,0.500219400041,True,-1,stimulus_HE28GE_Yes-No Task_2019_Mar_25_1847_180,-1,2019_Mar_25_1847,Yes-No Task,2,HE28GE,
Yes-No Task,75,0,75,0,5.3,-1,Correct Rejection,0.53548130003,False,-1,stimulus_HE28GE_Yes-No Task_2019_Mar_25_1847_181,-1,2019_Mar_25_1847,Yes-No Task,2,HE28GE,
Yes-No Task,76,0,76,0,5.3,-1,False Alarm,0.534856899991,False,-1,stimulus_HE28GE_Yes-No Task_2019_Mar_25_1847_182,-1,2019_Mar_25_1847,Yes-No Task,2,HE28GE,
Yes-No Task,77,0,77,0,5.3,-1,Hit,0.500620999956,True,-1,stimulus_HE28GE_Yes-No Task_2019_Mar_25_1847_183,-1,2019_Mar_25_1847,Yes-No Task,2,HE28GE,
Yes-No Task,78,0,78,0,5.3,-1,Correct Rejection,0.369196300046,False,-1,stimulus_HE28GE_Yes-No Task_2019_Mar_25_1847_184,-1,2019_Mar_25_1847,Yes-No Task,2,HE28GE,
Yes-No Task,79,0,79,0,5.3,-1,Hit,0.449419500015,True,-1,stimulus_HE28GE_Yes-No Task_2019_Mar_25_1847_185,-1,2019_Mar_25_1847,Yes-No Task,2,HE28GE,
Yes-No Task,80,0,80,0,5.3,-1,Correct Rejection,0.50062940002,False,-1,stimulus_HE28GE_Yes-No Task_2019_Mar_25_1847_186,-1,2019_Mar_25_1847,Yes-No Task,2,HE28GE,
Yes-No Task,81,0,81,0,5.3,-1,Miss,0.703159999975,True,-1,stimulus_HE28GE_Yes-No Task_2019_Mar_25_1847_187,-1,2019_Mar_25_1847,Yes-No Task,2,HE28GE,
Yes-No Task,82,0,82,0,5.3,-1,Miss,0.618227600004,True,-1,stimulus_HE28GE_Yes-No Task_2019_Mar_25_1847_188,-1,2019_Mar_25_1847,Yes-No Task,2,HE28GE,
Yes-No Task,83,0,83,0,5.3,-1,False Alarm,0.434312700003,False,-1,stimulus_HE28GE_Yes-No Task_2019_Mar_25_1847_189,-1,2019_Mar_25_1847,Yes-No Task,2,HE28GE,
Yes-No Task,84,0,84,0,5.3,-1,False Alarm,0.599863299984,False,-1,stimulus_HE28GE_Yes-No Task_2019_Mar_25_1847_190,-1,2019_Mar_25_1847,Yes-No Task,2,HE28GE,
Yes-No Task,85,0,85,0,5.3,-1,Correct Rejection,0.617419699964,False,-1,stimulus_HE28GE_Yes-No Task_2019_Mar_25_1847_191,-1,2019_Mar_25_1847,Yes-No Task,2,HE28GE,
Yes-No Task,86,0,86,0,5.3,-1,Correct Rejection,0.750305699999,False,-1,stimulus_HE28GE_Yes-No Task_2019_Mar_25_1847_192,-1,2019_Mar_25_1847,Yes-No Task,2,HE28GE,
Yes-No Task,87,0,87,0,5.3,-1,False Alarm,0.61790209997,False,-1,stimulus_HE28GE_Yes-No Task_2019_Mar_25_1847_193,-1,2019_Mar_25_1847,Yes-No Task,2,HE28GE,
Yes-No Task,88,0,88,0,5.3,-1,Correct Rejection,0.65323180001,False,-1,stimulus_HE28GE_Yes-No Task_2019_Mar_25_1847_194,-1,2019_Mar_25_1847,Yes-No Task,2,HE28GE,
Yes-No Task,89,0,89,0,5.3,-1,Hit,0.570779500005,True,-1,stimulus_HE28GE_Yes-No Task_2019_Mar_25_1847_195,-1,2019_Mar_25_1847,Yes-No Task,2,HE28GE,
Yes-No Task,90,0,90,0,5.3,-1,False Alarm,0.785387399956,False,-1,stimulus_HE28GE_Yes-No Task_2019_Mar_25_1847_196,-1,2019_Mar_25_1847,Yes-No Task,2,HE28GE,
Yes-No Task,91,0,91,0,5.3,-1,Correct Rejection,0.467440500041,False,-1,stimulus_HE28GE_Yes-No Task_2019_Mar_25_1847_197,-1,2019_Mar_25_1847,Yes-No Task,2,HE28GE,
Yes-No Task,92,0,92,0,5.3,-1,Correct Rejection,0.367908500019,False,-1,stimulus_HE28GE_Yes-No Task_2019_Mar_25_1847_198,-1,2019_Mar_25_1847,Yes-No Task,2,HE28GE,
Yes-No Task,93,0,93,0,5.3,-1,Hit,0.501004600024,True,-1,stimulus_HE28GE_Yes-No Task_2019_Mar_25_1847_199,-1,2019_Mar_25_1847,Yes-No Task,2,HE28GE,
Yes-No Task,94,0,94,0,5.3,-1,Hit,0.516969299992,True,-1,stimulus_HE28GE_Yes-No Task_2019_Mar_25_1847_200,-1,2019_Mar_25_1847,Yes-No Task,2,HE28GE,
Yes-No Task,95,0,95,0,5.3,-1,Hit,0.600161899987,True,-1,stimulus_HE28GE_Yes-No Task_2019_Mar_25_1847_201,-1,2019_Mar_25_1847,Yes-No Task,2,HE28GE,
Yes-No Task,96,0,96,0,5.3,-1,Hit,0.500891000032,True,-1,stimulus_HE28GE_Yes-No Task_2019_Mar_25_1847_202,-1,2019_Mar_25_1847,Yes-No Task,2,HE28GE,
Yes-No Task,97,0,97,0,5.3,-1,False Alarm,0.584364000009,False,-1,stimulus_HE28GE_Yes-No Task_2019_Mar_25_1847_203,-1,2019_Mar_25_1847,Yes-No Task,2,HE28GE,
Yes-No Task,98,0,98,0,5.3,-1,Hit,0.649336499977,True,-1,stimulus_HE28GE_Yes-No Task_2019_Mar_25_1847_204,-1,2019_Mar_25_1847,Yes-No Task,2,HE28GE,
Yes-No Task,99,0,99,0,5.3,-1,Hit,0.634015999967,True,-1,stimulus_HE28GE_Yes-No Task_2019_Mar_25_1847_205,-1,2019_Mar_25_1847,Yes-No Task,2,HE28GE,
Yes-No Task,0,0,0,0,5.3,-1,Correct Rejection,0.433979799971,False,-1,stimulus_HE28GE_Yes-No Task_2019_Mar_25_1847_206,-1,2019_Mar_25_1847,Yes-No Task,2,HE28GE,
Yes-No Task,1,0,1,0,5.3,-1,Miss,0.385399099963,True,-1,stimulus_HE28GE_Yes-No Task_2019_Mar_25_1847_207,-1,2019_Mar_25_1847,Yes-No Task,2,HE28GE,
Yes-No Task,2,0,2,0,5.3,-1,Correct Rejection,0.300333299965,False,-1,stimulus_HE28GE_Yes-No Task_2019_Mar_25_1847_208,-1,2019_Mar_25_1847,Yes-No Task,2,HE28GE,
Yes-No Task,3,0,3,0,5.3,-1,Correct Rejection,0.517355499964,False,-1,stimulus_HE28GE_Yes-No Task_2019_Mar_25_1847_209,-1,2019_Mar_25_1847,Yes-No Task,2,HE28GE,
Yes-No Task,4,0,4,0,5.3,-1,Correct Rejection,0.567773799994,False,-1,stimulus_HE28GE_Yes-No Task_2019_Mar_25_1847_210,-1,2019_Mar_25_1847,Yes-No Task,2,HE28GE,
Yes-No Task,5,0,5,0,5.3,-1,Hit,0.499009299965,True,-1,stimulus_HE28GE_Yes-No Task_2019_Mar_25_1847_211,-1,2019_Mar_25_1847,Yes-No Task,2,HE28GE,
Yes-No Task,6,0,6,0,5.3,-1,Correct Rejection,0.383668199996,False,-1,stimulus_HE28GE_Yes-No Task_2019_Mar_25_1847_212,-1,2019_Mar_25_1847,Yes-No Task,2,HE28GE,
Yes-No Task,7,0,7,0,5.3,-1,Hit,0.403224799957,True,-1,stimulus_HE28GE_Yes-No Task_2019_Mar_25_1847_213,-1,2019_Mar_25_1847,Yes-No Task,2,HE28GE,
Yes-No Task,8,0,8,0,5.3,-1,Correct Rejection,0.400677100057,False,-1,stimulus_HE28GE_Yes-No Task_2019_Mar_25_1847_214,-1,2019_Mar_25_1847,Yes-No Task,2,HE28GE,
Yes-No Task,9,0,9,0,5.3,-1,False Alarm,0.366354999947,False,-1,stimulus_HE28GE_Yes-No Task_2019_Mar_25_1847_215,-1,2019_Mar_25_1847,Yes-No Task,2,HE28GE,
Yes-No Task,10,0,10,0,5.3,-1,Hit,0.449794100015,True,-1,stimulus_HE28GE_Yes-No Task_2019_Mar_25_1847_216,-1,2019_Mar_25_1847,Yes-No Task,2,HE28GE,
Yes-No Task,11,0,11,0,5.3,-1,Hit,0.469295500021,True,-1,stimulus_HE28GE_Yes-No Task_2019_Mar_25_1847_217,-1,2019_Mar_25_1847,Yes-No Task,2,HE28GE,
Yes-No Task,12,0,12,0,5.3,-1,Hit,0.517998300027,True,-1,stimulus_HE28GE_Yes-No Task_2019_Mar_25_1847_218,-1,2019_Mar_25_1847,Yes-No Task,2,HE28GE,
Yes-No Task,13,0,13,0,5.3,-1,Miss,0.301974600006,True,-1,stimulus_HE28GE_Yes-No Task_2019_Mar_25_1847_219,-1,2019_Mar_25_1847,Yes-No Task,2,HE28GE,
Yes-No Task,14,0,14,0,5.3,-1,Correct Rejection,0.117918299977,False,-1,stimulus_HE28GE_Yes-No Task_2019_Mar_25_1847_220,-1,2019_Mar_25_1847,Yes-No Task,2,HE28GE,
Yes-No Task,15,0,15,0,5.3,-1,Hit,0.417736599979,True,-1,stimulus_HE28GE_Yes-No Task_2019_Mar_25_1847_221,-1,2019_Mar_25_1847,Yes-No Task,2,HE28GE,
Yes-No Task,16,0,16,0,5.3,-1,Hit,0.45286109997,True,-1,stimulus_HE28GE_Yes-No Task_2019_Mar_25_1847_222,-1,2019_Mar_25_1847,Yes-No Task,2,HE28GE,
Yes-No Task,17,0,17,0,5.3,-1,Hit,0.483352200012,True,-1,stimulus_HE28GE_Yes-No Task_2019_Mar_25_1847_223,-1,2019_Mar_25_1847,Yes-No Task,2,HE28GE,
Yes-No Task,18,0,18,0,5.3,-1,Correct Rejection,0.416980899987,False,-1,stimulus_HE28GE_Yes-No Task_2019_Mar_25_1847_224,-1,2019_Mar_25_1847,Yes-No Task,2,HE28GE,
Yes-No Task,19,0,19,0,5.3,-1,Hit,0.418336700008,True,-1,stimulus_HE28GE_Yes-No Task_2019_Mar_25_1847_225,-1,2019_Mar_25_1847,Yes-No Task,2,HE28GE,
Yes-No Task,20,0,20,0,5.3,-1,Hit,0.416979299975,True,-1,stimulus_HE28GE_Yes-No Task_2019_Mar_25_1847_226,-1,2019_Mar_25_1847,Yes-No Task,2,HE28GE,
Yes-No Task,21,0,21,0,5.3,-1,Correct Rejection,0.452783200017,False,-1,stimulus_HE28GE_Yes-No Task_2019_Mar_25_1847_227,-1,2019_Mar_25_1847,Yes-No Task,2,HE28GE,
Yes-No Task,22,0,22,0,5.3,-1,False Alarm,0.335165600001,False,-1,stimulus_HE28GE_Yes-No Task_2019_Mar_25_1847_228,-1,2019_Mar_25_1847,Yes-No Task,2,HE28GE,
Yes-No Task,23,0,23,0,5.3,-1,Hit,0.452294100018,True,-1,stimulus_HE28GE_Yes-No Task_2019_Mar_25_1847_229,-1,2019_Mar_25_1847,Yes-No Task,2,HE28GE,
Yes-No Task,24,0,24,0,5.3,-1,Correct Rejection,0.385385799978,False,-1,stimulus_HE28GE_Yes-No Task_2019_Mar_25_1847_230,-1,2019_Mar_25_1847,Yes-No Task,2,HE28GE,
Yes-No Task,25,0,25,0,5.3,-1,Miss,0.434918300016,True,-1,stimulus_HE28GE_Yes-No Task_2019_Mar_25_1847_231,-1,2019_Mar_25_1847,Yes-No Task,2,HE28GE,
Yes-No Task,26,0,26,0,5.3,-1,Miss,0.567112599965,True,-1,stimulus_HE28GE_Yes-No Task_2019_Mar_25_1847_232,-1,2019_Mar_25_1847,Yes-No Task,2,HE28GE,
Yes-No Task,27,0,27,0,5.3,-1,Hit,0.534545000002,True,-1,stimulus_HE28GE_Yes-No Task_2019_Mar_25_1847_233,-1,2019_Mar_25_1847,Yes-No Task,2,HE28GE,
Yes-No Task,28,0,28,0,5.3,-1,Miss,0.383531500003,True,-1,stimulus_HE28GE_Yes-No Task_2019_Mar_25_1847_234,-1,2019_Mar_25_1847,Yes-No Task,2,HE28GE,
Yes-No Task,29,0,29,0,5.3,-1,Hit,0.585232499987,True,-1,stimulus_HE28GE_Yes-No Task_2019_Mar_25_1847_235,-1,2019_Mar_25_1847,Yes-No Task,2,HE28GE,
Yes-No Task,30,0,30,0,5.3,-1,Hit,0.451236399997,True,-1,stimulus_HE28GE_Yes-No Task_2019_Mar_25_1847_236,-1,2019_Mar_25_1847,Yes-No Task,2,HE28GE,
Yes-No Task,31,0,31,0,5.3,-1,Hit,0.450842100021,True,-1,stimulus_HE28GE_Yes-No Task_2019_Mar_25_1847_237,-1,2019_Mar_25_1847,Yes-No Task,2,HE28GE,
Yes-No Task,32,0,32,0,5.3,-1,Miss,0.400228499959,True,-1,stimulus_HE28GE_Yes-No Task_2019_Mar_25_1847_238,-1,2019_Mar_25_1847,Yes-No Task,2,HE28GE,
Yes-No Task,33,0,33,0,5.3,-1,Correct Rejection,0.501838000026,False,-1,stimulus_HE28GE_Yes-No Task_2019_Mar_25_1847_239,-1,2019_Mar_25_1847,Yes-No Task,2,HE28GE,
Yes-No Task,34,0,34,0,5.3,-1,Hit,0.483532499988,True,-1,stimulus_HE28GE_Yes-No Task_2019_Mar_25_1847_240,-1,2019_Mar_25_1847,Yes-No Task,2,HE28GE,
Yes-No Task,35,0,35,0,5.3,-1,Hit,0.399716500018,True,-1,stimulus_HE28GE_Yes-No Task_2019_Mar_25_1847_241,-1,2019_Mar_25_1847,Yes-No Task,2,HE28GE,
Yes-No Task,36,0,36,0,5.3,-1,Miss,0.482921699993,True,-1,stimulus_HE28GE_Yes-No Task_2019_Mar_25_1847_242,-1,2019_Mar_25_1847,Yes-No Task,2,HE28GE,
Yes-No Task,37,0,37,0,5.3,-1,Correct Rejection,0.50132510002,False,-1,stimulus_HE28GE_Yes-No Task_2019_Mar_25_1847_243,-1,2019_Mar_25_1847,Yes-No Task,2,HE28GE,
Yes-No Task,38,0,38,0,5.3,-1,False Alarm,0.468731200031,False,-1,stimulus_HE28GE_Yes-No Task_2019_Mar_25_1847_244,-1,2019_Mar_25_1847,Yes-No Task,2,HE28GE,
Yes-No Task,39,0,39,0,5.3,-1,False Alarm,0.436018000008,False,-1,stimulus_HE28GE_Yes-No Task_2019_Mar_25_1847_245,-1,2019_Mar_25_1847,Yes-No Task,2,HE28GE,
Yes-No Task,40,0,40,0,5.3,-1,Hit,0.584211100009,True,-1,stimulus_HE28GE_Yes-No Task_2019_Mar_25_1847_246,-1,2019_Mar_25_1847,Yes-No Task,2,HE28GE,
Yes-No Task,41,0,41,0,5.3,-1,Correct Rejection,0.516180599981,False,-1,stimulus_HE28GE_Yes-No Task_2019_Mar_25_1847_247,-1,2019_Mar_25_1847,Yes-No Task,2,HE28GE,
Yes-No Task,42,0,42,0,5.3,-1,Hit,0.48314659996,True,-1,stimulus_HE28GE_Yes-No Task_2019_Mar_25_1847_248,-1,2019_Mar_25_1847,Yes-No Task,2,HE28GE,
Yes-No Task,43,0,43,0,5.3,-1,False Alarm,0.58484830003,False,-1,stimulus_HE28GE_Yes-No Task_2019_Mar_25_1847_249,-1,2019_Mar_25_1847,Yes-No Task,2,HE28GE,
Yes-No Task,44,0,44,0,5.3,-1,Miss,0.485235299973,True,-1,stimulus_HE28GE_Yes-No Task_2019_Mar_25_1847_250,-1,2019_Mar_25_1847,Yes-No Task,2,HE28GE,
Yes-No Task,45,0,45,0,5.3,-1,Correct Rejection,0.517976899981,False,-1,stimulus_HE28GE_Yes-No Task_2019_Mar_25_1847_251,-1,2019_Mar_25_1847,Yes-No Task,2,HE28GE,
Yes-No Task,46,0,46,0,5.3,-1,Hit,0.567050500016,True,-1,stimulus_HE28GE_Yes-No Task_2019_Mar_25_1847_252,-1,2019_Mar_25_1847,Yes-No Task,2,HE28GE,
Yes-No Task,47,0,47,0,5.3,-1,Correct Rejection,0.650786499958,False,-1,stimulus_HE28GE_Yes-No Task_2019_Mar_25_1847_253,-1,2019_Mar_25_1847,Yes-No Task,2,HE28GE,
Yes-No Task,48,0,48,0,5.3,-1,False Alarm,0.534860799962,False,-1,stimulus_HE28GE_Yes-No Task_2019_Mar_25_1847_254,-1,2019_Mar_25_1847,Yes-No Task,2,HE28GE,
Yes-No Task,49,0,49,0,5.3,-1,False Alarm,0.482431799988,False,-1,stimulus_HE28GE_Yes-No Task_2019_Mar_25_1847_255,-1,2019_Mar_25_1847,Yes-No Task,2,HE28GE,
Yes-No Task,50,0,50,0,5.3,-1,Miss,0.750590200012,True,-1,stimulus_HE28GE_Yes-No Task_2019_Mar_25_1847_256,-1,2019_Mar_25_1847,Yes-No Task,2,HE28GE,
Yes-No Task,51,0,51,0,5.3,-1,Hit,0.601534200017,True,-1,stimulus_HE28GE_Yes-No Task_2019_Mar_25_1847_257,-1,2019_Mar_25_1847,Yes-No Task,2,HE28GE,
Yes-No Task,52,0,52,0,5.3,-1,Correct Rejection,0.617864399974,False,-1,stimulus_HE28GE_Yes-No Task_2019_Mar_25_1847_258,-1,2019_Mar_25_1847,Yes-No Task,2,HE28GE,
Yes-No Task,53,0,53,0,5.3,-1,Correct Rejection,0.533947299991,False,-1,stimulus_HE28GE_Yes-No Task_2019_Mar_25_1847_259,-1,2019_Mar_25_1847,Yes-No Task,2,HE28GE,
Yes-No Task,54,0,54,0,5.3,-1,Miss,0.550748699985,True,-1,stimulus_HE28GE_Yes-No Task_2019_Mar_25_1847_260,-1,2019_Mar_25_1847,Yes-No Task,2,HE28GE,
Yes-No Task,55,0,55,0,5.3,-1,False Alarm,0.583380000025,False,-1,stimulus_HE28GE_Yes-No Task_2019_Mar_25_1847_261,-1,2019_Mar_25_1847,Yes-No Task,2,HE28GE,
Yes-No Task,56,0,56,0,5.3,-1,Miss,0.467434699996,True,-1,stimulus_HE28GE_Yes-No Task_2019_Mar_25_1847_262,-1,2019_Mar_25_1847,Yes-No Task,2,HE28GE,
Yes-No Task,57,0,57,0,5.3,-1,Hit,0.518402799964,True,-1,stimulus_HE28GE_Yes-No Task_2019_Mar_25_1847_263,-1,2019_Mar_25_1847,Yes-No Task,2,HE28GE,
Yes-No Task,58,0,58,0,5.3,-1,False Alarm,0.484986800002,False,-1,stimulus_HE28GE_Yes-No Task_2019_Mar_25_1847_264,-1,2019_Mar_25_1847,Yes-No Task,2,HE28GE,
Yes-No Task,59,0,59,0,5.3,-1,Miss,0.700628400024,True,-1,stimulus_HE28GE_Yes-No Task_2019_Mar_25_1847_265,-1,2019_Mar_25_1847,Yes-No Task,2,HE28GE,
Yes-No Task,60,0,60,0,5.3,-1,Hit,0.467257299984,True,-1,stimulus_HE28GE_Yes-No Task_2019_Mar_25_1847_266,-1,2019_Mar_25_1847,Yes-No Task,2,HE28GE,
Yes-No Task,61,0,61,0,5.3,-1,Hit,0.49991990003,True,-1,stimulus_HE28GE_Yes-No Task_2019_Mar_25_1847_267,-1,2019_Mar_25_1847,Yes-No Task,2,HE28GE,
Yes-No Task,62,0,62,0,5.3,-1,Hit,0.450875499984,True,-1,stimulus_HE28GE_Yes-No Task_2019_Mar_25_1847_268,-1,2019_Mar_25_1847,Yes-No Task,2,HE28GE,
Yes-No Task,63,0,63,0,5.3,-1,Correct Rejection,0.832533699984,False,-1,stimulus_HE28GE_Yes-No Task_2019_Mar_25_1847_269,-1,2019_Mar_25_1847,Yes-No Task,2,HE28GE,
Yes-No Task,64,0,64,0,5.3,-1,Hit,0.48270990001,True,-1,stimulus_HE28GE_Yes-No Task_2019_Mar_25_1847_270,-1,2019_Mar_25_1847,Yes-No Task,2,HE28GE,
Yes-No Task,65,0,65,0,5.3,-1,Hit,0.485444399994,True,-1,stimulus_HE28GE_Yes-No Task_2019_Mar_25_1847_271,-1,2019_Mar_25_1847,Yes-No Task,2,HE28GE,
Yes-No Task,66,0,66,0,5.3,-1,Correct Rejection,0.499656400003,False,-1,stimulus_HE28GE_Yes-No Task_2019_Mar_25_1847_272,-1,2019_Mar_25_1847,Yes-No Task,2,HE28GE,
Yes-No Task,67,0,67,0,5.3,-1,Miss,0.483837499982,True,-1,stimulus_HE28GE_Yes-No Task_2019_Mar_25_1847_273,-1,2019_Mar_25_1847,Yes-No Task,2,HE28GE,
Yes-No Task,68,0,68,0,5.3,-1,Hit,0.568284699984,True,-1,stimulus_HE28GE_Yes-No Task_2019_Mar_25_1847_274,-1,2019_Mar_25_1847,Yes-No Task,2,HE28GE,
Yes-No Task,69,0,69,0,5.3,-1,Hit,0.451813399966,True,-1,stimulus_HE28GE_Yes-No Task_2019_Mar_25_1847_275,-1,2019_Mar_25_1847,Yes-No Task,2,HE28GE,
Yes-No Task,70,0,70,0,5.3,-1,False Alarm,0.499997500039,False,-1,stimulus_HE28GE_Yes-No Task_2019_Mar_25_1847_276,-1,2019_Mar_25_1847,Yes-No Task,2,HE28GE,
Yes-No Task,71,0,71,0,5.3,-1,Correct Rejection,0.71714730002,False,-1,stimulus_HE28GE_Yes-No Task_2019_Mar_25_1847_277,-1,2019_Mar_25_1847,Yes-No Task,2,HE28GE,
Yes-No Task,72,0,72,0,5.3,-1,Correct Rejection,0.568488600024,False,-1,stimulus_HE28GE_Yes-No Task_2019_Mar_25_1847_278,-1,2019_Mar_25_1847,Yes-No Task,2,HE28GE,
Yes-No Task,73,0,73,0,5.3,-1,False Alarm,0.484479799983,False,-1,stimulus_HE28GE_Yes-No Task_2019_Mar_25_1847_279,-1,2019_Mar_25_1847,Yes-No Task,2,HE28GE,
Yes-No Task,74,0,74,0,5.3,-1,Miss,0.417240999988,True,-1,stimulus_HE28GE_Yes-No Task_2019_Mar_25_1847_280,-1,2019_Mar_25_1847,Yes-No Task,2,HE28GE,
Yes-No Task,75,0,75,0,5.3,-1,False Alarm,0.450865800027,False,-1,stimulus_HE28GE_Yes-No Task_2019_Mar_25_1847_281,-1,2019_Mar_25_1847,Yes-No Task,2,HE28GE,
Yes-No Task,76,0,76,0,5.3,-1,Correct Rejection,0.650545199984,False,-1,stimulus_HE28GE_Yes-No Task_2019_Mar_25_1847_282,-1,2019_Mar_25_1847,Yes-No Task,2,HE28GE,
Yes-No Task,77,0,77,0,5.3,-1,Hit,0.500890600029,True,-1,stimulus_HE28GE_Yes-No Task_2019_Mar_25_1847_283,-1,2019_Mar_25_1847,Yes-No Task,2,HE28GE,
Yes-No Task,78,0,78,0,5.3,-1,Hit,0.500708899985,True,-1,stimulus_HE28GE_Yes-No Task_2019_Mar_25_1847_284,-1,2019_Mar_25_1847,Yes-No Task,2,HE28GE,
Yes-No Task,79,0,79,0,5.3,-1,Correct Rejection,0.701447300031,False,-1,stimulus_HE28GE_Yes-No Task_2019_Mar_25_1847_285,-1,2019_Mar_25_1847,Yes-No Task,2,HE28GE,
Yes-No Task,80,0,80,0,5.3,-1,False Alarm,0.483983600046,False,-1,stimulus_HE28GE_Yes-No Task_2019_Mar_25_1847_286,-1,2019_Mar_25_1847,Yes-No Task,2,HE28GE,
Yes-No Task,81,0,81,0,5.3,-1,False Alarm,0.519155199989,False,-1,stimulus_HE28GE_Yes-No Task_2019_Mar_25_1847_287,-1,2019_Mar_25_1847,Yes-No Task,2,HE28GE,
Yes-No Task,82,0,82,0,5.3,-1,Correct Rejection,0.467191500007,False,-1,stimulus_HE28GE_Yes-No Task_2019_Mar_25_1847_288,-1,2019_Mar_25_1847,Yes-No Task,2,HE28GE,
Yes-No Task,83,0,83,0,5.3,-1,Hit,0.45063539996,True,-1,stimulus_HE28GE_Yes-No Task_2019_Mar_25_1847_289,-1,2019_Mar_25_1847,Yes-No Task,2,HE28GE,
Yes-No Task,84,0,84,0,5.3,-1,False Alarm,0.550686700037,False,-1,stimulus_HE28GE_Yes-No Task_2019_Mar_25_1847_290,-1,2019_Mar_25_1847,Yes-No Task,2,HE28GE,
Yes-No Task,85,0,85,0,5.3,-1,Correct Rejection,0.420418600028,False,-1,stimulus_HE28GE_Yes-No Task_2019_Mar_25_1847_291,-1,2019_Mar_25_1847,Yes-No Task,2,HE28GE,
Yes-No Task,86,0,86,0,5.3,-1,Correct Rejection,0.434397800011,False,-1,stimulus_HE28GE_Yes-No Task_2019_Mar_25_1847_292,-1,2019_Mar_25_1847,Yes-No Task,2,HE28GE,
Yes-No Task,87,0,87,0,5.3,-1,Hit,0.485142600024,True,-1,stimulus_HE28GE_Yes-No Task_2019_Mar_25_1847_293,-1,2019_Mar_25_1847,Yes-No Task,2,HE28GE,
Yes-No Task,88,0,88,0,5.3,-1,Correct Rejection,0.367671400018,False,-1,stimulus_HE28GE_Yes-No Task_2019_Mar_25_1847_294,-1,2019_Mar_25_1847,Yes-No Task,2,HE28GE,
Yes-No Task,89,0,89,0,5.3,-1,Hit,0.454435699969,True,-1,stimulus_HE28GE_Yes-No Task_2019_Mar_25_1847_295,-1,2019_Mar_25_1847,Yes-No Task,2,HE28GE,
Yes-No Task,90,0,90,0,5.3,-1,Correct Rejection,0.453460999997,False,-1,stimulus_HE28GE_Yes-No Task_2019_Mar_25_1847_296,-1,2019_Mar_25_1847,Yes-No Task,2,HE28GE,
Yes-No Task,91,0,91,0,5.3,-1,Correct Rejection,0.501115099993,False,-1,stimulus_HE28GE_Yes-No Task_2019_Mar_25_1847_297,-1,2019_Mar_25_1847,Yes-No Task,2,HE28GE,
Yes-No Task,92,0,92,0,5.3,-1,Correct Rejection,0.467657000001,False,-1,stimulus_HE28GE_Yes-No Task_2019_Mar_25_1847_298,-1,2019_Mar_25_1847,Yes-No Task,2,HE28GE,
Yes-No Task,93,0,93,0,5.3,-1,Correct Rejection,0.418971600011,False,-1,stimulus_HE28GE_Yes-No Task_2019_Mar_25_1847_299,-1,2019_Mar_25_1847,Yes-No Task,2,HE28GE,
Yes-No Task,94,0,94,0,5.3,-1,Hit,0.519055399986,True,-1,stimulus_HE28GE_Yes-No Task_2019_Mar_25_1847_300,-1,2019_Mar_25_1847,Yes-No Task,2,HE28GE,
Yes-No Task,95,0,95,0,5.3,-1,Miss,0.43435310002,True,-1,stimulus_HE28GE_Yes-No Task_2019_Mar_25_1847_301,-1,2019_Mar_25_1847,Yes-No Task,2,HE28GE,
Yes-No Task,96,0,96,0,5.3,-1,Hit,0.418800799991,True,-1,stimulus_HE28GE_Yes-No Task_2019_Mar_25_1847_302,-1,2019_Mar_25_1847,Yes-No Task,2,HE28GE,
Yes-No Task,97,0,97,0,5.3,-1,Hit,0.39928100002,True,-1,stimulus_HE28GE_Yes-No Task_2019_Mar_25_1847_303,-1,2019_Mar_25_1847,Yes-No Task,2,HE28GE,
Yes-No Task,98,0,98,0,5.3,-1,Hit,0.468227699981,True,-1,stimulus_HE28GE_Yes-No Task_2019_Mar_25_1847_304,-1,2019_Mar_25_1847,Yes-No Task,2,HE28GE,
Yes-No Task,99,0,99,0,5.3,-1,Hit,0.433616800001,True,-1,stimulus_HE28GE_Yes-No Task_2019_Mar_25_1847_305,-1,2019_Mar_25_1847,Yes-No Task,2,HE28GE,
