Task,trials.thisRepN,trials.thisTrialN,trials.thisN,trials.thisIndex,signal_intensity,constant Value,response,time_response,signal_on_stimuluspos1,signal_on_stimuluspos2,stimulus_name_pos1,stimulus_name_pos2,random_intensity,date,expName,session,participant,
Yes-No Task,0,0,0,0,16.9,-1,Miss,0.467207300011,True,-1,stimulus_DIAN07_Yes-No Task_2019_Jun_13_1636_1,-1,False,2019_Jun_13_1636,Yes-No Task,2,DIAN07,
Yes-No Task,1,0,1,0,16.9,-1,Hit,0.43335759989,True,-1,stimulus_DIAN07_Yes-No Task_2019_Jun_13_1636_2,-1,False,2019_Jun_13_1636,Yes-No Task,2,DIAN07,
Yes-No Task,2,0,2,0,16.9,-1,Hit,0.366435100092,True,-1,stimulus_DIAN07_Yes-No Task_2019_Jun_13_1636_3,-1,False,2019_Jun_13_1636,Yes-No Task,2,DIAN07,
Yes-No Task,3,0,3,0,16.9,-1,Hit,0.36723040021,True,-1,stimulus_DIAN07_Yes-No Task_2019_Jun_13_1636_4,-1,False,2019_Jun_13_1636,Yes-No Task,2,DIAN07,
Yes-No Task,4,0,4,0,16.9,-1,Correct Rejection,0.467500899918,False,-1,stimulus_DIAN07_Yes-No Task_2019_Jun_13_1636_5,-1,False,2019_Jun_13_1636,Yes-No Task,2,DIAN07,
Yes-No Task,5,0,5,0,16.9,-1,Hit,0.467300399905,True,-1,stimulus_DIAN07_Yes-No Task_2019_Jun_13_1636_6,-1,False,2019_Jun_13_1636,Yes-No Task,2,DIAN07,
Yes-No Task,6,0,6,0,16.9,-1,Miss,0.466946200002,True,-1,stimulus_DIAN07_Yes-No Task_2019_Jun_13_1636_7,-1,False,2019_Jun_13_1636,Yes-No Task,2,DIAN07,
Yes-No Task,7,0,7,0,16.9,-1,Hit,0.401496599894,True,-1,stimulus_DIAN07_Yes-No Task_2019_Jun_13_1636_8,-1,False,2019_Jun_13_1636,Yes-No Task,2,DIAN07,
Yes-No Task,8,0,8,0,16.9,-1,Hit,0.400942699984,True,-1,stimulus_DIAN07_Yes-No Task_2019_Jun_13_1636_9,-1,False,2019_Jun_13_1636,Yes-No Task,2,DIAN07,
Yes-No Task,9,0,9,0,16.9,-1,Hit,0.401097099995,True,-1,stimulus_DIAN07_Yes-No Task_2019_Jun_13_1636_10,-1,False,2019_Jun_13_1636,Yes-No Task,2,DIAN07,
Yes-No Task,10,0,10,0,16.9,-1,Correct Rejection,0.500441699987,False,-1,stimulus_DIAN07_Yes-No Task_2019_Jun_13_1636_11,-1,False,2019_Jun_13_1636,Yes-No Task,2,DIAN07,
Yes-No Task,11,0,11,0,16.9,-1,Correct Rejection,0.566988299834,False,-1,stimulus_DIAN07_Yes-No Task_2019_Jun_13_1636_12,-1,False,2019_Jun_13_1636,Yes-No Task,2,DIAN07,
Yes-No Task,12,0,12,0,16.9,-1,Correct Rejection,0.500490800012,False,-1,stimulus_DIAN07_Yes-No Task_2019_Jun_13_1636_13,-1,False,2019_Jun_13_1636,Yes-No Task,2,DIAN07,
Yes-No Task,13,0,13,0,16.9,-1,Correct Rejection,0.633631200064,False,-1,stimulus_DIAN07_Yes-No Task_2019_Jun_13_1636_14,-1,False,2019_Jun_13_1636,Yes-No Task,2,DIAN07,
Yes-No Task,14,0,14,0,16.9,-1,Hit,0.468483899953,True,-1,stimulus_DIAN07_Yes-No Task_2019_Jun_13_1636_15,-1,False,2019_Jun_13_1636,Yes-No Task,2,DIAN07,
Yes-No Task,15,0,15,0,16.9,-1,Hit,0.467859799974,True,-1,stimulus_DIAN07_Yes-No Task_2019_Jun_13_1636_16,-1,False,2019_Jun_13_1636,Yes-No Task,2,DIAN07,
Yes-No Task,16,0,16,0,16.9,-1,Correct Rejection,0.434010599973,False,-1,stimulus_DIAN07_Yes-No Task_2019_Jun_13_1636_17,-1,False,2019_Jun_13_1636,Yes-No Task,2,DIAN07,
Yes-No Task,17,0,17,0,16.9,-1,Hit,0.534008999821,True,-1,stimulus_DIAN07_Yes-No Task_2019_Jun_13_1636_18,-1,False,2019_Jun_13_1636,Yes-No Task,2,DIAN07,
Yes-No Task,18,0,18,0,16.9,-1,Hit,0.5005504,True,-1,stimulus_DIAN07_Yes-No Task_2019_Jun_13_1636_19,-1,False,2019_Jun_13_1636,Yes-No Task,2,DIAN07,
Yes-No Task,19,0,19,0,16.9,-1,Correct Rejection,0.56855960004,False,-1,stimulus_DIAN07_Yes-No Task_2019_Jun_13_1636_20,-1,False,2019_Jun_13_1636,Yes-No Task,2,DIAN07,
Yes-No Task,20,0,20,0,16.9,-1,Correct Rejection,0.735533099854,False,-1,stimulus_DIAN07_Yes-No Task_2019_Jun_13_1636_21,-1,False,2019_Jun_13_1636,Yes-No Task,2,DIAN07,
Yes-No Task,21,0,21,0,16.9,-1,Hit,0.434688800015,True,-1,stimulus_DIAN07_Yes-No Task_2019_Jun_13_1636_22,-1,False,2019_Jun_13_1636,Yes-No Task,2,DIAN07,
Yes-No Task,22,0,22,0,16.9,-1,Hit,0.434042699868,True,-1,stimulus_DIAN07_Yes-No Task_2019_Jun_13_1636_23,-1,False,2019_Jun_13_1636,Yes-No Task,2,DIAN07,
Yes-No Task,23,0,23,0,16.9,-1,Hit,0.500228299992,True,-1,stimulus_DIAN07_Yes-No Task_2019_Jun_13_1636_24,-1,False,2019_Jun_13_1636,Yes-No Task,2,DIAN07,
Yes-No Task,24,0,24,0,16.9,-1,Hit,0.434996499913,True,-1,stimulus_DIAN07_Yes-No Task_2019_Jun_13_1636_25,-1,False,2019_Jun_13_1636,Yes-No Task,2,DIAN07,
Yes-No Task,25,0,25,0,16.9,-1,Hit,0.399779899977,True,-1,stimulus_DIAN07_Yes-No Task_2019_Jun_13_1636_26,-1,False,2019_Jun_13_1636,Yes-No Task,2,DIAN07,
Yes-No Task,26,0,26,0,16.9,-1,Hit,0.43365520006,True,-1,stimulus_DIAN07_Yes-No Task_2019_Jun_13_1636_27,-1,False,2019_Jun_13_1636,Yes-No Task,2,DIAN07,
Yes-No Task,27,0,27,0,16.9,-1,Correct Rejection,0.56738319993,False,-1,stimulus_DIAN07_Yes-No Task_2019_Jun_13_1636_28,-1,False,2019_Jun_13_1636,Yes-No Task,2,DIAN07,
Yes-No Task,28,0,28,0,16.9,-1,Correct Rejection,0.600795200095,False,-1,stimulus_DIAN07_Yes-No Task_2019_Jun_13_1636_29,-1,False,2019_Jun_13_1636,Yes-No Task,2,DIAN07,
Yes-No Task,29,0,29,0,16.9,-1,Hit,0.467202800093,True,-1,stimulus_DIAN07_Yes-No Task_2019_Jun_13_1636_30,-1,False,2019_Jun_13_1636,Yes-No Task,2,DIAN07,
Yes-No Task,30,0,30,0,16.9,-1,Correct Rejection,0.56757840002,False,-1,stimulus_DIAN07_Yes-No Task_2019_Jun_13_1636_31,-1,False,2019_Jun_13_1636,Yes-No Task,2,DIAN07,
Yes-No Task,31,0,31,0,16.9,-1,Hit,0.500479600159,True,-1,stimulus_DIAN07_Yes-No Task_2019_Jun_13_1636_32,-1,False,2019_Jun_13_1636,Yes-No Task,2,DIAN07,
Yes-No Task,32,0,32,0,16.9,-1,Hit,0.499827199848,True,-1,stimulus_DIAN07_Yes-No Task_2019_Jun_13_1636_33,-1,False,2019_Jun_13_1636,Yes-No Task,2,DIAN07,
Yes-No Task,33,0,33,0,16.9,-1,Correct Rejection,0.598794599995,False,-1,stimulus_DIAN07_Yes-No Task_2019_Jun_13_1636_34,-1,False,2019_Jun_13_1636,Yes-No Task,2,DIAN07,
Yes-No Task,34,0,34,0,16.9,-1,Correct Rejection,0.667488000123,False,-1,stimulus_DIAN07_Yes-No Task_2019_Jun_13_1636_35,-1,False,2019_Jun_13_1636,Yes-No Task,2,DIAN07,
Yes-No Task,35,0,35,0,16.9,-1,Hit,0.433770000003,True,-1,stimulus_DIAN07_Yes-No Task_2019_Jun_13_1636_36,-1,False,2019_Jun_13_1636,Yes-No Task,2,DIAN07,
Yes-No Task,36,0,36,0,16.9,-1,Hit,0.868589300197,True,-1,stimulus_DIAN07_Yes-No Task_2019_Jun_13_1636_37,-1,False,2019_Jun_13_1636,Yes-No Task,2,DIAN07,
Yes-No Task,37,0,37,0,16.9,-1,Hit,0.467441999819,True,-1,stimulus_DIAN07_Yes-No Task_2019_Jun_13_1636_38,-1,False,2019_Jun_13_1636,Yes-No Task,2,DIAN07,
Yes-No Task,38,0,38,0,16.9,-1,Correct Rejection,0.533983099973,False,-1,stimulus_DIAN07_Yes-No Task_2019_Jun_13_1636_39,-1,False,2019_Jun_13_1636,Yes-No Task,2,DIAN07,
Yes-No Task,39,0,39,0,16.9,-1,Hit,0.400470700115,True,-1,stimulus_DIAN07_Yes-No Task_2019_Jun_13_1636_40,-1,False,2019_Jun_13_1636,Yes-No Task,2,DIAN07,
Yes-No Task,40,0,40,0,16.9,-1,Correct Rejection,0.50065920013,False,-1,stimulus_DIAN07_Yes-No Task_2019_Jun_13_1636_41,-1,False,2019_Jun_13_1636,Yes-No Task,2,DIAN07,
Yes-No Task,41,0,41,0,16.9,-1,Correct Rejection,0.500407899963,False,-1,stimulus_DIAN07_Yes-No Task_2019_Jun_13_1636_42,-1,False,2019_Jun_13_1636,Yes-No Task,2,DIAN07,
Yes-No Task,42,0,42,0,16.9,-1,Hit,0.434066500049,True,-1,stimulus_DIAN07_Yes-No Task_2019_Jun_13_1636_43,-1,False,2019_Jun_13_1636,Yes-No Task,2,DIAN07,
Yes-No Task,43,0,43,0,16.9,-1,Hit,0.599773599999,True,-1,stimulus_DIAN07_Yes-No Task_2019_Jun_13_1636_44,-1,False,2019_Jun_13_1636,Yes-No Task,2,DIAN07,
Yes-No Task,44,0,44,0,16.9,-1,Correct Rejection,0.435072100023,False,-1,stimulus_DIAN07_Yes-No Task_2019_Jun_13_1636_45,-1,False,2019_Jun_13_1636,Yes-No Task,2,DIAN07,
Yes-No Task,45,0,45,0,16.9,-1,Correct Rejection,0.534034900134,False,-1,stimulus_DIAN07_Yes-No Task_2019_Jun_13_1636_46,-1,False,2019_Jun_13_1636,Yes-No Task,2,DIAN07,
Yes-No Task,46,0,46,0,16.9,-1,Correct Rejection,0.567623999901,False,-1,stimulus_DIAN07_Yes-No Task_2019_Jun_13_1636_47,-1,False,2019_Jun_13_1636,Yes-No Task,2,DIAN07,
Yes-No Task,47,0,47,0,16.9,-1,Correct Rejection,0.434316999977,False,-1,stimulus_DIAN07_Yes-No Task_2019_Jun_13_1636_48,-1,False,2019_Jun_13_1636,Yes-No Task,2,DIAN07,
Yes-No Task,48,0,48,0,16.9,-1,Correct Rejection,0.400627000025,False,-1,stimulus_DIAN07_Yes-No Task_2019_Jun_13_1636_49,-1,False,2019_Jun_13_1636,Yes-No Task,2,DIAN07,
Yes-No Task,49,0,49,0,16.9,-1,Correct Rejection,0.466988899978,False,-1,stimulus_DIAN07_Yes-No Task_2019_Jun_13_1636_50,-1,False,2019_Jun_13_1636,Yes-No Task,2,DIAN07,
Yes-No Task,50,0,50,0,16.9,-1,Hit,0.467730400153,True,-1,stimulus_DIAN07_Yes-No Task_2019_Jun_13_1636_51,-1,False,2019_Jun_13_1636,Yes-No Task,2,DIAN07,
Yes-No Task,51,0,51,0,16.9,-1,Correct Rejection,0.467862399993,False,-1,stimulus_DIAN07_Yes-No Task_2019_Jun_13_1636_52,-1,False,2019_Jun_13_1636,Yes-No Task,2,DIAN07,
Yes-No Task,52,0,52,0,16.9,-1,Correct Rejection,0.467081500217,False,-1,stimulus_DIAN07_Yes-No Task_2019_Jun_13_1636_53,-1,False,2019_Jun_13_1636,Yes-No Task,2,DIAN07,
Yes-No Task,53,0,53,0,16.9,-1,Hit,0.399742800044,True,-1,stimulus_DIAN07_Yes-No Task_2019_Jun_13_1636_54,-1,False,2019_Jun_13_1636,Yes-No Task,2,DIAN07,
Yes-No Task,54,0,54,0,16.9,-1,Correct Rejection,0.400152900023,False,-1,stimulus_DIAN07_Yes-No Task_2019_Jun_13_1636_55,-1,False,2019_Jun_13_1636,Yes-No Task,2,DIAN07,
Yes-No Task,55,0,55,0,16.9,-1,Correct Rejection,0.467163800029,False,-1,stimulus_DIAN07_Yes-No Task_2019_Jun_13_1636_56,-1,False,2019_Jun_13_1636,Yes-No Task,2,DIAN07,
Yes-No Task,56,0,56,0,16.9,-1,Correct Rejection,0.400553099811,False,-1,stimulus_DIAN07_Yes-No Task_2019_Jun_13_1636_57,-1,False,2019_Jun_13_1636,Yes-No Task,2,DIAN07,
Yes-No Task,57,0,57,0,16.9,-1,Correct Rejection,0.368144900072,False,-1,stimulus_DIAN07_Yes-No Task_2019_Jun_13_1636_58,-1,False,2019_Jun_13_1636,Yes-No Task,2,DIAN07,
Yes-No Task,58,0,58,0,16.9,-1,Correct Rejection,0.400747600012,False,-1,stimulus_DIAN07_Yes-No Task_2019_Jun_13_1636_59,-1,False,2019_Jun_13_1636,Yes-No Task,2,DIAN07,
Yes-No Task,59,0,59,0,16.9,-1,Miss,0.3018089002,True,-1,stimulus_DIAN07_Yes-No Task_2019_Jun_13_1636_60,-1,False,2019_Jun_13_1636,Yes-No Task,2,DIAN07,
Yes-No Task,60,0,60,0,16.9,-1,Correct Rejection,0.501969999867,False,-1,stimulus_DIAN07_Yes-No Task_2019_Jun_13_1636_61,-1,False,2019_Jun_13_1636,Yes-No Task,2,DIAN07,
Yes-No Task,61,0,61,0,16.9,-1,Correct Rejection,0.467160200002,False,-1,stimulus_DIAN07_Yes-No Task_2019_Jun_13_1636_62,-1,False,2019_Jun_13_1636,Yes-No Task,2,DIAN07,
Yes-No Task,62,0,62,0,16.9,-1,Hit,0.433630200103,True,-1,stimulus_DIAN07_Yes-No Task_2019_Jun_13_1636_63,-1,False,2019_Jun_13_1636,Yes-No Task,2,DIAN07,
Yes-No Task,63,0,63,0,16.9,-1,Correct Rejection,0.432355999947,False,-1,stimulus_DIAN07_Yes-No Task_2019_Jun_13_1636_64,-1,False,2019_Jun_13_1636,Yes-No Task,2,DIAN07,
Yes-No Task,64,0,64,0,16.9,-1,Hit,0.466524899937,True,-1,stimulus_DIAN07_Yes-No Task_2019_Jun_13_1636_65,-1,False,2019_Jun_13_1636,Yes-No Task,2,DIAN07,
Yes-No Task,65,0,65,0,16.9,-1,Correct Rejection,0.50074649998,False,-1,stimulus_DIAN07_Yes-No Task_2019_Jun_13_1636_66,-1,False,2019_Jun_13_1636,Yes-No Task,2,DIAN07,
Yes-No Task,66,0,66,0,16.9,-1,Correct Rejection,0.433640700066,False,-1,stimulus_DIAN07_Yes-No Task_2019_Jun_13_1636_67,-1,False,2019_Jun_13_1636,Yes-No Task,2,DIAN07,
Yes-No Task,67,0,67,0,16.9,-1,Hit,0.400461599929,True,-1,stimulus_DIAN07_Yes-No Task_2019_Jun_13_1636_68,-1,False,2019_Jun_13_1636,Yes-No Task,2,DIAN07,
Yes-No Task,68,0,68,0,16.9,-1,Correct Rejection,0.401633900125,False,-1,stimulus_DIAN07_Yes-No Task_2019_Jun_13_1636_69,-1,False,2019_Jun_13_1636,Yes-No Task,2,DIAN07,
Yes-No Task,69,0,69,0,16.9,-1,Hit,0.433223700151,True,-1,stimulus_DIAN07_Yes-No Task_2019_Jun_13_1636_70,-1,False,2019_Jun_13_1636,Yes-No Task,2,DIAN07,
Yes-No Task,70,0,70,0,16.9,-1,Correct Rejection,0.500393799972,False,-1,stimulus_DIAN07_Yes-No Task_2019_Jun_13_1636_71,-1,False,2019_Jun_13_1636,Yes-No Task,2,DIAN07,
Yes-No Task,71,0,71,0,16.9,-1,Hit,0.401687799953,True,-1,stimulus_DIAN07_Yes-No Task_2019_Jun_13_1636_72,-1,False,2019_Jun_13_1636,Yes-No Task,2,DIAN07,
Yes-No Task,72,0,72,0,16.9,-1,Correct Rejection,0.466243400006,False,-1,stimulus_DIAN07_Yes-No Task_2019_Jun_13_1636_73,-1,False,2019_Jun_13_1636,Yes-No Task,2,DIAN07,
Yes-No Task,73,0,73,0,16.9,-1,Correct Rejection,0.400231699925,False,-1,stimulus_DIAN07_Yes-No Task_2019_Jun_13_1636_74,-1,False,2019_Jun_13_1636,Yes-No Task,2,DIAN07,
Yes-No Task,74,0,74,0,16.9,-1,Correct Rejection,0.36650949996,False,-1,stimulus_DIAN07_Yes-No Task_2019_Jun_13_1636_75,-1,False,2019_Jun_13_1636,Yes-No Task,2,DIAN07,
Yes-No Task,0,0,0,0,15.3,-1,Correct Rejection,0.500670900103,False,-1,stimulus_DIAN07_Yes-No Task_2019_Jun_13_1636_76,-1,False,2019_Jun_13_1636,Yes-No Task,2,DIAN07,
Yes-No Task,1,0,1,0,15.3,-1,Correct Rejection,0.401511200005,False,-1,stimulus_DIAN07_Yes-No Task_2019_Jun_13_1636_77,-1,False,2019_Jun_13_1636,Yes-No Task,2,DIAN07,
Yes-No Task,2,0,2,0,15.3,-1,Miss,0.4003639,True,-1,stimulus_DIAN07_Yes-No Task_2019_Jun_13_1636_78,-1,False,2019_Jun_13_1636,Yes-No Task,2,DIAN07,
Yes-No Task,3,0,3,0,15.3,-1,Correct Rejection,0.400595100131,False,-1,stimulus_DIAN07_Yes-No Task_2019_Jun_13_1636_79,-1,False,2019_Jun_13_1636,Yes-No Task,2,DIAN07,
Yes-No Task,4,0,4,0,15.3,-1,Miss,0.401154200081,True,-1,stimulus_DIAN07_Yes-No Task_2019_Jun_13_1636_80,-1,False,2019_Jun_13_1636,Yes-No Task,2,DIAN07,
Yes-No Task,5,0,5,0,15.3,-1,Hit,0.366785299964,True,-1,stimulus_DIAN07_Yes-No Task_2019_Jun_13_1636_81,-1,False,2019_Jun_13_1636,Yes-No Task,2,DIAN07,
Yes-No Task,6,0,6,0,15.3,-1,Correct Rejection,0.401731100166,False,-1,stimulus_DIAN07_Yes-No Task_2019_Jun_13_1636_82,-1,False,2019_Jun_13_1636,Yes-No Task,2,DIAN07,
Yes-No Task,7,0,7,0,15.3,-1,Correct Rejection,0.433637300041,False,-1,stimulus_DIAN07_Yes-No Task_2019_Jun_13_1636_83,-1,False,2019_Jun_13_1636,Yes-No Task,2,DIAN07,
Yes-No Task,8,0,8,0,15.3,-1,Correct Rejection,0.366897,False,-1,stimulus_DIAN07_Yes-No Task_2019_Jun_13_1636_84,-1,False,2019_Jun_13_1636,Yes-No Task,2,DIAN07,
Yes-No Task,9,0,9,0,15.3,-1,Hit,0.401414599968,True,-1,stimulus_DIAN07_Yes-No Task_2019_Jun_13_1636_85,-1,False,2019_Jun_13_1636,Yes-No Task,2,DIAN07,
Yes-No Task,10,0,10,0,15.3,-1,Correct Rejection,0.366318500135,False,-1,stimulus_DIAN07_Yes-No Task_2019_Jun_13_1636_86,-1,False,2019_Jun_13_1636,Yes-No Task,2,DIAN07,
Yes-No Task,11,0,11,0,15.3,-1,Correct Rejection,0.40035989997,False,-1,stimulus_DIAN07_Yes-No Task_2019_Jun_13_1636_87,-1,False,2019_Jun_13_1636,Yes-No Task,2,DIAN07,
Yes-No Task,12,0,12,0,15.3,-1,Hit,0.467139400076,True,-1,stimulus_DIAN07_Yes-No Task_2019_Jun_13_1636_88,-1,False,2019_Jun_13_1636,Yes-No Task,2,DIAN07,
Yes-No Task,13,0,13,0,15.3,-1,Miss,0.367090099957,True,-1,stimulus_DIAN07_Yes-No Task_2019_Jun_13_1636_89,-1,False,2019_Jun_13_1636,Yes-No Task,2,DIAN07,
Yes-No Task,14,0,14,0,15.3,-1,Hit,0.433500300162,True,-1,stimulus_DIAN07_Yes-No Task_2019_Jun_13_1636_90,-1,False,2019_Jun_13_1636,Yes-No Task,2,DIAN07,
Yes-No Task,15,0,15,0,15.3,-1,Correct Rejection,0.400610600132,False,-1,stimulus_DIAN07_Yes-No Task_2019_Jun_13_1636_91,-1,False,2019_Jun_13_1636,Yes-No Task,2,DIAN07,
Yes-No Task,16,0,16,0,15.3,-1,Correct Rejection,0.499890699983,False,-1,stimulus_DIAN07_Yes-No Task_2019_Jun_13_1636_92,-1,False,2019_Jun_13_1636,Yes-No Task,2,DIAN07,
Yes-No Task,17,0,17,0,15.3,-1,Hit,0.367218800122,True,-1,stimulus_DIAN07_Yes-No Task_2019_Jun_13_1636_93,-1,False,2019_Jun_13_1636,Yes-No Task,2,DIAN07,
Yes-No Task,18,0,18,0,15.3,-1,Correct Rejection,0.46640600008,False,-1,stimulus_DIAN07_Yes-No Task_2019_Jun_13_1636_94,-1,False,2019_Jun_13_1636,Yes-No Task,2,DIAN07,
Yes-No Task,19,0,19,0,15.3,-1,Hit,0.367656300077,True,-1,stimulus_DIAN07_Yes-No Task_2019_Jun_13_1636_95,-1,False,2019_Jun_13_1636,Yes-No Task,2,DIAN07,
Yes-No Task,20,0,20,0,15.3,-1,Hit,0.435361299897,True,-1,stimulus_DIAN07_Yes-No Task_2019_Jun_13_1636_96,-1,False,2019_Jun_13_1636,Yes-No Task,2,DIAN07,
Yes-No Task,21,0,21,0,15.3,-1,Hit,0.399521500105,True,-1,stimulus_DIAN07_Yes-No Task_2019_Jun_13_1636_97,-1,False,2019_Jun_13_1636,Yes-No Task,2,DIAN07,
Yes-No Task,22,0,22,0,15.3,-1,Hit,0.367536300095,True,-1,stimulus_DIAN07_Yes-No Task_2019_Jun_13_1636_98,-1,False,2019_Jun_13_1636,Yes-No Task,2,DIAN07,
Yes-No Task,23,0,23,0,15.3,-1,Correct Rejection,0.43360980018,False,-1,stimulus_DIAN07_Yes-No Task_2019_Jun_13_1636_99,-1,False,2019_Jun_13_1636,Yes-No Task,2,DIAN07,
Yes-No Task,24,0,24,0,15.3,-1,Correct Rejection,0.46647590003,False,-1,stimulus_DIAN07_Yes-No Task_2019_Jun_13_1636_100,-1,False,2019_Jun_13_1636,Yes-No Task,2,DIAN07,
Yes-No Task,25,0,25,0,15.3,-1,Hit,0.40040370007,True,-1,stimulus_DIAN07_Yes-No Task_2019_Jun_13_1636_101,-1,False,2019_Jun_13_1636,Yes-No Task,2,DIAN07,
Yes-No Task,26,0,26,0,15.3,-1,Correct Rejection,0.500680899946,False,-1,stimulus_DIAN07_Yes-No Task_2019_Jun_13_1636_102,-1,False,2019_Jun_13_1636,Yes-No Task,2,DIAN07,
Yes-No Task,27,0,27,0,15.3,-1,Hit,0.401054200018,True,-1,stimulus_DIAN07_Yes-No Task_2019_Jun_13_1636_103,-1,False,2019_Jun_13_1636,Yes-No Task,2,DIAN07,
Yes-No Task,28,0,28,0,15.3,-1,Hit,0.502301600063,True,-1,stimulus_DIAN07_Yes-No Task_2019_Jun_13_1636_104,-1,False,2019_Jun_13_1636,Yes-No Task,2,DIAN07,
Yes-No Task,29,0,29,0,15.3,-1,Hit,0.333956800168,True,-1,stimulus_DIAN07_Yes-No Task_2019_Jun_13_1636_105,-1,False,2019_Jun_13_1636,Yes-No Task,2,DIAN07,
Yes-No Task,30,0,30,0,15.3,-1,Hit,0.366810899926,True,-1,stimulus_DIAN07_Yes-No Task_2019_Jun_13_1636_106,-1,False,2019_Jun_13_1636,Yes-No Task,2,DIAN07,
Yes-No Task,31,0,31,0,15.3,-1,Hit,0.367427399848,True,-1,stimulus_DIAN07_Yes-No Task_2019_Jun_13_1636_107,-1,False,2019_Jun_13_1636,Yes-No Task,2,DIAN07,
Yes-No Task,32,0,32,0,15.3,-1,Hit,0.399687499972,True,-1,stimulus_DIAN07_Yes-No Task_2019_Jun_13_1636_108,-1,False,2019_Jun_13_1636,Yes-No Task,2,DIAN07,
Yes-No Task,33,0,33,0,15.3,-1,Correct Rejection,0.435087300139,False,-1,stimulus_DIAN07_Yes-No Task_2019_Jun_13_1636_109,-1,False,2019_Jun_13_1636,Yes-No Task,2,DIAN07,
Yes-No Task,34,0,34,0,15.3,-1,Correct Rejection,0.433365899837,False,-1,stimulus_DIAN07_Yes-No Task_2019_Jun_13_1636_110,-1,False,2019_Jun_13_1636,Yes-No Task,2,DIAN07,
Yes-No Task,35,0,35,0,15.3,-1,Correct Rejection,0.534330500057,False,-1,stimulus_DIAN07_Yes-No Task_2019_Jun_13_1636_111,-1,False,2019_Jun_13_1636,Yes-No Task,2,DIAN07,
Yes-No Task,36,0,36,0,15.3,-1,Correct Rejection,0.400518599898,False,-1,stimulus_DIAN07_Yes-No Task_2019_Jun_13_1636_112,-1,False,2019_Jun_13_1636,Yes-No Task,2,DIAN07,
Yes-No Task,37,0,37,0,15.3,-1,Correct Rejection,0.400277400156,False,-1,stimulus_DIAN07_Yes-No Task_2019_Jun_13_1636_113,-1,False,2019_Jun_13_1636,Yes-No Task,2,DIAN07,
Yes-No Task,38,0,38,0,15.3,-1,Hit,0.434747199994,True,-1,stimulus_DIAN07_Yes-No Task_2019_Jun_13_1636_114,-1,False,2019_Jun_13_1636,Yes-No Task,2,DIAN07,
Yes-No Task,39,0,39,0,15.3,-1,Correct Rejection,0.401032200083,False,-1,stimulus_DIAN07_Yes-No Task_2019_Jun_13_1636_115,-1,False,2019_Jun_13_1636,Yes-No Task,2,DIAN07,
Yes-No Task,40,0,40,0,15.3,-1,Correct Rejection,0.434766999912,False,-1,stimulus_DIAN07_Yes-No Task_2019_Jun_13_1636_116,-1,False,2019_Jun_13_1636,Yes-No Task,2,DIAN07,
Yes-No Task,41,0,41,0,15.3,-1,Correct Rejection,0.36748359981,False,-1,stimulus_DIAN07_Yes-No Task_2019_Jun_13_1636_117,-1,False,2019_Jun_13_1636,Yes-No Task,2,DIAN07,
Yes-No Task,42,0,42,0,15.3,-1,Hit,0.467384800082,True,-1,stimulus_DIAN07_Yes-No Task_2019_Jun_13_1636_118,-1,False,2019_Jun_13_1636,Yes-No Task,2,DIAN07,
Yes-No Task,43,0,43,0,15.3,-1,Hit,0.53381149983,True,-1,stimulus_DIAN07_Yes-No Task_2019_Jun_13_1636_119,-1,False,2019_Jun_13_1636,Yes-No Task,2,DIAN07,
Yes-No Task,44,0,44,0,15.3,-1,Correct Rejection,0.367206499912,False,-1,stimulus_DIAN07_Yes-No Task_2019_Jun_13_1636_120,-1,False,2019_Jun_13_1636,Yes-No Task,2,DIAN07,
Yes-No Task,45,0,45,0,15.3,-1,Hit,0.433476099977,True,-1,stimulus_DIAN07_Yes-No Task_2019_Jun_13_1636_121,-1,False,2019_Jun_13_1636,Yes-No Task,2,DIAN07,
Yes-No Task,46,0,46,0,15.3,-1,Correct Rejection,0.433673700085,False,-1,stimulus_DIAN07_Yes-No Task_2019_Jun_13_1636_122,-1,False,2019_Jun_13_1636,Yes-No Task,2,DIAN07,
Yes-No Task,47,0,47,0,15.3,-1,Correct Rejection,0.399929000065,False,-1,stimulus_DIAN07_Yes-No Task_2019_Jun_13_1636_123,-1,False,2019_Jun_13_1636,Yes-No Task,2,DIAN07,
Yes-No Task,48,0,48,0,15.3,-1,Correct Rejection,0.364268300124,False,-1,stimulus_DIAN07_Yes-No Task_2019_Jun_13_1636_124,-1,False,2019_Jun_13_1636,Yes-No Task,2,DIAN07,
Yes-No Task,49,0,49,0,15.3,-1,Hit,0.433576700045,True,-1,stimulus_DIAN07_Yes-No Task_2019_Jun_13_1636_125,-1,False,2019_Jun_13_1636,Yes-No Task,2,DIAN07,
Yes-No Task,50,0,50,0,15.3,-1,Hit,0.400316700106,True,-1,stimulus_DIAN07_Yes-No Task_2019_Jun_13_1636_126,-1,False,2019_Jun_13_1636,Yes-No Task,2,DIAN07,
Yes-No Task,51,0,51,0,15.3,-1,Correct Rejection,0.433332800167,False,-1,stimulus_DIAN07_Yes-No Task_2019_Jun_13_1636_127,-1,False,2019_Jun_13_1636,Yes-No Task,2,DIAN07,
Yes-No Task,52,0,52,0,15.3,-1,Correct Rejection,0.367248499999,False,-1,stimulus_DIAN07_Yes-No Task_2019_Jun_13_1636_128,-1,False,2019_Jun_13_1636,Yes-No Task,2,DIAN07,
Yes-No Task,53,0,53,0,15.3,-1,Hit,0.400646999944,True,-1,stimulus_DIAN07_Yes-No Task_2019_Jun_13_1636_129,-1,False,2019_Jun_13_1636,Yes-No Task,2,DIAN07,
Yes-No Task,54,0,54,0,15.3,-1,Correct Rejection,0.36818209989,False,-1,stimulus_DIAN07_Yes-No Task_2019_Jun_13_1636_130,-1,False,2019_Jun_13_1636,Yes-No Task,2,DIAN07,
Yes-No Task,55,0,55,0,15.3,-1,Hit,0.435275200056,True,-1,stimulus_DIAN07_Yes-No Task_2019_Jun_13_1636_131,-1,False,2019_Jun_13_1636,Yes-No Task,2,DIAN07,
Yes-No Task,56,0,56,0,15.3,-1,Hit,0.500655699987,True,-1,stimulus_DIAN07_Yes-No Task_2019_Jun_13_1636_132,-1,False,2019_Jun_13_1636,Yes-No Task,2,DIAN07,
Yes-No Task,57,0,57,0,15.3,-1,Correct Rejection,0.400354400044,False,-1,stimulus_DIAN07_Yes-No Task_2019_Jun_13_1636_133,-1,False,2019_Jun_13_1636,Yes-No Task,2,DIAN07,
Yes-No Task,58,0,58,0,15.3,-1,Hit,0.467937499983,True,-1,stimulus_DIAN07_Yes-No Task_2019_Jun_13_1636_134,-1,False,2019_Jun_13_1636,Yes-No Task,2,DIAN07,
Yes-No Task,59,0,59,0,15.3,-1,Hit,0.367305600084,True,-1,stimulus_DIAN07_Yes-No Task_2019_Jun_13_1636_135,-1,False,2019_Jun_13_1636,Yes-No Task,2,DIAN07,
Yes-No Task,60,0,60,0,15.3,-1,Hit,0.367400000105,True,-1,stimulus_DIAN07_Yes-No Task_2019_Jun_13_1636_136,-1,False,2019_Jun_13_1636,Yes-No Task,2,DIAN07,
Yes-No Task,61,0,61,0,15.3,-1,Hit,0.36709309998,True,-1,stimulus_DIAN07_Yes-No Task_2019_Jun_13_1636_137,-1,False,2019_Jun_13_1636,Yes-No Task,2,DIAN07,
Yes-No Task,62,0,62,0,15.3,-1,Correct Rejection,0.501466999995,False,-1,stimulus_DIAN07_Yes-No Task_2019_Jun_13_1636_138,-1,False,2019_Jun_13_1636,Yes-No Task,2,DIAN07,
Yes-No Task,63,0,63,0,15.3,-1,Correct Rejection,0.367974200053,False,-1,stimulus_DIAN07_Yes-No Task_2019_Jun_13_1636_139,-1,False,2019_Jun_13_1636,Yes-No Task,2,DIAN07,
Yes-No Task,64,0,64,0,15.3,-1,Hit,0.432723599952,True,-1,stimulus_DIAN07_Yes-No Task_2019_Jun_13_1636_140,-1,False,2019_Jun_13_1636,Yes-No Task,2,DIAN07,
Yes-No Task,65,0,65,0,15.3,-1,Hit,0.468533300096,True,-1,stimulus_DIAN07_Yes-No Task_2019_Jun_13_1636_141,-1,False,2019_Jun_13_1636,Yes-No Task,2,DIAN07,
Yes-No Task,66,0,66,0,15.3,-1,Correct Rejection,0.399961399846,False,-1,stimulus_DIAN07_Yes-No Task_2019_Jun_13_1636_142,-1,False,2019_Jun_13_1636,Yes-No Task,2,DIAN07,
Yes-No Task,67,0,67,0,15.3,-1,Hit,0.434073799988,True,-1,stimulus_DIAN07_Yes-No Task_2019_Jun_13_1636_143,-1,False,2019_Jun_13_1636,Yes-No Task,2,DIAN07,
Yes-No Task,68,0,68,0,15.3,-1,Correct Rejection,0.400376199977,False,-1,stimulus_DIAN07_Yes-No Task_2019_Jun_13_1636_144,-1,False,2019_Jun_13_1636,Yes-No Task,2,DIAN07,
Yes-No Task,69,0,69,0,15.3,-1,Correct Rejection,0.30027300003,False,-1,stimulus_DIAN07_Yes-No Task_2019_Jun_13_1636_145,-1,False,2019_Jun_13_1636,Yes-No Task,2,DIAN07,
Yes-No Task,70,0,70,0,15.3,-1,Hit,0.399211200187,True,-1,stimulus_DIAN07_Yes-No Task_2019_Jun_13_1636_146,-1,False,2019_Jun_13_1636,Yes-No Task,2,DIAN07,
Yes-No Task,71,0,71,0,15.3,-1,Correct Rejection,0.367281200131,False,-1,stimulus_DIAN07_Yes-No Task_2019_Jun_13_1636_147,-1,False,2019_Jun_13_1636,Yes-No Task,2,DIAN07,
Yes-No Task,72,0,72,0,15.3,-1,Correct Rejection,0.367186399875,False,-1,stimulus_DIAN07_Yes-No Task_2019_Jun_13_1636_148,-1,False,2019_Jun_13_1636,Yes-No Task,2,DIAN07,
Yes-No Task,73,0,73,0,15.3,-1,Hit,0.433818200137,True,-1,stimulus_DIAN07_Yes-No Task_2019_Jun_13_1636_149,-1,False,2019_Jun_13_1636,Yes-No Task,2,DIAN07,
Yes-No Task,74,0,74,0,15.3,-1,Correct Rejection,0.368285200093,False,-1,stimulus_DIAN07_Yes-No Task_2019_Jun_13_1636_150,-1,False,2019_Jun_13_1636,Yes-No Task,2,DIAN07,
Yes-No Task,0,0,0,0,11.2,-1,Miss,0.400458899792,True,-1,stimulus_DIAN07_Yes-No Task_2019_Jun_13_1636_151,-1,False,2019_Jun_13_1636,Yes-No Task,2,DIAN07,
Yes-No Task,1,0,1,0,11.2,-1,Hit,0.601034300169,True,-1,stimulus_DIAN07_Yes-No Task_2019_Jun_13_1636_152,-1,False,2019_Jun_13_1636,Yes-No Task,2,DIAN07,
Yes-No Task,2,0,2,0,11.2,-1,Correct Rejection,0.467778100166,False,-1,stimulus_DIAN07_Yes-No Task_2019_Jun_13_1636_153,-1,False,2019_Jun_13_1636,Yes-No Task,2,DIAN07,
Yes-No Task,3,0,3,0,11.2,-1,Miss,0.400162100093,True,-1,stimulus_DIAN07_Yes-No Task_2019_Jun_13_1636_154,-1,False,2019_Jun_13_1636,Yes-No Task,2,DIAN07,
Yes-No Task,4,0,4,0,11.2,-1,Correct Rejection,0.400376300095,False,-1,stimulus_DIAN07_Yes-No Task_2019_Jun_13_1636_155,-1,False,2019_Jun_13_1636,Yes-No Task,2,DIAN07,
Yes-No Task,5,0,5,0,11.2,-1,Correct Rejection,0.434801200172,False,-1,stimulus_DIAN07_Yes-No Task_2019_Jun_13_1636_156,-1,False,2019_Jun_13_1636,Yes-No Task,2,DIAN07,
Yes-No Task,6,0,6,0,11.2,-1,Miss,0.366901899921,True,-1,stimulus_DIAN07_Yes-No Task_2019_Jun_13_1636_157,-1,False,2019_Jun_13_1636,Yes-No Task,2,DIAN07,
Yes-No Task,7,0,7,0,11.2,-1,Correct Rejection,0.500568600139,False,-1,stimulus_DIAN07_Yes-No Task_2019_Jun_13_1636_158,-1,False,2019_Jun_13_1636,Yes-No Task,2,DIAN07,
Yes-No Task,8,0,8,0,11.2,-1,Correct Rejection,0.365536900004,False,-1,stimulus_DIAN07_Yes-No Task_2019_Jun_13_1636_159,-1,False,2019_Jun_13_1636,Yes-No Task,2,DIAN07,
Yes-No Task,9,0,9,0,11.2,-1,Correct Rejection,0.400335199898,False,-1,stimulus_DIAN07_Yes-No Task_2019_Jun_13_1636_160,-1,False,2019_Jun_13_1636,Yes-No Task,2,DIAN07,
Yes-No Task,10,0,10,0,11.2,-1,Correct Rejection,0.4657381,False,-1,stimulus_DIAN07_Yes-No Task_2019_Jun_13_1636_161,-1,False,2019_Jun_13_1636,Yes-No Task,2,DIAN07,
Yes-No Task,11,0,11,0,11.2,-1,Correct Rejection,0.368766899919,False,-1,stimulus_DIAN07_Yes-No Task_2019_Jun_13_1636_162,-1,False,2019_Jun_13_1636,Yes-No Task,2,DIAN07,
Yes-No Task,12,0,12,0,11.2,-1,Correct Rejection,0.400487800129,False,-1,stimulus_DIAN07_Yes-No Task_2019_Jun_13_1636_163,-1,False,2019_Jun_13_1636,Yes-No Task,2,DIAN07,
Yes-No Task,13,0,13,0,11.2,-1,Correct Rejection,0.367235200014,False,-1,stimulus_DIAN07_Yes-No Task_2019_Jun_13_1636_164,-1,False,2019_Jun_13_1636,Yes-No Task,2,DIAN07,
Yes-No Task,14,0,14,0,11.2,-1,Correct Rejection,0.333877099911,False,-1,stimulus_DIAN07_Yes-No Task_2019_Jun_13_1636_165,-1,False,2019_Jun_13_1636,Yes-No Task,2,DIAN07,
Yes-No Task,15,0,15,0,11.2,-1,Miss,0.367866100045,True,-1,stimulus_DIAN07_Yes-No Task_2019_Jun_13_1636_166,-1,False,2019_Jun_13_1636,Yes-No Task,2,DIAN07,
Yes-No Task,16,0,16,0,11.2,-1,Hit,0.46638499992,True,-1,stimulus_DIAN07_Yes-No Task_2019_Jun_13_1636_167,-1,False,2019_Jun_13_1636,Yes-No Task,2,DIAN07,
Yes-No Task,17,0,17,0,11.2,-1,Hit,0.43434139993,True,-1,stimulus_DIAN07_Yes-No Task_2019_Jun_13_1636_168,-1,False,2019_Jun_13_1636,Yes-No Task,2,DIAN07,
Yes-No Task,18,0,18,0,11.2,-1,Correct Rejection,0.533918299945,False,-1,stimulus_DIAN07_Yes-No Task_2019_Jun_13_1636_169,-1,False,2019_Jun_13_1636,Yes-No Task,2,DIAN07,
Yes-No Task,19,0,19,0,11.2,-1,Miss,0.601817900082,True,-1,stimulus_DIAN07_Yes-No Task_2019_Jun_13_1636_170,-1,False,2019_Jun_13_1636,Yes-No Task,2,DIAN07,
Yes-No Task,20,0,20,0,11.2,-1,Hit,0.80018609995,True,-1,stimulus_DIAN07_Yes-No Task_2019_Jun_13_1636_171,-1,False,2019_Jun_13_1636,Yes-No Task,2,DIAN07,
Yes-No Task,21,0,21,0,11.2,-1,Hit,0.400667299982,True,-1,stimulus_DIAN07_Yes-No Task_2019_Jun_13_1636_172,-1,False,2019_Jun_13_1636,Yes-No Task,2,DIAN07,
Yes-No Task,22,0,22,0,11.2,-1,Correct Rejection,0.499219600111,False,-1,stimulus_DIAN07_Yes-No Task_2019_Jun_13_1636_173,-1,False,2019_Jun_13_1636,Yes-No Task,2,DIAN07,
Yes-No Task,23,0,23,0,11.2,-1,Hit,0.436643099878,True,-1,stimulus_DIAN07_Yes-No Task_2019_Jun_13_1636_174,-1,False,2019_Jun_13_1636,Yes-No Task,2,DIAN07,
Yes-No Task,24,0,24,0,11.2,-1,Correct Rejection,0.333791900193,False,-1,stimulus_DIAN07_Yes-No Task_2019_Jun_13_1636_175,-1,False,2019_Jun_13_1636,Yes-No Task,2,DIAN07,
Yes-No Task,25,0,25,0,11.2,-1,Correct Rejection,0.400514399866,False,-1,stimulus_DIAN07_Yes-No Task_2019_Jun_13_1636_176,-1,False,2019_Jun_13_1636,Yes-No Task,2,DIAN07,
Yes-No Task,26,0,26,0,11.2,-1,Hit,0.467892999994,True,-1,stimulus_DIAN07_Yes-No Task_2019_Jun_13_1636_177,-1,False,2019_Jun_13_1636,Yes-No Task,2,DIAN07,
Yes-No Task,27,0,27,0,11.2,-1,Miss,0.366469400004,True,-1,stimulus_DIAN07_Yes-No Task_2019_Jun_13_1636_178,-1,False,2019_Jun_13_1636,Yes-No Task,2,DIAN07,
Yes-No Task,28,0,28,0,11.2,-1,Hit,0.335570999887,True,-1,stimulus_DIAN07_Yes-No Task_2019_Jun_13_1636_179,-1,False,2019_Jun_13_1636,Yes-No Task,2,DIAN07,
Yes-No Task,29,0,29,0,11.2,-1,Hit,0.266128400108,True,-1,stimulus_DIAN07_Yes-No Task_2019_Jun_13_1636_180,-1,False,2019_Jun_13_1636,Yes-No Task,2,DIAN07,
Yes-No Task,30,0,30,0,11.2,-1,False Alarm,0.300179299898,False,-1,stimulus_DIAN07_Yes-No Task_2019_Jun_13_1636_181,-1,False,2019_Jun_13_1636,Yes-No Task,2,DIAN07,
Yes-No Task,31,0,31,0,11.2,-1,False Alarm,0.334098299965,False,-1,stimulus_DIAN07_Yes-No Task_2019_Jun_13_1636_182,-1,False,2019_Jun_13_1636,Yes-No Task,2,DIAN07,
Yes-No Task,32,0,32,0,11.2,-1,Miss,0.232638799818,True,-1,stimulus_DIAN07_Yes-No Task_2019_Jun_13_1636_183,-1,False,2019_Jun_13_1636,Yes-No Task,2,DIAN07,
Yes-No Task,33,0,33,0,11.2,-1,Miss,0.267728299834,True,-1,stimulus_DIAN07_Yes-No Task_2019_Jun_13_1636_184,-1,False,2019_Jun_13_1636,Yes-No Task,2,DIAN07,
Yes-No Task,34,0,34,0,11.2,-1,Miss,0.234206499998,True,-1,stimulus_DIAN07_Yes-No Task_2019_Jun_13_1636_185,-1,False,2019_Jun_13_1636,Yes-No Task,2,DIAN07,
Yes-No Task,35,0,35,0,11.2,-1,Miss,0.301359199919,True,-1,stimulus_DIAN07_Yes-No Task_2019_Jun_13_1636_186,-1,False,2019_Jun_13_1636,Yes-No Task,2,DIAN07,
Yes-No Task,36,0,36,0,11.2,-1,Correct Rejection,0.265977100004,False,-1,stimulus_DIAN07_Yes-No Task_2019_Jun_13_1636_187,-1,False,2019_Jun_13_1636,Yes-No Task,2,DIAN07,
Yes-No Task,37,0,37,0,11.2,-1,Hit,0.600530599942,True,-1,stimulus_DIAN07_Yes-No Task_2019_Jun_13_1636_188,-1,False,2019_Jun_13_1636,Yes-No Task,2,DIAN07,
Yes-No Task,38,0,38,0,11.2,-1,Correct Rejection,0.368159899954,False,-1,stimulus_DIAN07_Yes-No Task_2019_Jun_13_1636_189,-1,False,2019_Jun_13_1636,Yes-No Task,2,DIAN07,
Yes-No Task,39,0,39,0,11.2,-1,Correct Rejection,0.500788499834,False,-1,stimulus_DIAN07_Yes-No Task_2019_Jun_13_1636_190,-1,False,2019_Jun_13_1636,Yes-No Task,2,DIAN07,
Yes-No Task,40,0,40,0,11.2,-1,False Alarm,0.534107599873,False,-1,stimulus_DIAN07_Yes-No Task_2019_Jun_13_1636_191,-1,False,2019_Jun_13_1636,Yes-No Task,2,DIAN07,
Yes-No Task,41,0,41,0,11.2,-1,Miss,0.399636700051,True,-1,stimulus_DIAN07_Yes-No Task_2019_Jun_13_1636_192,-1,False,2019_Jun_13_1636,Yes-No Task,2,DIAN07,
Yes-No Task,42,0,42,0,11.2,-1,False Alarm,0.601169999922,False,-1,stimulus_DIAN07_Yes-No Task_2019_Jun_13_1636_193,-1,False,2019_Jun_13_1636,Yes-No Task,2,DIAN07,
Yes-No Task,43,0,43,0,11.2,-1,Correct Rejection,0.602754399879,False,-1,stimulus_DIAN07_Yes-No Task_2019_Jun_13_1636_194,-1,False,2019_Jun_13_1636,Yes-No Task,2,DIAN07,
Yes-No Task,44,0,44,0,11.2,-1,Miss,0.334143399959,True,-1,stimulus_DIAN07_Yes-No Task_2019_Jun_13_1636_195,-1,False,2019_Jun_13_1636,Yes-No Task,2,DIAN07,
Yes-No Task,45,0,45,0,11.2,-1,Correct Rejection,0.500770500163,False,-1,stimulus_DIAN07_Yes-No Task_2019_Jun_13_1636_196,-1,False,2019_Jun_13_1636,Yes-No Task,2,DIAN07,
Yes-No Task,46,0,46,0,11.2,-1,Hit,0.500854599988,True,-1,stimulus_DIAN07_Yes-No Task_2019_Jun_13_1636_197,-1,False,2019_Jun_13_1636,Yes-No Task,2,DIAN07,
Yes-No Task,47,0,47,0,11.2,-1,Correct Rejection,0.533603999997,False,-1,stimulus_DIAN07_Yes-No Task_2019_Jun_13_1636_198,-1,False,2019_Jun_13_1636,Yes-No Task,2,DIAN07,
Yes-No Task,48,0,48,0,11.2,-1,Hit,0.633952299831,True,-1,stimulus_DIAN07_Yes-No Task_2019_Jun_13_1636_199,-1,False,2019_Jun_13_1636,Yes-No Task,2,DIAN07,
Yes-No Task,49,0,49,0,11.2,-1,Hit,0.567437299993,True,-1,stimulus_DIAN07_Yes-No Task_2019_Jun_13_1636_200,-1,False,2019_Jun_13_1636,Yes-No Task,2,DIAN07,
Yes-No Task,50,0,50,0,11.2,-1,Correct Rejection,0.600807199953,False,-1,stimulus_DIAN07_Yes-No Task_2019_Jun_13_1636_201,-1,False,2019_Jun_13_1636,Yes-No Task,2,DIAN07,
Yes-No Task,51,0,51,0,11.2,-1,Miss,0.43390449998,True,-1,stimulus_DIAN07_Yes-No Task_2019_Jun_13_1636_202,-1,False,2019_Jun_13_1636,Yes-No Task,2,DIAN07,
Yes-No Task,52,0,52,0,11.2,-1,Hit,0.500472400105,True,-1,stimulus_DIAN07_Yes-No Task_2019_Jun_13_1636_203,-1,False,2019_Jun_13_1636,Yes-No Task,2,DIAN07,
Yes-No Task,53,0,53,0,11.2,-1,Correct Rejection,0.634485600051,False,-1,stimulus_DIAN07_Yes-No Task_2019_Jun_13_1636_204,-1,False,2019_Jun_13_1636,Yes-No Task,2,DIAN07,
Yes-No Task,54,0,54,0,11.2,-1,Correct Rejection,0.600631499896,False,-1,stimulus_DIAN07_Yes-No Task_2019_Jun_13_1636_205,-1,False,2019_Jun_13_1636,Yes-No Task,2,DIAN07,
Yes-No Task,55,0,55,0,11.2,-1,Hit,0.567611000035,True,-1,stimulus_DIAN07_Yes-No Task_2019_Jun_13_1636_206,-1,False,2019_Jun_13_1636,Yes-No Task,2,DIAN07,
Yes-No Task,56,0,56,0,11.2,-1,Hit,0.467405400006,True,-1,stimulus_DIAN07_Yes-No Task_2019_Jun_13_1636_207,-1,False,2019_Jun_13_1636,Yes-No Task,2,DIAN07,
Yes-No Task,57,0,57,0,11.2,-1,Correct Rejection,0.400641100015,False,-1,stimulus_DIAN07_Yes-No Task_2019_Jun_13_1636_208,-1,False,2019_Jun_13_1636,Yes-No Task,2,DIAN07,
Yes-No Task,58,0,58,0,11.2,-1,Hit,0.46671129996,True,-1,stimulus_DIAN07_Yes-No Task_2019_Jun_13_1636_209,-1,False,2019_Jun_13_1636,Yes-No Task,2,DIAN07,
Yes-No Task,59,0,59,0,11.2,-1,Correct Rejection,0.534017900005,False,-1,stimulus_DIAN07_Yes-No Task_2019_Jun_13_1636_210,-1,False,2019_Jun_13_1636,Yes-No Task,2,DIAN07,
Yes-No Task,60,0,60,0,11.2,-1,Hit,0.43394519994,True,-1,stimulus_DIAN07_Yes-No Task_2019_Jun_13_1636_211,-1,False,2019_Jun_13_1636,Yes-No Task,2,DIAN07,
Yes-No Task,61,0,61,0,11.2,-1,Correct Rejection,0.466911500087,False,-1,stimulus_DIAN07_Yes-No Task_2019_Jun_13_1636_212,-1,False,2019_Jun_13_1636,Yes-No Task,2,DIAN07,
Yes-No Task,62,0,62,0,11.2,-1,False Alarm,0.400785599835,False,-1,stimulus_DIAN07_Yes-No Task_2019_Jun_13_1636_213,-1,False,2019_Jun_13_1636,Yes-No Task,2,DIAN07,
Yes-No Task,63,0,63,0,11.2,-1,Correct Rejection,0.434512899956,False,-1,stimulus_DIAN07_Yes-No Task_2019_Jun_13_1636_214,-1,False,2019_Jun_13_1636,Yes-No Task,2,DIAN07,
Yes-No Task,64,0,64,0,11.2,-1,Correct Rejection,0.36735909991,False,-1,stimulus_DIAN07_Yes-No Task_2019_Jun_13_1636_215,-1,False,2019_Jun_13_1636,Yes-No Task,2,DIAN07,
Yes-No Task,65,0,65,0,11.2,-1,Miss,0.33366029989,True,-1,stimulus_DIAN07_Yes-No Task_2019_Jun_13_1636_216,-1,False,2019_Jun_13_1636,Yes-No Task,2,DIAN07,
Yes-No Task,66,0,66,0,11.2,-1,False Alarm,0.401296399999,False,-1,stimulus_DIAN07_Yes-No Task_2019_Jun_13_1636_217,-1,False,2019_Jun_13_1636,Yes-No Task,2,DIAN07,
Yes-No Task,67,0,67,0,11.2,-1,Correct Rejection,0.533359099878,False,-1,stimulus_DIAN07_Yes-No Task_2019_Jun_13_1636_218,-1,False,2019_Jun_13_1636,Yes-No Task,2,DIAN07,
Yes-No Task,68,0,68,0,11.2,-1,Correct Rejection,0.533646899974,False,-1,stimulus_DIAN07_Yes-No Task_2019_Jun_13_1636_219,-1,False,2019_Jun_13_1636,Yes-No Task,2,DIAN07,
Yes-No Task,69,0,69,0,11.2,-1,Correct Rejection,0.401664200006,False,-1,stimulus_DIAN07_Yes-No Task_2019_Jun_13_1636_220,-1,False,2019_Jun_13_1636,Yes-No Task,2,DIAN07,
Yes-No Task,70,0,70,0,11.2,-1,Miss,0.401178600034,True,-1,stimulus_DIAN07_Yes-No Task_2019_Jun_13_1636_221,-1,False,2019_Jun_13_1636,Yes-No Task,2,DIAN07,
Yes-No Task,71,0,71,0,11.2,-1,False Alarm,0.435075500049,False,-1,stimulus_DIAN07_Yes-No Task_2019_Jun_13_1636_222,-1,False,2019_Jun_13_1636,Yes-No Task,2,DIAN07,
Yes-No Task,72,0,72,0,11.2,-1,Miss,0.567517700139,True,-1,stimulus_DIAN07_Yes-No Task_2019_Jun_13_1636_223,-1,False,2019_Jun_13_1636,Yes-No Task,2,DIAN07,
Yes-No Task,73,0,73,0,11.2,-1,False Alarm,0.266705200076,False,-1,stimulus_DIAN07_Yes-No Task_2019_Jun_13_1636_224,-1,False,2019_Jun_13_1636,Yes-No Task,2,DIAN07,
Yes-No Task,74,0,74,0,11.2,-1,False Alarm,0.301555800019,False,-1,stimulus_DIAN07_Yes-No Task_2019_Jun_13_1636_225,-1,False,2019_Jun_13_1636,Yes-No Task,2,DIAN07,
Yes-No Task,0,0,0,0,5.8,-1,Miss,0.43331220001,True,-1,stimulus_DIAN07_Yes-No Task_2019_Jun_13_1636_226,-1,False,2019_Jun_13_1636,Yes-No Task,2,DIAN07,
Yes-No Task,1,0,1,0,5.8,-1,Correct Rejection,0.367021899903,False,-1,stimulus_DIAN07_Yes-No Task_2019_Jun_13_1636_227,-1,False,2019_Jun_13_1636,Yes-No Task,2,DIAN07,
Yes-No Task,2,0,2,0,5.8,-1,Miss,0.333542499924,True,-1,stimulus_DIAN07_Yes-No Task_2019_Jun_13_1636_228,-1,False,2019_Jun_13_1636,Yes-No Task,2,DIAN07,
Yes-No Task,3,0,3,0,5.8,-1,Miss,0.50033950014,True,-1,stimulus_DIAN07_Yes-No Task_2019_Jun_13_1636_229,-1,False,2019_Jun_13_1636,Yes-No Task,2,DIAN07,
Yes-No Task,4,0,4,0,5.8,-1,Miss,0.534006099915,True,-1,stimulus_DIAN07_Yes-No Task_2019_Jun_13_1636_230,-1,False,2019_Jun_13_1636,Yes-No Task,2,DIAN07,
Yes-No Task,5,0,5,0,5.8,-1,Correct Rejection,0.367325400002,False,-1,stimulus_DIAN07_Yes-No Task_2019_Jun_13_1636_231,-1,False,2019_Jun_13_1636,Yes-No Task,2,DIAN07,
Yes-No Task,6,0,6,0,5.8,-1,Correct Rejection,0.568900100188,False,-1,stimulus_DIAN07_Yes-No Task_2019_Jun_13_1636_232,-1,False,2019_Jun_13_1636,Yes-No Task,2,DIAN07,
Yes-No Task,7,0,7,0,5.8,-1,Miss,0.534042200074,True,-1,stimulus_DIAN07_Yes-No Task_2019_Jun_13_1636_233,-1,False,2019_Jun_13_1636,Yes-No Task,2,DIAN07,
Yes-No Task,8,0,8,0,5.8,-1,Miss,0.40068670013,True,-1,stimulus_DIAN07_Yes-No Task_2019_Jun_13_1636_234,-1,False,2019_Jun_13_1636,Yes-No Task,2,DIAN07,
Yes-No Task,9,0,9,0,5.8,-1,Miss,0.432684200117,True,-1,stimulus_DIAN07_Yes-No Task_2019_Jun_13_1636_235,-1,False,2019_Jun_13_1636,Yes-No Task,2,DIAN07,
Yes-No Task,10,0,10,0,5.8,-1,Miss,0.433855700074,True,-1,stimulus_DIAN07_Yes-No Task_2019_Jun_13_1636_236,-1,False,2019_Jun_13_1636,Yes-No Task,2,DIAN07,
Yes-No Task,11,0,11,0,5.8,-1,Miss,0.432738899952,True,-1,stimulus_DIAN07_Yes-No Task_2019_Jun_13_1636_237,-1,False,2019_Jun_13_1636,Yes-No Task,2,DIAN07,
Yes-No Task,12,0,12,0,5.8,-1,False Alarm,0.568178800168,False,-1,stimulus_DIAN07_Yes-No Task_2019_Jun_13_1636_238,-1,False,2019_Jun_13_1636,Yes-No Task,2,DIAN07,
Yes-No Task,13,0,13,0,5.8,-1,Correct Rejection,0.402249499923,False,-1,stimulus_DIAN07_Yes-No Task_2019_Jun_13_1636_239,-1,False,2019_Jun_13_1636,Yes-No Task,2,DIAN07,
Yes-No Task,14,0,14,0,5.8,-1,Correct Rejection,0.433824399952,False,-1,stimulus_DIAN07_Yes-No Task_2019_Jun_13_1636_240,-1,False,2019_Jun_13_1636,Yes-No Task,2,DIAN07,
Yes-No Task,15,0,15,0,5.8,-1,Correct Rejection,0.500504900003,False,-1,stimulus_DIAN07_Yes-No Task_2019_Jun_13_1636_241,-1,False,2019_Jun_13_1636,Yes-No Task,2,DIAN07,
Yes-No Task,16,0,16,0,5.8,-1,False Alarm,0.601062299917,False,-1,stimulus_DIAN07_Yes-No Task_2019_Jun_13_1636_242,-1,False,2019_Jun_13_1636,Yes-No Task,2,DIAN07,
Yes-No Task,17,0,17,0,5.8,-1,Correct Rejection,0.43322479981,False,-1,stimulus_DIAN07_Yes-No Task_2019_Jun_13_1636_243,-1,False,2019_Jun_13_1636,Yes-No Task,2,DIAN07,
Yes-No Task,18,0,18,0,5.8,-1,Miss,0.568365100073,True,-1,stimulus_DIAN07_Yes-No Task_2019_Jun_13_1636_244,-1,False,2019_Jun_13_1636,Yes-No Task,2,DIAN07,
Yes-No Task,19,0,19,0,5.8,-1,Correct Rejection,0.468720999779,False,-1,stimulus_DIAN07_Yes-No Task_2019_Jun_13_1636_245,-1,False,2019_Jun_13_1636,Yes-No Task,2,DIAN07,
Yes-No Task,20,0,20,0,5.8,-1,Miss,0.469785199966,True,-1,stimulus_DIAN07_Yes-No Task_2019_Jun_13_1636_246,-1,False,2019_Jun_13_1636,Yes-No Task,2,DIAN07,
Yes-No Task,21,0,21,0,5.8,-1,Correct Rejection,0.466918799793,False,-1,stimulus_DIAN07_Yes-No Task_2019_Jun_13_1636_247,-1,False,2019_Jun_13_1636,Yes-No Task,2,DIAN07,
Yes-No Task,22,0,22,0,5.8,-1,Miss,0.401382000186,True,-1,stimulus_DIAN07_Yes-No Task_2019_Jun_13_1636_248,-1,False,2019_Jun_13_1636,Yes-No Task,2,DIAN07,
Yes-No Task,23,0,23,0,5.8,-1,Miss,0.534872299992,True,-1,stimulus_DIAN07_Yes-No Task_2019_Jun_13_1636_249,-1,False,2019_Jun_13_1636,Yes-No Task,2,DIAN07,
Yes-No Task,24,0,24,0,5.8,-1,False Alarm,0.367059500189,False,-1,stimulus_DIAN07_Yes-No Task_2019_Jun_13_1636_250,-1,False,2019_Jun_13_1636,Yes-No Task,2,DIAN07,
Yes-No Task,25,0,25,0,5.8,-1,Correct Rejection,0.433368199971,False,-1,stimulus_DIAN07_Yes-No Task_2019_Jun_13_1636_251,-1,False,2019_Jun_13_1636,Yes-No Task,2,DIAN07,
Yes-No Task,26,0,26,0,5.8,-1,Hit,0.567171500064,True,-1,stimulus_DIAN07_Yes-No Task_2019_Jun_13_1636_252,-1,False,2019_Jun_13_1636,Yes-No Task,2,DIAN07,
Yes-No Task,27,0,27,0,5.8,-1,False Alarm,0.567159200087,False,-1,stimulus_DIAN07_Yes-No Task_2019_Jun_13_1636_253,-1,False,2019_Jun_13_1636,Yes-No Task,2,DIAN07,
Yes-No Task,28,0,28,0,5.8,-1,Miss,0.466455599992,True,-1,stimulus_DIAN07_Yes-No Task_2019_Jun_13_1636_254,-1,False,2019_Jun_13_1636,Yes-No Task,2,DIAN07,
Yes-No Task,29,0,29,0,5.8,-1,Hit,0.433896000031,True,-1,stimulus_DIAN07_Yes-No Task_2019_Jun_13_1636_255,-1,False,2019_Jun_13_1636,Yes-No Task,2,DIAN07,
Yes-No Task,30,0,30,0,5.8,-1,Miss,0.434050299926,True,-1,stimulus_DIAN07_Yes-No Task_2019_Jun_13_1636_256,-1,False,2019_Jun_13_1636,Yes-No Task,2,DIAN07,
Yes-No Task,31,0,31,0,5.8,-1,False Alarm,0.600552299991,False,-1,stimulus_DIAN07_Yes-No Task_2019_Jun_13_1636_257,-1,False,2019_Jun_13_1636,Yes-No Task,2,DIAN07,
Yes-No Task,32,0,32,0,5.8,-1,Correct Rejection,0.534005999798,False,-1,stimulus_DIAN07_Yes-No Task_2019_Jun_13_1636_258,-1,False,2019_Jun_13_1636,Yes-No Task,2,DIAN07,
Yes-No Task,33,0,33,0,5.8,-1,Correct Rejection,0.466357599944,False,-1,stimulus_DIAN07_Yes-No Task_2019_Jun_13_1636_259,-1,False,2019_Jun_13_1636,Yes-No Task,2,DIAN07,
Yes-No Task,34,0,34,0,5.8,-1,Hit,0.667574800085,True,-1,stimulus_DIAN07_Yes-No Task_2019_Jun_13_1636_260,-1,False,2019_Jun_13_1636,Yes-No Task,2,DIAN07,
Yes-No Task,35,0,35,0,5.8,-1,False Alarm,0.467116400134,False,-1,stimulus_DIAN07_Yes-No Task_2019_Jun_13_1636_261,-1,False,2019_Jun_13_1636,Yes-No Task,2,DIAN07,
Yes-No Task,36,0,36,0,5.8,-1,Miss,0.535345599987,True,-1,stimulus_DIAN07_Yes-No Task_2019_Jun_13_1636_262,-1,False,2019_Jun_13_1636,Yes-No Task,2,DIAN07,
Yes-No Task,37,0,37,0,5.8,-1,Hit,0.567411999917,True,-1,stimulus_DIAN07_Yes-No Task_2019_Jun_13_1636_263,-1,False,2019_Jun_13_1636,Yes-No Task,2,DIAN07,
Yes-No Task,38,0,38,0,5.8,-1,Correct Rejection,0.600050000008,False,-1,stimulus_DIAN07_Yes-No Task_2019_Jun_13_1636_264,-1,False,2019_Jun_13_1636,Yes-No Task,2,DIAN07,
Yes-No Task,39,0,39,0,5.8,-1,Hit,0.701445000013,True,-1,stimulus_DIAN07_Yes-No Task_2019_Jun_13_1636_265,-1,False,2019_Jun_13_1636,Yes-No Task,2,DIAN07,
Yes-No Task,40,0,40,0,5.8,-1,False Alarm,0.632871099981,False,-1,stimulus_DIAN07_Yes-No Task_2019_Jun_13_1636_266,-1,False,2019_Jun_13_1636,Yes-No Task,2,DIAN07,
Yes-No Task,41,0,41,0,5.8,-1,Miss,0.400630100165,True,-1,stimulus_DIAN07_Yes-No Task_2019_Jun_13_1636_267,-1,False,2019_Jun_13_1636,Yes-No Task,2,DIAN07,
Yes-No Task,42,0,42,0,5.8,-1,Miss,0.467385099968,True,-1,stimulus_DIAN07_Yes-No Task_2019_Jun_13_1636_268,-1,False,2019_Jun_13_1636,Yes-No Task,2,DIAN07,
Yes-No Task,43,0,43,0,5.8,-1,Correct Rejection,0.534015100216,False,-1,stimulus_DIAN07_Yes-No Task_2019_Jun_13_1636_269,-1,False,2019_Jun_13_1636,Yes-No Task,2,DIAN07,
Yes-No Task,44,0,44,0,5.8,-1,Miss,0.468062500004,True,-1,stimulus_DIAN07_Yes-No Task_2019_Jun_13_1636_270,-1,False,2019_Jun_13_1636,Yes-No Task,2,DIAN07,
Yes-No Task,45,0,45,0,5.8,-1,False Alarm,0.43452219991,False,-1,stimulus_DIAN07_Yes-No Task_2019_Jun_13_1636_271,-1,False,2019_Jun_13_1636,Yes-No Task,2,DIAN07,
Yes-No Task,46,0,46,0,5.8,-1,Hit,0.367905399995,True,-1,stimulus_DIAN07_Yes-No Task_2019_Jun_13_1636_272,-1,False,2019_Jun_13_1636,Yes-No Task,2,DIAN07,
Yes-No Task,47,0,47,0,5.8,-1,Correct Rejection,0.433685899945,False,-1,stimulus_DIAN07_Yes-No Task_2019_Jun_13_1636_273,-1,False,2019_Jun_13_1636,Yes-No Task,2,DIAN07,
Yes-No Task,48,0,48,0,5.8,-1,False Alarm,0.465872799978,False,-1,stimulus_DIAN07_Yes-No Task_2019_Jun_13_1636_274,-1,False,2019_Jun_13_1636,Yes-No Task,2,DIAN07,
Yes-No Task,49,0,49,0,5.8,-1,Miss,0.533415399957,True,-1,stimulus_DIAN07_Yes-No Task_2019_Jun_13_1636_275,-1,False,2019_Jun_13_1636,Yes-No Task,2,DIAN07,
Yes-No Task,50,0,50,0,5.8,-1,Hit,0.567237899872,True,-1,stimulus_DIAN07_Yes-No Task_2019_Jun_13_1636_276,-1,False,2019_Jun_13_1636,Yes-No Task,2,DIAN07,
Yes-No Task,51,0,51,0,5.8,-1,False Alarm,0.566964800004,False,-1,stimulus_DIAN07_Yes-No Task_2019_Jun_13_1636_277,-1,False,2019_Jun_13_1636,Yes-No Task,2,DIAN07,
Yes-No Task,52,0,52,0,5.8,-1,Correct Rejection,0.568062199978,False,-1,stimulus_DIAN07_Yes-No Task_2019_Jun_13_1636_278,-1,False,2019_Jun_13_1636,Yes-No Task,2,DIAN07,
Yes-No Task,53,0,53,0,5.8,-1,Miss,0.366591600003,True,-1,stimulus_DIAN07_Yes-No Task_2019_Jun_13_1636_279,-1,False,2019_Jun_13_1636,Yes-No Task,2,DIAN07,
Yes-No Task,54,0,54,0,5.8,-1,False Alarm,0.567047899822,False,-1,stimulus_DIAN07_Yes-No Task_2019_Jun_13_1636_280,-1,False,2019_Jun_13_1636,Yes-No Task,2,DIAN07,
Yes-No Task,55,0,55,0,5.8,-1,Miss,0.43389230012,True,-1,stimulus_DIAN07_Yes-No Task_2019_Jun_13_1636_281,-1,False,2019_Jun_13_1636,Yes-No Task,2,DIAN07,
Yes-No Task,56,0,56,0,5.8,-1,Miss,0.299355400028,True,-1,stimulus_DIAN07_Yes-No Task_2019_Jun_13_1636_282,-1,False,2019_Jun_13_1636,Yes-No Task,2,DIAN07,
Yes-No Task,57,0,57,0,5.8,-1,Correct Rejection,0.167860399932,False,-1,stimulus_DIAN07_Yes-No Task_2019_Jun_13_1636_283,-1,False,2019_Jun_13_1636,Yes-No Task,2,DIAN07,
Yes-No Task,58,0,58,0,5.8,-1,Hit,0.366569299949,True,-1,stimulus_DIAN07_Yes-No Task_2019_Jun_13_1636_284,-1,False,2019_Jun_13_1636,Yes-No Task,2,DIAN07,
Yes-No Task,59,0,59,0,5.8,-1,Correct Rejection,0.400970699964,False,-1,stimulus_DIAN07_Yes-No Task_2019_Jun_13_1636_285,-1,False,2019_Jun_13_1636,Yes-No Task,2,DIAN07,
Yes-No Task,60,0,60,0,5.8,-1,Miss,0.602052600123,True,-1,stimulus_DIAN07_Yes-No Task_2019_Jun_13_1636_286,-1,False,2019_Jun_13_1636,Yes-No Task,2,DIAN07,
Yes-No Task,61,0,61,0,5.8,-1,False Alarm,0.399164600065,False,-1,stimulus_DIAN07_Yes-No Task_2019_Jun_13_1636_287,-1,False,2019_Jun_13_1636,Yes-No Task,2,DIAN07,
Yes-No Task,62,0,62,0,5.8,-1,Hit,0.300398899941,True,-1,stimulus_DIAN07_Yes-No Task_2019_Jun_13_1636_288,-1,False,2019_Jun_13_1636,Yes-No Task,2,DIAN07,
Yes-No Task,63,0,63,0,5.8,-1,False Alarm,0.467496499885,False,-1,stimulus_DIAN07_Yes-No Task_2019_Jun_13_1636_289,-1,False,2019_Jun_13_1636,Yes-No Task,2,DIAN07,
Yes-No Task,64,0,64,0,5.8,-1,False Alarm,0.433202999877,False,-1,stimulus_DIAN07_Yes-No Task_2019_Jun_13_1636_290,-1,False,2019_Jun_13_1636,Yes-No Task,2,DIAN07,
Yes-No Task,65,0,65,0,5.8,-1,False Alarm,0.401374600129,False,-1,stimulus_DIAN07_Yes-No Task_2019_Jun_13_1636_291,-1,False,2019_Jun_13_1636,Yes-No Task,2,DIAN07,
Yes-No Task,66,0,66,0,5.8,-1,Miss,0.267964200117,True,-1,stimulus_DIAN07_Yes-No Task_2019_Jun_13_1636_292,-1,False,2019_Jun_13_1636,Yes-No Task,2,DIAN07,
Yes-No Task,67,0,67,0,5.8,-1,Hit,0.533562300028,True,-1,stimulus_DIAN07_Yes-No Task_2019_Jun_13_1636_293,-1,False,2019_Jun_13_1636,Yes-No Task,2,DIAN07,
Yes-No Task,68,0,68,0,5.8,-1,Hit,0.23433480016,True,-1,stimulus_DIAN07_Yes-No Task_2019_Jun_13_1636_294,-1,False,2019_Jun_13_1636,Yes-No Task,2,DIAN07,
Yes-No Task,69,0,69,0,5.8,-1,Hit,0.267457399983,True,-1,stimulus_DIAN07_Yes-No Task_2019_Jun_13_1636_295,-1,False,2019_Jun_13_1636,Yes-No Task,2,DIAN07,
Yes-No Task,70,0,70,0,5.8,-1,Hit,0.300454499898,True,-1,stimulus_DIAN07_Yes-No Task_2019_Jun_13_1636_296,-1,False,2019_Jun_13_1636,Yes-No Task,2,DIAN07,
Yes-No Task,71,0,71,0,5.8,-1,Hit,0.300982200075,True,-1,stimulus_DIAN07_Yes-No Task_2019_Jun_13_1636_297,-1,False,2019_Jun_13_1636,Yes-No Task,2,DIAN07,
Yes-No Task,72,0,72,0,5.8,-1,Hit,0.233496800065,True,-1,stimulus_DIAN07_Yes-No Task_2019_Jun_13_1636_298,-1,False,2019_Jun_13_1636,Yes-No Task,2,DIAN07,
Yes-No Task,73,0,73,0,5.8,-1,False Alarm,0.233790199971,False,-1,stimulus_DIAN07_Yes-No Task_2019_Jun_13_1636_299,-1,False,2019_Jun_13_1636,Yes-No Task,2,DIAN07,
Yes-No Task,74,0,74,0,5.8,-1,False Alarm,0.833959099837,False,-1,stimulus_DIAN07_Yes-No Task_2019_Jun_13_1636_300,-1,False,2019_Jun_13_1636,Yes-No Task,2,DIAN07,
Yes-No Task,0,0,0,0,12.5,-1,Correct Rejection,0.433895499911,False,-1,stimulus_DIAN07_Yes-No Task_2019_Jun_13_1636_301,-1,False,2019_Jun_13_1636,Yes-No Task,2,DIAN07,
Yes-No Task,1,0,1,0,12.5,-1,Hit,0.401292199967,True,-1,stimulus_DIAN07_Yes-No Task_2019_Jun_13_1636_302,-1,False,2019_Jun_13_1636,Yes-No Task,2,DIAN07,
Yes-No Task,2,0,2,0,12.5,-1,Hit,0.467383499956,True,-1,stimulus_DIAN07_Yes-No Task_2019_Jun_13_1636_303,-1,False,2019_Jun_13_1636,Yes-No Task,2,DIAN07,
Yes-No Task,3,0,3,0,12.5,-1,Correct Rejection,0.468568200013,False,-1,stimulus_DIAN07_Yes-No Task_2019_Jun_13_1636_304,-1,False,2019_Jun_13_1636,Yes-No Task,2,DIAN07,
Yes-No Task,4,0,4,0,12.5,-1,Hit,0.466699199984,True,-1,stimulus_DIAN07_Yes-No Task_2019_Jun_13_1636_305,-1,False,2019_Jun_13_1636,Yes-No Task,2,DIAN07,
Yes-No Task,5,0,5,0,12.5,-1,Hit,0.401535199955,True,-1,stimulus_DIAN07_Yes-No Task_2019_Jun_13_1636_306,-1,False,2019_Jun_13_1636,Yes-No Task,2,DIAN07,
Yes-No Task,6,0,6,0,12.5,-1,Hit,0.400069999974,True,-1,stimulus_DIAN07_Yes-No Task_2019_Jun_13_1636_307,-1,False,2019_Jun_13_1636,Yes-No Task,2,DIAN07,
Yes-No Task,7,0,7,0,12.5,-1,Correct Rejection,0.43582530017,False,-1,stimulus_DIAN07_Yes-No Task_2019_Jun_13_1636_308,-1,False,2019_Jun_13_1636,Yes-No Task,2,DIAN07,
Yes-No Task,8,0,8,0,12.5,-1,Correct Rejection,0.436315599829,False,-1,stimulus_DIAN07_Yes-No Task_2019_Jun_13_1636_309,-1,False,2019_Jun_13_1636,Yes-No Task,2,DIAN07,
Yes-No Task,9,0,9,0,12.5,-1,Correct Rejection,0.499029000057,False,-1,stimulus_DIAN07_Yes-No Task_2019_Jun_13_1636_310,-1,False,2019_Jun_13_1636,Yes-No Task,2,DIAN07,
Yes-No Task,10,0,10,0,12.5,-1,Correct Rejection,0.36748580006,False,-1,stimulus_DIAN07_Yes-No Task_2019_Jun_13_1636_311,-1,False,2019_Jun_13_1636,Yes-No Task,2,DIAN07,
Yes-No Task,11,0,11,0,12.5,-1,Hit,0.533714599907,True,-1,stimulus_DIAN07_Yes-No Task_2019_Jun_13_1636_312,-1,False,2019_Jun_13_1636,Yes-No Task,2,DIAN07,
Yes-No Task,12,0,12,0,12.5,-1,Hit,0.401744799921,True,-1,stimulus_DIAN07_Yes-No Task_2019_Jun_13_1636_313,-1,False,2019_Jun_13_1636,Yes-No Task,2,DIAN07,
Yes-No Task,13,0,13,0,12.5,-1,Hit,0.435032199835,True,-1,stimulus_DIAN07_Yes-No Task_2019_Jun_13_1636_314,-1,False,2019_Jun_13_1636,Yes-No Task,2,DIAN07,
Yes-No Task,14,0,14,0,12.5,-1,Hit,0.401235300116,True,-1,stimulus_DIAN07_Yes-No Task_2019_Jun_13_1636_315,-1,False,2019_Jun_13_1636,Yes-No Task,2,DIAN07,
Yes-No Task,15,0,15,0,12.5,-1,False Alarm,0.4642725999,False,-1,stimulus_DIAN07_Yes-No Task_2019_Jun_13_1636_316,-1,False,2019_Jun_13_1636,Yes-No Task,2,DIAN07,
Yes-No Task,16,0,16,0,12.5,-1,Correct Rejection,0.43124119984,False,-1,stimulus_DIAN07_Yes-No Task_2019_Jun_13_1636_317,-1,False,2019_Jun_13_1636,Yes-No Task,2,DIAN07,
Yes-No Task,17,0,17,0,12.5,-1,Miss,0.368793100119,True,-1,stimulus_DIAN07_Yes-No Task_2019_Jun_13_1636_318,-1,False,2019_Jun_13_1636,Yes-No Task,2,DIAN07,
Yes-No Task,18,0,18,0,12.5,-1,False Alarm,0.531983599998,False,-1,stimulus_DIAN07_Yes-No Task_2019_Jun_13_1636_319,-1,False,2019_Jun_13_1636,Yes-No Task,2,DIAN07,
Yes-No Task,19,0,19,0,12.5,-1,Hit,0.734958700137,True,-1,stimulus_DIAN07_Yes-No Task_2019_Jun_13_1636_320,-1,False,2019_Jun_13_1636,Yes-No Task,2,DIAN07,
Yes-No Task,20,0,20,0,12.5,-1,Correct Rejection,0.533386100084,False,-1,stimulus_DIAN07_Yes-No Task_2019_Jun_13_1636_321,-1,False,2019_Jun_13_1636,Yes-No Task,2,DIAN07,
Yes-No Task,21,0,21,0,12.5,-1,Correct Rejection,0.6660195,False,-1,stimulus_DIAN07_Yes-No Task_2019_Jun_13_1636_322,-1,False,2019_Jun_13_1636,Yes-No Task,2,DIAN07,
Yes-No Task,22,0,22,0,12.5,-1,Hit,0.467967600096,True,-1,stimulus_DIAN07_Yes-No Task_2019_Jun_13_1636_323,-1,False,2019_Jun_13_1636,Yes-No Task,2,DIAN07,
Yes-No Task,23,0,23,0,12.5,-1,Correct Rejection,0.467223699903,False,-1,stimulus_DIAN07_Yes-No Task_2019_Jun_13_1636_324,-1,False,2019_Jun_13_1636,Yes-No Task,2,DIAN07,
Yes-No Task,24,0,24,0,12.5,-1,Correct Rejection,0.668126499979,False,-1,stimulus_DIAN07_Yes-No Task_2019_Jun_13_1636_325,-1,False,2019_Jun_13_1636,Yes-No Task,2,DIAN07,
Yes-No Task,25,0,25,0,12.5,-1,Hit,0.568568799878,True,-1,stimulus_DIAN07_Yes-No Task_2019_Jun_13_1636_326,-1,False,2019_Jun_13_1636,Yes-No Task,2,DIAN07,
Yes-No Task,26,0,26,0,12.5,-1,Miss,0.600537899882,True,-1,stimulus_DIAN07_Yes-No Task_2019_Jun_13_1636_327,-1,False,2019_Jun_13_1636,Yes-No Task,2,DIAN07,
Yes-No Task,27,0,27,0,12.5,-1,Hit,0.467928699916,True,-1,stimulus_DIAN07_Yes-No Task_2019_Jun_13_1636_328,-1,False,2019_Jun_13_1636,Yes-No Task,2,DIAN07,
Yes-No Task,28,0,28,0,12.5,-1,Correct Rejection,0.665264700074,False,-1,stimulus_DIAN07_Yes-No Task_2019_Jun_13_1636_329,-1,False,2019_Jun_13_1636,Yes-No Task,2,DIAN07,
Yes-No Task,29,0,29,0,12.5,-1,Miss,0.567835599883,True,-1,stimulus_DIAN07_Yes-No Task_2019_Jun_13_1636_330,-1,False,2019_Jun_13_1636,Yes-No Task,2,DIAN07,
Yes-No Task,30,0,30,0,12.5,-1,Hit,0.462499600137,True,-1,stimulus_DIAN07_Yes-No Task_2019_Jun_13_1636_331,-1,False,2019_Jun_13_1636,Yes-No Task,2,DIAN07,
Yes-No Task,31,0,31,0,12.5,-1,Miss,0.567635699874,True,-1,stimulus_DIAN07_Yes-No Task_2019_Jun_13_1636_332,-1,False,2019_Jun_13_1636,Yes-No Task,2,DIAN07,
Yes-No Task,32,0,32,0,12.5,-1,Hit,0.700498699909,True,-1,stimulus_DIAN07_Yes-No Task_2019_Jun_13_1636_333,-1,False,2019_Jun_13_1636,Yes-No Task,2,DIAN07,
Yes-No Task,33,0,33,0,12.5,-1,Correct Rejection,0.500647600042,False,-1,stimulus_DIAN07_Yes-No Task_2019_Jun_13_1636_334,-1,False,2019_Jun_13_1636,Yes-No Task,2,DIAN07,
Yes-No Task,34,0,34,0,12.5,-1,Correct Rejection,0.600493600126,False,-1,stimulus_DIAN07_Yes-No Task_2019_Jun_13_1636_335,-1,False,2019_Jun_13_1636,Yes-No Task,2,DIAN07,
Yes-No Task,35,0,35,0,12.5,-1,Correct Rejection,0.63437889982,False,-1,stimulus_DIAN07_Yes-No Task_2019_Jun_13_1636_336,-1,False,2019_Jun_13_1636,Yes-No Task,2,DIAN07,
Yes-No Task,36,0,36,0,12.5,-1,Hit,0.534803000046,True,-1,stimulus_DIAN07_Yes-No Task_2019_Jun_13_1636_337,-1,False,2019_Jun_13_1636,Yes-No Task,2,DIAN07,
Yes-No Task,37,0,37,0,12.5,-1,Hit,0.633116399869,True,-1,stimulus_DIAN07_Yes-No Task_2019_Jun_13_1636_338,-1,False,2019_Jun_13_1636,Yes-No Task,2,DIAN07,
Yes-No Task,38,0,38,0,12.5,-1,Correct Rejection,0.466717500007,False,-1,stimulus_DIAN07_Yes-No Task_2019_Jun_13_1636_339,-1,False,2019_Jun_13_1636,Yes-No Task,2,DIAN07,
Yes-No Task,39,0,39,0,12.5,-1,Hit,0.567241000012,True,-1,stimulus_DIAN07_Yes-No Task_2019_Jun_13_1636_340,-1,False,2019_Jun_13_1636,Yes-No Task,2,DIAN07,
Yes-No Task,40,0,40,0,12.5,-1,Hit,0.633302300004,True,-1,stimulus_DIAN07_Yes-No Task_2019_Jun_13_1636_341,-1,False,2019_Jun_13_1636,Yes-No Task,2,DIAN07,
Yes-No Task,41,0,41,0,12.5,-1,Correct Rejection,0.533515300136,False,-1,stimulus_DIAN07_Yes-No Task_2019_Jun_13_1636_342,-1,False,2019_Jun_13_1636,Yes-No Task,2,DIAN07,
Yes-No Task,42,0,42,0,12.5,-1,Correct Rejection,0.46601019986,False,-1,stimulus_DIAN07_Yes-No Task_2019_Jun_13_1636_343,-1,False,2019_Jun_13_1636,Yes-No Task,2,DIAN07,
Yes-No Task,43,0,43,0,12.5,-1,Miss,0.466988199856,True,-1,stimulus_DIAN07_Yes-No Task_2019_Jun_13_1636_344,-1,False,2019_Jun_13_1636,Yes-No Task,2,DIAN07,
Yes-No Task,44,0,44,0,12.5,-1,Correct Rejection,0.567098999862,False,-1,stimulus_DIAN07_Yes-No Task_2019_Jun_13_1636_345,-1,False,2019_Jun_13_1636,Yes-No Task,2,DIAN07,
Yes-No Task,45,0,45,0,12.5,-1,Miss,0.566893899813,True,-1,stimulus_DIAN07_Yes-No Task_2019_Jun_13_1636_346,-1,False,2019_Jun_13_1636,Yes-No Task,2,DIAN07,
Yes-No Task,46,0,46,0,12.5,-1,Miss,0.434170900146,True,-1,stimulus_DIAN07_Yes-No Task_2019_Jun_13_1636_347,-1,False,2019_Jun_13_1636,Yes-No Task,2,DIAN07,
Yes-No Task,47,0,47,0,12.5,-1,Miss,0.532977900002,True,-1,stimulus_DIAN07_Yes-No Task_2019_Jun_13_1636_348,-1,False,2019_Jun_13_1636,Yes-No Task,2,DIAN07,
Yes-No Task,48,0,48,0,12.5,-1,Miss,0.667273000116,True,-1,stimulus_DIAN07_Yes-No Task_2019_Jun_13_1636_349,-1,False,2019_Jun_13_1636,Yes-No Task,2,DIAN07,
Yes-No Task,49,0,49,0,12.5,-1,Miss,0.533878199989,True,-1,stimulus_DIAN07_Yes-No Task_2019_Jun_13_1636_350,-1,False,2019_Jun_13_1636,Yes-No Task,2,DIAN07,
Yes-No Task,50,0,50,0,12.5,-1,Hit,0.568163100164,True,-1,stimulus_DIAN07_Yes-No Task_2019_Jun_13_1636_351,-1,False,2019_Jun_13_1636,Yes-No Task,2,DIAN07,
Yes-No Task,51,0,51,0,12.5,-1,Correct Rejection,0.532587100053,False,-1,stimulus_DIAN07_Yes-No Task_2019_Jun_13_1636_352,-1,False,2019_Jun_13_1636,Yes-No Task,2,DIAN07,
Yes-No Task,52,0,52,0,12.5,-1,Correct Rejection,0.467310100095,False,-1,stimulus_DIAN07_Yes-No Task_2019_Jun_13_1636_353,-1,False,2019_Jun_13_1636,Yes-No Task,2,DIAN07,
Yes-No Task,53,0,53,0,12.5,-1,Correct Rejection,0.533768299967,False,-1,stimulus_DIAN07_Yes-No Task_2019_Jun_13_1636_354,-1,False,2019_Jun_13_1636,Yes-No Task,2,DIAN07,
Yes-No Task,54,0,54,0,12.5,-1,Miss,0.532627900131,True,-1,stimulus_DIAN07_Yes-No Task_2019_Jun_13_1636_355,-1,False,2019_Jun_13_1636,Yes-No Task,2,DIAN07,
Yes-No Task,55,0,55,0,12.5,-1,Hit,0.56726130005,True,-1,stimulus_DIAN07_Yes-No Task_2019_Jun_13_1636_356,-1,False,2019_Jun_13_1636,Yes-No Task,2,DIAN07,
Yes-No Task,56,0,56,0,12.5,-1,No Answer,-1,True,-1,stimulus_DIAN07_Yes-No Task_2019_Jun_13_1636_357,-1,False,2019_Jun_13_1636,Yes-No Task,2,DIAN07,
Yes-No Task,57,0,57,0,12.5,-1,Correct Rejection,0.567305400036,False,-1,stimulus_DIAN07_Yes-No Task_2019_Jun_13_1636_358,-1,False,2019_Jun_13_1636,Yes-No Task,2,DIAN07,
Yes-No Task,58,0,58,0,12.5,-1,Correct Rejection,0.400780000025,False,-1,stimulus_DIAN07_Yes-No Task_2019_Jun_13_1636_359,-1,False,2019_Jun_13_1636,Yes-No Task,2,DIAN07,
Yes-No Task,59,0,59,0,12.5,-1,Correct Rejection,0.43371449993,False,-1,stimulus_DIAN07_Yes-No Task_2019_Jun_13_1636_360,-1,False,2019_Jun_13_1636,Yes-No Task,2,DIAN07,
Yes-No Task,60,0,60,0,12.5,-1,Miss,0.40052679996,True,-1,stimulus_DIAN07_Yes-No Task_2019_Jun_13_1636_361,-1,False,2019_Jun_13_1636,Yes-No Task,2,DIAN07,
Yes-No Task,61,0,61,0,12.5,-1,Hit,0.467338299844,True,-1,stimulus_DIAN07_Yes-No Task_2019_Jun_13_1636_362,-1,False,2019_Jun_13_1636,Yes-No Task,2,DIAN07,
Yes-No Task,62,0,62,0,12.5,-1,Correct Rejection,0.467167899944,False,-1,stimulus_DIAN07_Yes-No Task_2019_Jun_13_1636_363,-1,False,2019_Jun_13_1636,Yes-No Task,2,DIAN07,
Yes-No Task,63,0,63,0,12.5,-1,Correct Rejection,0.400316399988,False,-1,stimulus_DIAN07_Yes-No Task_2019_Jun_13_1636_364,-1,False,2019_Jun_13_1636,Yes-No Task,2,DIAN07,
Yes-No Task,64,0,64,0,12.5,-1,Hit,0.600758499932,True,-1,stimulus_DIAN07_Yes-No Task_2019_Jun_13_1636_365,-1,False,2019_Jun_13_1636,Yes-No Task,2,DIAN07,
Yes-No Task,65,0,65,0,12.5,-1,Hit,0.434486199869,True,-1,stimulus_DIAN07_Yes-No Task_2019_Jun_13_1636_366,-1,False,2019_Jun_13_1636,Yes-No Task,2,DIAN07,
Yes-No Task,66,0,66,0,12.5,-1,Miss,0.365352999885,True,-1,stimulus_DIAN07_Yes-No Task_2019_Jun_13_1636_367,-1,False,2019_Jun_13_1636,Yes-No Task,2,DIAN07,
Yes-No Task,67,0,67,0,12.5,-1,Correct Rejection,0.567086800002,False,-1,stimulus_DIAN07_Yes-No Task_2019_Jun_13_1636_368,-1,False,2019_Jun_13_1636,Yes-No Task,2,DIAN07,
Yes-No Task,68,0,68,0,12.5,-1,Correct Rejection,0.466968299821,False,-1,stimulus_DIAN07_Yes-No Task_2019_Jun_13_1636_369,-1,False,2019_Jun_13_1636,Yes-No Task,2,DIAN07,
Yes-No Task,69,0,69,0,12.5,-1,Miss,0.533465699991,True,-1,stimulus_DIAN07_Yes-No Task_2019_Jun_13_1636_370,-1,False,2019_Jun_13_1636,Yes-No Task,2,DIAN07,
Yes-No Task,70,0,70,0,12.5,-1,Miss,0.566988399951,True,-1,stimulus_DIAN07_Yes-No Task_2019_Jun_13_1636_371,-1,False,2019_Jun_13_1636,Yes-No Task,2,DIAN07,
Yes-No Task,71,0,71,0,12.5,-1,Correct Rejection,0.466989299981,False,-1,stimulus_DIAN07_Yes-No Task_2019_Jun_13_1636_372,-1,False,2019_Jun_13_1636,Yes-No Task,2,DIAN07,
Yes-No Task,72,0,72,0,12.5,-1,Hit,0.6338847999,True,-1,stimulus_DIAN07_Yes-No Task_2019_Jun_13_1636_373,-1,False,2019_Jun_13_1636,Yes-No Task,2,DIAN07,
Yes-No Task,73,0,73,0,12.5,-1,Correct Rejection,0.60048670019,False,-1,stimulus_DIAN07_Yes-No Task_2019_Jun_13_1636_374,-1,False,2019_Jun_13_1636,Yes-No Task,2,DIAN07,
Yes-No Task,74,0,74,0,12.5,-1,Hit,0.700778000057,True,-1,stimulus_DIAN07_Yes-No Task_2019_Jun_13_1636_375,-1,False,2019_Jun_13_1636,Yes-No Task,2,DIAN07,
Yes-No Task,0,0,0,0,9.8,-1,Correct Rejection,0.500529499957,False,-1,stimulus_DIAN07_Yes-No Task_2019_Jun_13_1636_376,-1,False,2019_Jun_13_1636,Yes-No Task,2,DIAN07,
Yes-No Task,1,0,1,0,9.8,-1,Miss,0.364877699874,True,-1,stimulus_DIAN07_Yes-No Task_2019_Jun_13_1636_377,-1,False,2019_Jun_13_1636,Yes-No Task,2,DIAN07,
Yes-No Task,2,0,2,0,9.8,-1,Hit,0.534988099942,True,-1,stimulus_DIAN07_Yes-No Task_2019_Jun_13_1636_378,-1,False,2019_Jun_13_1636,Yes-No Task,2,DIAN07,
Yes-No Task,3,0,3,0,9.8,-1,Hit,0.53236920014,True,-1,stimulus_DIAN07_Yes-No Task_2019_Jun_13_1636_379,-1,False,2019_Jun_13_1636,Yes-No Task,2,DIAN07,
Yes-No Task,4,0,4,0,9.8,-1,Correct Rejection,0.466151500121,False,-1,stimulus_DIAN07_Yes-No Task_2019_Jun_13_1636_380,-1,False,2019_Jun_13_1636,Yes-No Task,2,DIAN07,
Yes-No Task,5,0,5,0,9.8,-1,Correct Rejection,0.567072700011,False,-1,stimulus_DIAN07_Yes-No Task_2019_Jun_13_1636_381,-1,False,2019_Jun_13_1636,Yes-No Task,2,DIAN07,
Yes-No Task,6,0,6,0,9.8,-1,Correct Rejection,0.666734400205,False,-1,stimulus_DIAN07_Yes-No Task_2019_Jun_13_1636_382,-1,False,2019_Jun_13_1636,Yes-No Task,2,DIAN07,
Yes-No Task,7,0,7,0,9.8,-1,False Alarm,0.501817499986,False,-1,stimulus_DIAN07_Yes-No Task_2019_Jun_13_1636_383,-1,False,2019_Jun_13_1636,Yes-No Task,2,DIAN07,
Yes-No Task,8,0,8,0,9.8,-1,Correct Rejection,0.467154900078,False,-1,stimulus_DIAN07_Yes-No Task_2019_Jun_13_1636_384,-1,False,2019_Jun_13_1636,Yes-No Task,2,DIAN07,
Yes-No Task,9,0,9,0,9.8,-1,Correct Rejection,0.434229400009,False,-1,stimulus_DIAN07_Yes-No Task_2019_Jun_13_1636_385,-1,False,2019_Jun_13_1636,Yes-No Task,2,DIAN07,
Yes-No Task,10,0,10,0,9.8,-1,Correct Rejection,0.400805500103,False,-1,stimulus_DIAN07_Yes-No Task_2019_Jun_13_1636_386,-1,False,2019_Jun_13_1636,Yes-No Task,2,DIAN07,
Yes-No Task,11,0,11,0,9.8,-1,Miss,0.367183200084,True,-1,stimulus_DIAN07_Yes-No Task_2019_Jun_13_1636_387,-1,False,2019_Jun_13_1636,Yes-No Task,2,DIAN07,
Yes-No Task,12,0,12,0,9.8,-1,Hit,0.500756300054,True,-1,stimulus_DIAN07_Yes-No Task_2019_Jun_13_1636_388,-1,False,2019_Jun_13_1636,Yes-No Task,2,DIAN07,
Yes-No Task,13,0,13,0,9.8,-1,Miss,0.468560199952,True,-1,stimulus_DIAN07_Yes-No Task_2019_Jun_13_1636_389,-1,False,2019_Jun_13_1636,Yes-No Task,2,DIAN07,
Yes-No Task,14,0,14,0,9.8,-1,Correct Rejection,0.466776099987,False,-1,stimulus_DIAN07_Yes-No Task_2019_Jun_13_1636_390,-1,False,2019_Jun_13_1636,Yes-No Task,2,DIAN07,
Yes-No Task,15,0,15,0,9.8,-1,Hit,0.467601499986,True,-1,stimulus_DIAN07_Yes-No Task_2019_Jun_13_1636_391,-1,False,2019_Jun_13_1636,Yes-No Task,2,DIAN07,
Yes-No Task,16,0,16,0,9.8,-1,Correct Rejection,0.434754799819,False,-1,stimulus_DIAN07_Yes-No Task_2019_Jun_13_1636_392,-1,False,2019_Jun_13_1636,Yes-No Task,2,DIAN07,
Yes-No Task,17,0,17,0,9.8,-1,Correct Rejection,0.433893800015,False,-1,stimulus_DIAN07_Yes-No Task_2019_Jun_13_1636_393,-1,False,2019_Jun_13_1636,Yes-No Task,2,DIAN07,
Yes-No Task,18,0,18,0,9.8,-1,False Alarm,0.401746400166,False,-1,stimulus_DIAN07_Yes-No Task_2019_Jun_13_1636_394,-1,False,2019_Jun_13_1636,Yes-No Task,2,DIAN07,
Yes-No Task,19,0,19,0,9.8,-1,Miss,0.300554600079,True,-1,stimulus_DIAN07_Yes-No Task_2019_Jun_13_1636_395,-1,False,2019_Jun_13_1636,Yes-No Task,2,DIAN07,
Yes-No Task,20,0,20,0,9.8,-1,Miss,0.267169500003,True,-1,stimulus_DIAN07_Yes-No Task_2019_Jun_13_1636_396,-1,False,2019_Jun_13_1636,Yes-No Task,2,DIAN07,
Yes-No Task,21,0,21,0,9.8,-1,Hit,0.368924499955,True,-1,stimulus_DIAN07_Yes-No Task_2019_Jun_13_1636_397,-1,False,2019_Jun_13_1636,Yes-No Task,2,DIAN07,
Yes-No Task,22,0,22,0,9.8,-1,Hit,0.30062990007,True,-1,stimulus_DIAN07_Yes-No Task_2019_Jun_13_1636_398,-1,False,2019_Jun_13_1636,Yes-No Task,2,DIAN07,
Yes-No Task,23,0,23,0,9.8,-1,False Alarm,0.233983000042,False,-1,stimulus_DIAN07_Yes-No Task_2019_Jun_13_1636_399,-1,False,2019_Jun_13_1636,Yes-No Task,2,DIAN07,
Yes-No Task,24,0,24,0,9.8,-1,Correct Rejection,0.233959899982,False,-1,stimulus_DIAN07_Yes-No Task_2019_Jun_13_1636_400,-1,False,2019_Jun_13_1636,Yes-No Task,2,DIAN07,
Yes-No Task,25,0,25,0,9.8,-1,Miss,0.26687910012,True,-1,stimulus_DIAN07_Yes-No Task_2019_Jun_13_1636_401,-1,False,2019_Jun_13_1636,Yes-No Task,2,DIAN07,
Yes-No Task,26,0,26,0,9.8,-1,Correct Rejection,0.16718969983,False,-1,stimulus_DIAN07_Yes-No Task_2019_Jun_13_1636_402,-1,False,2019_Jun_13_1636,Yes-No Task,2,DIAN07,
Yes-No Task,27,0,27,0,9.8,-1,Miss,0.334433599841,True,-1,stimulus_DIAN07_Yes-No Task_2019_Jun_13_1636_403,-1,False,2019_Jun_13_1636,Yes-No Task,2,DIAN07,
Yes-No Task,28,0,28,0,9.8,-1,Miss,0.366928800009,True,-1,stimulus_DIAN07_Yes-No Task_2019_Jun_13_1636_404,-1,False,2019_Jun_13_1636,Yes-No Task,2,DIAN07,
Yes-No Task,29,0,29,0,9.8,-1,Hit,0.333937699907,True,-1,stimulus_DIAN07_Yes-No Task_2019_Jun_13_1636_405,-1,False,2019_Jun_13_1636,Yes-No Task,2,DIAN07,
Yes-No Task,30,0,30,0,9.8,-1,Hit,0.332998699974,True,-1,stimulus_DIAN07_Yes-No Task_2019_Jun_13_1636_406,-1,False,2019_Jun_13_1636,Yes-No Task,2,DIAN07,
Yes-No Task,31,0,31,0,9.8,-1,Hit,0.333937800024,True,-1,stimulus_DIAN07_Yes-No Task_2019_Jun_13_1636_407,-1,False,2019_Jun_13_1636,Yes-No Task,2,DIAN07,
Yes-No Task,32,0,32,0,9.8,-1,False Alarm,0.266301099909,False,-1,stimulus_DIAN07_Yes-No Task_2019_Jun_13_1636_408,-1,False,2019_Jun_13_1636,Yes-No Task,2,DIAN07,
Yes-No Task,33,0,33,0,9.8,-1,Correct Rejection,0.267096299911,False,-1,stimulus_DIAN07_Yes-No Task_2019_Jun_13_1636_409,-1,False,2019_Jun_13_1636,Yes-No Task,2,DIAN07,
Yes-No Task,34,0,34,0,9.8,-1,Miss,0.268574299989,True,-1,stimulus_DIAN07_Yes-No Task_2019_Jun_13_1636_410,-1,False,2019_Jun_13_1636,Yes-No Task,2,DIAN07,
Yes-No Task,35,0,35,0,9.8,-1,False Alarm,0.234340299852,False,-1,stimulus_DIAN07_Yes-No Task_2019_Jun_13_1636_411,-1,False,2019_Jun_13_1636,Yes-No Task,2,DIAN07,
Yes-No Task,36,0,36,0,9.8,-1,Miss,0.465620700037,True,-1,stimulus_DIAN07_Yes-No Task_2019_Jun_13_1636_412,-1,False,2019_Jun_13_1636,Yes-No Task,2,DIAN07,
Yes-No Task,37,0,37,0,9.8,-1,Hit,0.433647600003,True,-1,stimulus_DIAN07_Yes-No Task_2019_Jun_13_1636_413,-1,False,2019_Jun_13_1636,Yes-No Task,2,DIAN07,
Yes-No Task,38,0,38,0,9.8,-1,Miss,0.434422900202,True,-1,stimulus_DIAN07_Yes-No Task_2019_Jun_13_1636_414,-1,False,2019_Jun_13_1636,Yes-No Task,2,DIAN07,
Yes-No Task,39,0,39,0,9.8,-1,Hit,0.334088200005,True,-1,stimulus_DIAN07_Yes-No Task_2019_Jun_13_1636_415,-1,False,2019_Jun_13_1636,Yes-No Task,2,DIAN07,
Yes-No Task,40,0,40,0,9.8,-1,Hit,0.30081470008,True,-1,stimulus_DIAN07_Yes-No Task_2019_Jun_13_1636_416,-1,False,2019_Jun_13_1636,Yes-No Task,2,DIAN07,
Yes-No Task,41,0,41,0,9.8,-1,Hit,0.300740600098,True,-1,stimulus_DIAN07_Yes-No Task_2019_Jun_13_1636_417,-1,False,2019_Jun_13_1636,Yes-No Task,2,DIAN07,
Yes-No Task,42,0,42,0,9.8,-1,Hit,0.36837819987,True,-1,stimulus_DIAN07_Yes-No Task_2019_Jun_13_1636_418,-1,False,2019_Jun_13_1636,Yes-No Task,2,DIAN07,
Yes-No Task,43,0,43,0,9.8,-1,False Alarm,0.468107799999,False,-1,stimulus_DIAN07_Yes-No Task_2019_Jun_13_1636_419,-1,False,2019_Jun_13_1636,Yes-No Task,2,DIAN07,
Yes-No Task,44,0,44,0,9.8,-1,Hit,0.599683400011,True,-1,stimulus_DIAN07_Yes-No Task_2019_Jun_13_1636_420,-1,False,2019_Jun_13_1636,Yes-No Task,2,DIAN07,
Yes-No Task,45,0,45,0,9.8,-1,Hit,0.533978399821,True,-1,stimulus_DIAN07_Yes-No Task_2019_Jun_13_1636_421,-1,False,2019_Jun_13_1636,Yes-No Task,2,DIAN07,
Yes-No Task,46,0,46,0,9.8,-1,Correct Rejection,0.533656199928,False,-1,stimulus_DIAN07_Yes-No Task_2019_Jun_13_1636_422,-1,False,2019_Jun_13_1636,Yes-No Task,2,DIAN07,
Yes-No Task,47,0,47,0,9.8,-1,Correct Rejection,0.634685700061,False,-1,stimulus_DIAN07_Yes-No Task_2019_Jun_13_1636_423,-1,False,2019_Jun_13_1636,Yes-No Task,2,DIAN07,
Yes-No Task,48,0,48,0,9.8,-1,Hit,0.63478130009,True,-1,stimulus_DIAN07_Yes-No Task_2019_Jun_13_1636_424,-1,False,2019_Jun_13_1636,Yes-No Task,2,DIAN07,
Yes-No Task,49,0,49,0,9.8,-1,Hit,0.702615399845,True,-1,stimulus_DIAN07_Yes-No Task_2019_Jun_13_1636_425,-1,False,2019_Jun_13_1636,Yes-No Task,2,DIAN07,
Yes-No Task,50,0,50,0,9.8,-1,Correct Rejection,0.497024599928,False,-1,stimulus_DIAN07_Yes-No Task_2019_Jun_13_1636_426,-1,False,2019_Jun_13_1636,Yes-No Task,2,DIAN07,
Yes-No Task,51,0,51,0,9.8,-1,No Answer,-1,True,-1,stimulus_DIAN07_Yes-No Task_2019_Jun_13_1636_427,-1,False,2019_Jun_13_1636,Yes-No Task,2,DIAN07,
Yes-No Task,52,0,52,0,9.8,-1,Miss,0.533922099974,True,-1,stimulus_DIAN07_Yes-No Task_2019_Jun_13_1636_428,-1,False,2019_Jun_13_1636,Yes-No Task,2,DIAN07,
Yes-No Task,53,0,53,0,9.8,-1,Hit,0.300479600206,True,-1,stimulus_DIAN07_Yes-No Task_2019_Jun_13_1636_429,-1,False,2019_Jun_13_1636,Yes-No Task,2,DIAN07,
Yes-No Task,54,0,54,0,9.8,-1,Hit,0.46710229991,True,-1,stimulus_DIAN07_Yes-No Task_2019_Jun_13_1636_430,-1,False,2019_Jun_13_1636,Yes-No Task,2,DIAN07,
Yes-No Task,55,0,55,0,9.8,-1,Hit,0.300503299804,True,-1,stimulus_DIAN07_Yes-No Task_2019_Jun_13_1636_431,-1,False,2019_Jun_13_1636,Yes-No Task,2,DIAN07,
Yes-No Task,56,0,56,0,9.8,-1,Hit,0.3332467,True,-1,stimulus_DIAN07_Yes-No Task_2019_Jun_13_1636_432,-1,False,2019_Jun_13_1636,Yes-No Task,2,DIAN07,
Yes-No Task,57,0,57,0,9.8,-1,False Alarm,0.368392300094,False,-1,stimulus_DIAN07_Yes-No Task_2019_Jun_13_1636_433,-1,False,2019_Jun_13_1636,Yes-No Task,2,DIAN07,
Yes-No Task,58,0,58,0,9.8,-1,Miss,0.267087799963,True,-1,stimulus_DIAN07_Yes-No Task_2019_Jun_13_1636_434,-1,False,2019_Jun_13_1636,Yes-No Task,2,DIAN07,
Yes-No Task,59,0,59,0,9.8,-1,Hit,0.333772700047,True,-1,stimulus_DIAN07_Yes-No Task_2019_Jun_13_1636_435,-1,False,2019_Jun_13_1636,Yes-No Task,2,DIAN07,
Yes-No Task,60,0,60,0,9.8,-1,Hit,0.400750400033,True,-1,stimulus_DIAN07_Yes-No Task_2019_Jun_13_1636_436,-1,False,2019_Jun_13_1636,Yes-No Task,2,DIAN07,
Yes-No Task,61,0,61,0,9.8,-1,False Alarm,0.334880300099,False,-1,stimulus_DIAN07_Yes-No Task_2019_Jun_13_1636_437,-1,False,2019_Jun_13_1636,Yes-No Task,2,DIAN07,
Yes-No Task,62,0,62,0,9.8,-1,Miss,0.302061600145,True,-1,stimulus_DIAN07_Yes-No Task_2019_Jun_13_1636_438,-1,False,2019_Jun_13_1636,Yes-No Task,2,DIAN07,
Yes-No Task,63,0,63,0,9.8,-1,False Alarm,0.234427599935,False,-1,stimulus_DIAN07_Yes-No Task_2019_Jun_13_1636_439,-1,False,2019_Jun_13_1636,Yes-No Task,2,DIAN07,
Yes-No Task,64,0,64,0,9.8,-1,Correct Rejection,0.500236699823,False,-1,stimulus_DIAN07_Yes-No Task_2019_Jun_13_1636_440,-1,False,2019_Jun_13_1636,Yes-No Task,2,DIAN07,
Yes-No Task,65,0,65,0,9.8,-1,Hit,0.367899999954,True,-1,stimulus_DIAN07_Yes-No Task_2019_Jun_13_1636_441,-1,False,2019_Jun_13_1636,Yes-No Task,2,DIAN07,
Yes-No Task,66,0,66,0,9.8,-1,False Alarm,0.300060499925,False,-1,stimulus_DIAN07_Yes-No Task_2019_Jun_13_1636_442,-1,False,2019_Jun_13_1636,Yes-No Task,2,DIAN07,
Yes-No Task,67,0,67,0,9.8,-1,Miss,0.200308699859,True,-1,stimulus_DIAN07_Yes-No Task_2019_Jun_13_1636_443,-1,False,2019_Jun_13_1636,Yes-No Task,2,DIAN07,
Yes-No Task,68,0,68,0,9.8,-1,False Alarm,0.168343099998,False,-1,stimulus_DIAN07_Yes-No Task_2019_Jun_13_1636_444,-1,False,2019_Jun_13_1636,Yes-No Task,2,DIAN07,
Yes-No Task,69,0,69,0,9.8,-1,Correct Rejection,0.500603900058,False,-1,stimulus_DIAN07_Yes-No Task_2019_Jun_13_1636_445,-1,False,2019_Jun_13_1636,Yes-No Task,2,DIAN07,
Yes-No Task,70,0,70,0,9.8,-1,Hit,0.400770699838,True,-1,stimulus_DIAN07_Yes-No Task_2019_Jun_13_1636_446,-1,False,2019_Jun_13_1636,Yes-No Task,2,DIAN07,
Yes-No Task,71,0,71,0,9.8,-1,Hit,0.433271000162,True,-1,stimulus_DIAN07_Yes-No Task_2019_Jun_13_1636_447,-1,False,2019_Jun_13_1636,Yes-No Task,2,DIAN07,
Yes-No Task,72,0,72,0,9.8,-1,Hit,0.300534700043,True,-1,stimulus_DIAN07_Yes-No Task_2019_Jun_13_1636_448,-1,False,2019_Jun_13_1636,Yes-No Task,2,DIAN07,
Yes-No Task,73,0,73,0,9.8,-1,False Alarm,0.401477900101,False,-1,stimulus_DIAN07_Yes-No Task_2019_Jun_13_1636_449,-1,False,2019_Jun_13_1636,Yes-No Task,2,DIAN07,
Yes-No Task,74,0,74,0,9.8,-1,False Alarm,0.600699499948,False,-1,stimulus_DIAN07_Yes-No Task_2019_Jun_13_1636_450,-1,False,2019_Jun_13_1636,Yes-No Task,2,DIAN07,
Yes-No Task,0,0,0,0,13.9,-1,Correct Rejection,0.501023499994,False,-1,stimulus_DIAN07_Yes-No Task_2019_Jun_13_1636_451,-1,False,2019_Jun_13_1636,Yes-No Task,2,DIAN07,
Yes-No Task,1,0,1,0,13.9,-1,Correct Rejection,0.435744500021,False,-1,stimulus_DIAN07_Yes-No Task_2019_Jun_13_1636_452,-1,False,2019_Jun_13_1636,Yes-No Task,2,DIAN07,
Yes-No Task,2,0,2,0,13.9,-1,Correct Rejection,0.400728499983,False,-1,stimulus_DIAN07_Yes-No Task_2019_Jun_13_1636_453,-1,False,2019_Jun_13_1636,Yes-No Task,2,DIAN07,
Yes-No Task,3,0,3,0,13.9,-1,Hit,0.500313699944,True,-1,stimulus_DIAN07_Yes-No Task_2019_Jun_13_1636_454,-1,False,2019_Jun_13_1636,Yes-No Task,2,DIAN07,
Yes-No Task,4,0,4,0,13.9,-1,Miss,0.400321200024,True,-1,stimulus_DIAN07_Yes-No Task_2019_Jun_13_1636_455,-1,False,2019_Jun_13_1636,Yes-No Task,2,DIAN07,
Yes-No Task,5,0,5,0,13.9,-1,Miss,0.567582800053,True,-1,stimulus_DIAN07_Yes-No Task_2019_Jun_13_1636_456,-1,False,2019_Jun_13_1636,Yes-No Task,2,DIAN07,
Yes-No Task,6,0,6,0,13.9,-1,Hit,0.467650200007,True,-1,stimulus_DIAN07_Yes-No Task_2019_Jun_13_1636_457,-1,False,2019_Jun_13_1636,Yes-No Task,2,DIAN07,
Yes-No Task,7,0,7,0,13.9,-1,Correct Rejection,0.566418299917,False,-1,stimulus_DIAN07_Yes-No Task_2019_Jun_13_1636_458,-1,False,2019_Jun_13_1636,Yes-No Task,2,DIAN07,
Yes-No Task,8,0,8,0,13.9,-1,Hit,0.467027500039,True,-1,stimulus_DIAN07_Yes-No Task_2019_Jun_13_1636_459,-1,False,2019_Jun_13_1636,Yes-No Task,2,DIAN07,
Yes-No Task,9,0,9,0,13.9,-1,Hit,0.501529700123,True,-1,stimulus_DIAN07_Yes-No Task_2019_Jun_13_1636_460,-1,False,2019_Jun_13_1636,Yes-No Task,2,DIAN07,
Yes-No Task,10,0,10,0,13.9,-1,Correct Rejection,0.499933799962,False,-1,stimulus_DIAN07_Yes-No Task_2019_Jun_13_1636_461,-1,False,2019_Jun_13_1636,Yes-No Task,2,DIAN07,
Yes-No Task,11,0,11,0,13.9,-1,Hit,0.500405899948,True,-1,stimulus_DIAN07_Yes-No Task_2019_Jun_13_1636_462,-1,False,2019_Jun_13_1636,Yes-No Task,2,DIAN07,
Yes-No Task,12,0,12,0,13.9,-1,Hit,0.500694999937,True,-1,stimulus_DIAN07_Yes-No Task_2019_Jun_13_1636_463,-1,False,2019_Jun_13_1636,Yes-No Task,2,DIAN07,
Yes-No Task,13,0,13,0,13.9,-1,Hit,0.43419900001,True,-1,stimulus_DIAN07_Yes-No Task_2019_Jun_13_1636_464,-1,False,2019_Jun_13_1636,Yes-No Task,2,DIAN07,
Yes-No Task,14,0,14,0,13.9,-1,Correct Rejection,0.599521900062,False,-1,stimulus_DIAN07_Yes-No Task_2019_Jun_13_1636_465,-1,False,2019_Jun_13_1636,Yes-No Task,2,DIAN07,
Yes-No Task,15,0,15,0,13.9,-1,Hit,0.433313000016,True,-1,stimulus_DIAN07_Yes-No Task_2019_Jun_13_1636_466,-1,False,2019_Jun_13_1636,Yes-No Task,2,DIAN07,
Yes-No Task,16,0,16,0,13.9,-1,Hit,0.500577499857,True,-1,stimulus_DIAN07_Yes-No Task_2019_Jun_13_1636_467,-1,False,2019_Jun_13_1636,Yes-No Task,2,DIAN07,
Yes-No Task,17,0,17,0,13.9,-1,Hit,0.466941899853,True,-1,stimulus_DIAN07_Yes-No Task_2019_Jun_13_1636_468,-1,False,2019_Jun_13_1636,Yes-No Task,2,DIAN07,
Yes-No Task,18,0,18,0,13.9,-1,Hit,0.399549199967,True,-1,stimulus_DIAN07_Yes-No Task_2019_Jun_13_1636_469,-1,False,2019_Jun_13_1636,Yes-No Task,2,DIAN07,
Yes-No Task,19,0,19,0,13.9,-1,False Alarm,0.400558300084,False,-1,stimulus_DIAN07_Yes-No Task_2019_Jun_13_1636_470,-1,False,2019_Jun_13_1636,Yes-No Task,2,DIAN07,
Yes-No Task,20,0,20,0,13.9,-1,Correct Rejection,0.567880900111,False,-1,stimulus_DIAN07_Yes-No Task_2019_Jun_13_1636_471,-1,False,2019_Jun_13_1636,Yes-No Task,2,DIAN07,
Yes-No Task,21,0,21,0,13.9,-1,Hit,0.53459950001,True,-1,stimulus_DIAN07_Yes-No Task_2019_Jun_13_1636_472,-1,False,2019_Jun_13_1636,Yes-No Task,2,DIAN07,
Yes-No Task,22,0,22,0,13.9,-1,Correct Rejection,0.600955500035,False,-1,stimulus_DIAN07_Yes-No Task_2019_Jun_13_1636_473,-1,False,2019_Jun_13_1636,Yes-No Task,2,DIAN07,
Yes-No Task,23,0,23,0,13.9,-1,Hit,0.400335500017,True,-1,stimulus_DIAN07_Yes-No Task_2019_Jun_13_1636_474,-1,False,2019_Jun_13_1636,Yes-No Task,2,DIAN07,
Yes-No Task,24,0,24,0,13.9,-1,Hit,0.434033300029,True,-1,stimulus_DIAN07_Yes-No Task_2019_Jun_13_1636_475,-1,False,2019_Jun_13_1636,Yes-No Task,2,DIAN07,
Yes-No Task,25,0,25,0,13.9,-1,Correct Rejection,0.534182499861,False,-1,stimulus_DIAN07_Yes-No Task_2019_Jun_13_1636_476,-1,False,2019_Jun_13_1636,Yes-No Task,2,DIAN07,
Yes-No Task,26,0,26,0,13.9,-1,Correct Rejection,0.600120499963,False,-1,stimulus_DIAN07_Yes-No Task_2019_Jun_13_1636_477,-1,False,2019_Jun_13_1636,Yes-No Task,2,DIAN07,
Yes-No Task,27,0,27,0,13.9,-1,Correct Rejection,0.534419799922,False,-1,stimulus_DIAN07_Yes-No Task_2019_Jun_13_1636_478,-1,False,2019_Jun_13_1636,Yes-No Task,2,DIAN07,
Yes-No Task,28,0,28,0,13.9,-1,Hit,0.500095000025,True,-1,stimulus_DIAN07_Yes-No Task_2019_Jun_13_1636_479,-1,False,2019_Jun_13_1636,Yes-No Task,2,DIAN07,
Yes-No Task,29,0,29,0,13.9,-1,Hit,0.433551399969,True,-1,stimulus_DIAN07_Yes-No Task_2019_Jun_13_1636_480,-1,False,2019_Jun_13_1636,Yes-No Task,2,DIAN07,
Yes-No Task,30,0,30,0,13.9,-1,Correct Rejection,0.533676400082,False,-1,stimulus_DIAN07_Yes-No Task_2019_Jun_13_1636_481,-1,False,2019_Jun_13_1636,Yes-No Task,2,DIAN07,
Yes-No Task,31,0,31,0,13.9,-1,Correct Rejection,0.468534899876,False,-1,stimulus_DIAN07_Yes-No Task_2019_Jun_13_1636_482,-1,False,2019_Jun_13_1636,Yes-No Task,2,DIAN07,
Yes-No Task,32,0,32,0,13.9,-1,Correct Rejection,0.567536099814,False,-1,stimulus_DIAN07_Yes-No Task_2019_Jun_13_1636_483,-1,False,2019_Jun_13_1636,Yes-No Task,2,DIAN07,
Yes-No Task,33,0,33,0,13.9,-1,Hit,0.400524499826,True,-1,stimulus_DIAN07_Yes-No Task_2019_Jun_13_1636_484,-1,False,2019_Jun_13_1636,Yes-No Task,2,DIAN07,
Yes-No Task,34,0,34,0,13.9,-1,Hit,0.467517100042,True,-1,stimulus_DIAN07_Yes-No Task_2019_Jun_13_1636_485,-1,False,2019_Jun_13_1636,Yes-No Task,2,DIAN07,
Yes-No Task,35,0,35,0,13.9,-1,Hit,0.467244799947,True,-1,stimulus_DIAN07_Yes-No Task_2019_Jun_13_1636_486,-1,False,2019_Jun_13_1636,Yes-No Task,2,DIAN07,
Yes-No Task,36,0,36,0,13.9,-1,Hit,0.367005999899,True,-1,stimulus_DIAN07_Yes-No Task_2019_Jun_13_1636_487,-1,False,2019_Jun_13_1636,Yes-No Task,2,DIAN07,
Yes-No Task,37,0,37,0,13.9,-1,Correct Rejection,0.500630200142,False,-1,stimulus_DIAN07_Yes-No Task_2019_Jun_13_1636_488,-1,False,2019_Jun_13_1636,Yes-No Task,2,DIAN07,
Yes-No Task,38,0,38,0,13.9,-1,Miss,0.399587800028,True,-1,stimulus_DIAN07_Yes-No Task_2019_Jun_13_1636_489,-1,False,2019_Jun_13_1636,Yes-No Task,2,DIAN07,
Yes-No Task,39,0,39,0,13.9,-1,Correct Rejection,0.534440299962,False,-1,stimulus_DIAN07_Yes-No Task_2019_Jun_13_1636_490,-1,False,2019_Jun_13_1636,Yes-No Task,2,DIAN07,
Yes-No Task,40,0,40,0,13.9,-1,Correct Rejection,0.46800870006,False,-1,stimulus_DIAN07_Yes-No Task_2019_Jun_13_1636_491,-1,False,2019_Jun_13_1636,Yes-No Task,2,DIAN07,
Yes-No Task,41,0,41,0,13.9,-1,Correct Rejection,0.468619100051,False,-1,stimulus_DIAN07_Yes-No Task_2019_Jun_13_1636_492,-1,False,2019_Jun_13_1636,Yes-No Task,2,DIAN07,
Yes-No Task,42,0,42,0,13.9,-1,Hit,0.50011090003,True,-1,stimulus_DIAN07_Yes-No Task_2019_Jun_13_1636_493,-1,False,2019_Jun_13_1636,Yes-No Task,2,DIAN07,
Yes-No Task,43,0,43,0,13.9,-1,Hit,0.43409330002,True,-1,stimulus_DIAN07_Yes-No Task_2019_Jun_13_1636_494,-1,False,2019_Jun_13_1636,Yes-No Task,2,DIAN07,
Yes-No Task,44,0,44,0,13.9,-1,Hit,0.433633900015,True,-1,stimulus_DIAN07_Yes-No Task_2019_Jun_13_1636_495,-1,False,2019_Jun_13_1636,Yes-No Task,2,DIAN07,
Yes-No Task,45,0,45,0,13.9,-1,Correct Rejection,0.533401499968,False,-1,stimulus_DIAN07_Yes-No Task_2019_Jun_13_1636_496,-1,False,2019_Jun_13_1636,Yes-No Task,2,DIAN07,
Yes-No Task,46,0,46,0,13.9,-1,Correct Rejection,0.534738600021,False,-1,stimulus_DIAN07_Yes-No Task_2019_Jun_13_1636_497,-1,False,2019_Jun_13_1636,Yes-No Task,2,DIAN07,
Yes-No Task,47,0,47,0,13.9,-1,Hit,0.434412699891,True,-1,stimulus_DIAN07_Yes-No Task_2019_Jun_13_1636_498,-1,False,2019_Jun_13_1636,Yes-No Task,2,DIAN07,
Yes-No Task,48,0,48,0,13.9,-1,Hit,0.434583999915,True,-1,stimulus_DIAN07_Yes-No Task_2019_Jun_13_1636_499,-1,False,2019_Jun_13_1636,Yes-No Task,2,DIAN07,
Yes-No Task,49,0,49,0,13.9,-1,Correct Rejection,0.500547399977,False,-1,stimulus_DIAN07_Yes-No Task_2019_Jun_13_1636_500,-1,False,2019_Jun_13_1636,Yes-No Task,2,DIAN07,
Yes-No Task,50,0,50,0,13.9,-1,Hit,0.400748800021,True,-1,stimulus_DIAN07_Yes-No Task_2019_Jun_13_1636_501,-1,False,2019_Jun_13_1636,Yes-No Task,2,DIAN07,
Yes-No Task,51,0,51,0,13.9,-1,Hit,0.400374100078,True,-1,stimulus_DIAN07_Yes-No Task_2019_Jun_13_1636_502,-1,False,2019_Jun_13_1636,Yes-No Task,2,DIAN07,
Yes-No Task,52,0,52,0,13.9,-1,Correct Rejection,0.532962299883,False,-1,stimulus_DIAN07_Yes-No Task_2019_Jun_13_1636_503,-1,False,2019_Jun_13_1636,Yes-No Task,2,DIAN07,
Yes-No Task,53,0,53,0,13.9,-1,Hit,0.434305799892,True,-1,stimulus_DIAN07_Yes-No Task_2019_Jun_13_1636_504,-1,False,2019_Jun_13_1636,Yes-No Task,2,DIAN07,
Yes-No Task,54,0,54,0,13.9,-1,Hit,0.467829799978,True,-1,stimulus_DIAN07_Yes-No Task_2019_Jun_13_1636_505,-1,False,2019_Jun_13_1636,Yes-No Task,2,DIAN07,
Yes-No Task,55,0,55,0,13.9,-1,Hit,0.367068300024,True,-1,stimulus_DIAN07_Yes-No Task_2019_Jun_13_1636_506,-1,False,2019_Jun_13_1636,Yes-No Task,2,DIAN07,
Yes-No Task,56,0,56,0,13.9,-1,Hit,0.433776299935,True,-1,stimulus_DIAN07_Yes-No Task_2019_Jun_13_1636_507,-1,False,2019_Jun_13_1636,Yes-No Task,2,DIAN07,
Yes-No Task,57,0,57,0,13.9,-1,Correct Rejection,0.533182400046,False,-1,stimulus_DIAN07_Yes-No Task_2019_Jun_13_1636_508,-1,False,2019_Jun_13_1636,Yes-No Task,2,DIAN07,
Yes-No Task,58,0,58,0,13.9,-1,Correct Rejection,0.60116579989,False,-1,stimulus_DIAN07_Yes-No Task_2019_Jun_13_1636_509,-1,False,2019_Jun_13_1636,Yes-No Task,2,DIAN07,
Yes-No Task,59,0,59,0,13.9,-1,Correct Rejection,0.466540500056,False,-1,stimulus_DIAN07_Yes-No Task_2019_Jun_13_1636_510,-1,False,2019_Jun_13_1636,Yes-No Task,2,DIAN07,
Yes-No Task,60,0,60,0,13.9,-1,Hit,0.567922299961,True,-1,stimulus_DIAN07_Yes-No Task_2019_Jun_13_1636_511,-1,False,2019_Jun_13_1636,Yes-No Task,2,DIAN07,
Yes-No Task,61,0,61,0,13.9,-1,Hit,0.400507899933,True,-1,stimulus_DIAN07_Yes-No Task_2019_Jun_13_1636_512,-1,False,2019_Jun_13_1636,Yes-No Task,2,DIAN07,
Yes-No Task,62,0,62,0,13.9,-1,Correct Rejection,0.468360999832,False,-1,stimulus_DIAN07_Yes-No Task_2019_Jun_13_1636_513,-1,False,2019_Jun_13_1636,Yes-No Task,2,DIAN07,
Yes-No Task,63,0,63,0,13.9,-1,Hit,0.401618100004,True,-1,stimulus_DIAN07_Yes-No Task_2019_Jun_13_1636_514,-1,False,2019_Jun_13_1636,Yes-No Task,2,DIAN07,
Yes-No Task,64,0,64,0,13.9,-1,Hit,0.434237700189,True,-1,stimulus_DIAN07_Yes-No Task_2019_Jun_13_1636_515,-1,False,2019_Jun_13_1636,Yes-No Task,2,DIAN07,
Yes-No Task,65,0,65,0,13.9,-1,Correct Rejection,0.434094500029,False,-1,stimulus_DIAN07_Yes-No Task_2019_Jun_13_1636_516,-1,False,2019_Jun_13_1636,Yes-No Task,2,DIAN07,
Yes-No Task,66,0,66,0,13.9,-1,Correct Rejection,0.468144299928,False,-1,stimulus_DIAN07_Yes-No Task_2019_Jun_13_1636_517,-1,False,2019_Jun_13_1636,Yes-No Task,2,DIAN07,
Yes-No Task,67,0,67,0,13.9,-1,Hit,0.401137299836,True,-1,stimulus_DIAN07_Yes-No Task_2019_Jun_13_1636_518,-1,False,2019_Jun_13_1636,Yes-No Task,2,DIAN07,
Yes-No Task,68,0,68,0,13.9,-1,Correct Rejection,0.632802200038,False,-1,stimulus_DIAN07_Yes-No Task_2019_Jun_13_1636_519,-1,False,2019_Jun_13_1636,Yes-No Task,2,DIAN07,
Yes-No Task,69,0,69,0,13.9,-1,Correct Rejection,0.467138499953,False,-1,stimulus_DIAN07_Yes-No Task_2019_Jun_13_1636_520,-1,False,2019_Jun_13_1636,Yes-No Task,2,DIAN07,
Yes-No Task,70,0,70,0,13.9,-1,Correct Rejection,0.467618099879,False,-1,stimulus_DIAN07_Yes-No Task_2019_Jun_13_1636_521,-1,False,2019_Jun_13_1636,Yes-No Task,2,DIAN07,
Yes-No Task,71,0,71,0,13.9,-1,Correct Rejection,0.632799600018,False,-1,stimulus_DIAN07_Yes-No Task_2019_Jun_13_1636_522,-1,False,2019_Jun_13_1636,Yes-No Task,2,DIAN07,
Yes-No Task,72,0,72,0,13.9,-1,Hit,0.468134699855,True,-1,stimulus_DIAN07_Yes-No Task_2019_Jun_13_1636_523,-1,False,2019_Jun_13_1636,Yes-No Task,2,DIAN07,
Yes-No Task,73,0,73,0,13.9,-1,Hit,0.467402699869,True,-1,stimulus_DIAN07_Yes-No Task_2019_Jun_13_1636_524,-1,False,2019_Jun_13_1636,Yes-No Task,2,DIAN07,
Yes-No Task,74,0,74,0,13.9,-1,Correct Rejection,0.434132900089,False,-1,stimulus_DIAN07_Yes-No Task_2019_Jun_13_1636_525,-1,False,2019_Jun_13_1636,Yes-No Task,2,DIAN07,
Yes-No Task,0,0,0,0,8.1,-1,Correct Rejection,0.566884500207,False,-1,stimulus_DIAN07_Yes-No Task_2019_Jun_13_1636_526,-1,False,2019_Jun_13_1636,Yes-No Task,2,DIAN07,
Yes-No Task,1,0,1,0,8.1,-1,Hit,0.600599100115,True,-1,stimulus_DIAN07_Yes-No Task_2019_Jun_13_1636_527,-1,False,2019_Jun_13_1636,Yes-No Task,2,DIAN07,
Yes-No Task,2,0,2,0,8.1,-1,Correct Rejection,0.467878999887,False,-1,stimulus_DIAN07_Yes-No Task_2019_Jun_13_1636_528,-1,False,2019_Jun_13_1636,Yes-No Task,2,DIAN07,
Yes-No Task,3,0,3,0,8.1,-1,Miss,0.434548699996,True,-1,stimulus_DIAN07_Yes-No Task_2019_Jun_13_1636_529,-1,False,2019_Jun_13_1636,Yes-No Task,2,DIAN07,
Yes-No Task,4,0,4,0,8.1,-1,Correct Rejection,0.502213299973,False,-1,stimulus_DIAN07_Yes-No Task_2019_Jun_13_1636_530,-1,False,2019_Jun_13_1636,Yes-No Task,2,DIAN07,
Yes-No Task,5,0,5,0,8.1,-1,Correct Rejection,0.469080700073,False,-1,stimulus_DIAN07_Yes-No Task_2019_Jun_13_1636_531,-1,False,2019_Jun_13_1636,Yes-No Task,2,DIAN07,
Yes-No Task,6,0,6,0,8.1,-1,Correct Rejection,0.402220499935,False,-1,stimulus_DIAN07_Yes-No Task_2019_Jun_13_1636_532,-1,False,2019_Jun_13_1636,Yes-No Task,2,DIAN07,
Yes-No Task,7,0,7,0,8.1,-1,Miss,0.400794500019,True,-1,stimulus_DIAN07_Yes-No Task_2019_Jun_13_1636_533,-1,False,2019_Jun_13_1636,Yes-No Task,2,DIAN07,
Yes-No Task,8,0,8,0,8.1,-1,Correct Rejection,0.467715300154,False,-1,stimulus_DIAN07_Yes-No Task_2019_Jun_13_1636_534,-1,False,2019_Jun_13_1636,Yes-No Task,2,DIAN07,
Yes-No Task,9,0,9,0,8.1,-1,Correct Rejection,0.434267399833,False,-1,stimulus_DIAN07_Yes-No Task_2019_Jun_13_1636_535,-1,False,2019_Jun_13_1636,Yes-No Task,2,DIAN07,
Yes-No Task,10,0,10,0,8.1,-1,Correct Rejection,0.500444400124,False,-1,stimulus_DIAN07_Yes-No Task_2019_Jun_13_1636_536,-1,False,2019_Jun_13_1636,Yes-No Task,2,DIAN07,
Yes-No Task,11,0,11,0,8.1,-1,Hit,0.599460199941,True,-1,stimulus_DIAN07_Yes-No Task_2019_Jun_13_1636_537,-1,False,2019_Jun_13_1636,Yes-No Task,2,DIAN07,
Yes-No Task,12,0,12,0,8.1,-1,Correct Rejection,0.53409239999,False,-1,stimulus_DIAN07_Yes-No Task_2019_Jun_13_1636_538,-1,False,2019_Jun_13_1636,Yes-No Task,2,DIAN07,
Yes-No Task,13,0,13,0,8.1,-1,Hit,0.533880200004,True,-1,stimulus_DIAN07_Yes-No Task_2019_Jun_13_1636_539,-1,False,2019_Jun_13_1636,Yes-No Task,2,DIAN07,
Yes-No Task,14,0,14,0,8.1,-1,Correct Rejection,0.500149700092,False,-1,stimulus_DIAN07_Yes-No Task_2019_Jun_13_1636_540,-1,False,2019_Jun_13_1636,Yes-No Task,2,DIAN07,
Yes-No Task,15,0,15,0,8.1,-1,Miss,0.533937799977,True,-1,stimulus_DIAN07_Yes-No Task_2019_Jun_13_1636_541,-1,False,2019_Jun_13_1636,Yes-No Task,2,DIAN07,
Yes-No Task,16,0,16,0,8.1,-1,Hit,0.400084000081,True,-1,stimulus_DIAN07_Yes-No Task_2019_Jun_13_1636_542,-1,False,2019_Jun_13_1636,Yes-No Task,2,DIAN07,
Yes-No Task,17,0,17,0,8.1,-1,Hit,0.432860200061,True,-1,stimulus_DIAN07_Yes-No Task_2019_Jun_13_1636_543,-1,False,2019_Jun_13_1636,Yes-No Task,2,DIAN07,
Yes-No Task,18,0,18,0,8.1,-1,Hit,0.367851400049,True,-1,stimulus_DIAN07_Yes-No Task_2019_Jun_13_1636_544,-1,False,2019_Jun_13_1636,Yes-No Task,2,DIAN07,
Yes-No Task,19,0,19,0,8.1,-1,Hit,0.40040230006,True,-1,stimulus_DIAN07_Yes-No Task_2019_Jun_13_1636_545,-1,False,2019_Jun_13_1636,Yes-No Task,2,DIAN07,
Yes-No Task,20,0,20,0,8.1,-1,False Alarm,0.333805800183,False,-1,stimulus_DIAN07_Yes-No Task_2019_Jun_13_1636_546,-1,False,2019_Jun_13_1636,Yes-No Task,2,DIAN07,
Yes-No Task,21,0,21,0,8.1,-1,False Alarm,0.534877700033,False,-1,stimulus_DIAN07_Yes-No Task_2019_Jun_13_1636_547,-1,False,2019_Jun_13_1636,Yes-No Task,2,DIAN07,
Yes-No Task,22,0,22,0,8.1,-1,False Alarm,0.60089510004,False,-1,stimulus_DIAN07_Yes-No Task_2019_Jun_13_1636_548,-1,False,2019_Jun_13_1636,Yes-No Task,2,DIAN07,
Yes-No Task,23,0,23,0,8.1,-1,False Alarm,0.668405700009,False,-1,stimulus_DIAN07_Yes-No Task_2019_Jun_13_1636_549,-1,False,2019_Jun_13_1636,Yes-No Task,2,DIAN07,
Yes-No Task,24,0,24,0,8.1,-1,Miss,0.500705700135,True,-1,stimulus_DIAN07_Yes-No Task_2019_Jun_13_1636_550,-1,False,2019_Jun_13_1636,Yes-No Task,2,DIAN07,
Yes-No Task,25,0,25,0,8.1,-1,Hit,0.434987100074,True,-1,stimulus_DIAN07_Yes-No Task_2019_Jun_13_1636_551,-1,False,2019_Jun_13_1636,Yes-No Task,2,DIAN07,
Yes-No Task,26,0,26,0,8.1,-1,False Alarm,0.63381629996,False,-1,stimulus_DIAN07_Yes-No Task_2019_Jun_13_1636_552,-1,False,2019_Jun_13_1636,Yes-No Task,2,DIAN07,
Yes-No Task,27,0,27,0,8.1,-1,Hit,0.533928799909,True,-1,stimulus_DIAN07_Yes-No Task_2019_Jun_13_1636_553,-1,False,2019_Jun_13_1636,Yes-No Task,2,DIAN07,
Yes-No Task,28,0,28,0,8.1,-1,Hit,0.435076900059,True,-1,stimulus_DIAN07_Yes-No Task_2019_Jun_13_1636_554,-1,False,2019_Jun_13_1636,Yes-No Task,2,DIAN07,
Yes-No Task,29,0,29,0,8.1,-1,False Alarm,0.467466900125,False,-1,stimulus_DIAN07_Yes-No Task_2019_Jun_13_1636_555,-1,False,2019_Jun_13_1636,Yes-No Task,2,DIAN07,
Yes-No Task,30,0,30,0,8.1,-1,False Alarm,0.733363599982,False,-1,stimulus_DIAN07_Yes-No Task_2019_Jun_13_1636_556,-1,False,2019_Jun_13_1636,Yes-No Task,2,DIAN07,
Yes-No Task,31,0,31,0,8.1,-1,Correct Rejection,0.500649399823,False,-1,stimulus_DIAN07_Yes-No Task_2019_Jun_13_1636_557,-1,False,2019_Jun_13_1636,Yes-No Task,2,DIAN07,
Yes-No Task,32,0,32,0,8.1,-1,Hit,0.433124900097,True,-1,stimulus_DIAN07_Yes-No Task_2019_Jun_13_1636_558,-1,False,2019_Jun_13_1636,Yes-No Task,2,DIAN07,
Yes-No Task,33,0,33,0,8.1,-1,False Alarm,0.401223100023,False,-1,stimulus_DIAN07_Yes-No Task_2019_Jun_13_1636_559,-1,False,2019_Jun_13_1636,Yes-No Task,2,DIAN07,
Yes-No Task,34,0,34,0,8.1,-1,Hit,0.367608899949,True,-1,stimulus_DIAN07_Yes-No Task_2019_Jun_13_1636_560,-1,False,2019_Jun_13_1636,Yes-No Task,2,DIAN07,
Yes-No Task,35,0,35,0,8.1,-1,Hit,0.434503300115,True,-1,stimulus_DIAN07_Yes-No Task_2019_Jun_13_1636_561,-1,False,2019_Jun_13_1636,Yes-No Task,2,DIAN07,
Yes-No Task,36,0,36,0,8.1,-1,Correct Rejection,0.60120769986,False,-1,stimulus_DIAN07_Yes-No Task_2019_Jun_13_1636_562,-1,False,2019_Jun_13_1636,Yes-No Task,2,DIAN07,
Yes-No Task,37,0,37,0,8.1,-1,Correct Rejection,0.667097100057,False,-1,stimulus_DIAN07_Yes-No Task_2019_Jun_13_1636_563,-1,False,2019_Jun_13_1636,Yes-No Task,2,DIAN07,
Yes-No Task,38,0,38,0,8.1,-1,Hit,0.468291299883,True,-1,stimulus_DIAN07_Yes-No Task_2019_Jun_13_1636_564,-1,False,2019_Jun_13_1636,Yes-No Task,2,DIAN07,
Yes-No Task,39,0,39,0,8.1,-1,Hit,0.600616600132,True,-1,stimulus_DIAN07_Yes-No Task_2019_Jun_13_1636_565,-1,False,2019_Jun_13_1636,Yes-No Task,2,DIAN07,
Yes-No Task,40,0,40,0,8.1,-1,Correct Rejection,0.600727600046,False,-1,stimulus_DIAN07_Yes-No Task_2019_Jun_13_1636_566,-1,False,2019_Jun_13_1636,Yes-No Task,2,DIAN07,
Yes-No Task,41,0,41,0,8.1,-1,Correct Rejection,0.668560700025,False,-1,stimulus_DIAN07_Yes-No Task_2019_Jun_13_1636_567,-1,False,2019_Jun_13_1636,Yes-No Task,2,DIAN07,
Yes-No Task,42,0,42,0,8.1,-1,Correct Rejection,0.567359599983,False,-1,stimulus_DIAN07_Yes-No Task_2019_Jun_13_1636_568,-1,False,2019_Jun_13_1636,Yes-No Task,2,DIAN07,
Yes-No Task,43,0,43,0,8.1,-1,False Alarm,0.466244300129,False,-1,stimulus_DIAN07_Yes-No Task_2019_Jun_13_1636_569,-1,False,2019_Jun_13_1636,Yes-No Task,2,DIAN07,
Yes-No Task,44,0,44,0,8.1,-1,Correct Rejection,0.435079299845,False,-1,stimulus_DIAN07_Yes-No Task_2019_Jun_13_1636_570,-1,False,2019_Jun_13_1636,Yes-No Task,2,DIAN07,
Yes-No Task,45,0,45,0,8.1,-1,Correct Rejection,0.534539500019,False,-1,stimulus_DIAN07_Yes-No Task_2019_Jun_13_1636_571,-1,False,2019_Jun_13_1636,Yes-No Task,2,DIAN07,
Yes-No Task,46,0,46,0,8.1,-1,Miss,0.500090899877,True,-1,stimulus_DIAN07_Yes-No Task_2019_Jun_13_1636_572,-1,False,2019_Jun_13_1636,Yes-No Task,2,DIAN07,
Yes-No Task,47,0,47,0,8.1,-1,False Alarm,0.400496900082,False,-1,stimulus_DIAN07_Yes-No Task_2019_Jun_13_1636_573,-1,False,2019_Jun_13_1636,Yes-No Task,2,DIAN07,
Yes-No Task,48,0,48,0,8.1,-1,False Alarm,0.168658000184,False,-1,stimulus_DIAN07_Yes-No Task_2019_Jun_13_1636_574,-1,False,2019_Jun_13_1636,Yes-No Task,2,DIAN07,
Yes-No Task,49,0,49,0,8.1,-1,Correct Rejection,0.299558300059,False,-1,stimulus_DIAN07_Yes-No Task_2019_Jun_13_1636_575,-1,False,2019_Jun_13_1636,Yes-No Task,2,DIAN07,
Yes-No Task,50,0,50,0,8.1,-1,Hit,0.466164600104,True,-1,stimulus_DIAN07_Yes-No Task_2019_Jun_13_1636_576,-1,False,2019_Jun_13_1636,Yes-No Task,2,DIAN07,
Yes-No Task,51,0,51,0,8.1,-1,Correct Rejection,0.433850000147,False,-1,stimulus_DIAN07_Yes-No Task_2019_Jun_13_1636_577,-1,False,2019_Jun_13_1636,Yes-No Task,2,DIAN07,
Yes-No Task,52,0,52,0,8.1,-1,Hit,0.367575099925,True,-1,stimulus_DIAN07_Yes-No Task_2019_Jun_13_1636_578,-1,False,2019_Jun_13_1636,Yes-No Task,2,DIAN07,
Yes-No Task,53,0,53,0,8.1,-1,False Alarm,0.334673500154,False,-1,stimulus_DIAN07_Yes-No Task_2019_Jun_13_1636_579,-1,False,2019_Jun_13_1636,Yes-No Task,2,DIAN07,
Yes-No Task,54,0,54,0,8.1,-1,Miss,0.299709799932,True,-1,stimulus_DIAN07_Yes-No Task_2019_Jun_13_1636_580,-1,False,2019_Jun_13_1636,Yes-No Task,2,DIAN07,
Yes-No Task,55,0,55,0,8.1,-1,False Alarm,0.06577129988,False,-1,stimulus_DIAN07_Yes-No Task_2019_Jun_13_1636_581,-1,False,2019_Jun_13_1636,Yes-No Task,2,DIAN07,
Yes-No Task,56,0,56,0,8.1,-1,Correct Rejection,0.235410500085,False,-1,stimulus_DIAN07_Yes-No Task_2019_Jun_13_1636_582,-1,False,2019_Jun_13_1636,Yes-No Task,2,DIAN07,
Yes-No Task,57,0,57,0,8.1,-1,Correct Rejection,0.367632099893,False,-1,stimulus_DIAN07_Yes-No Task_2019_Jun_13_1636_583,-1,False,2019_Jun_13_1636,Yes-No Task,2,DIAN07,
Yes-No Task,58,0,58,0,8.1,-1,False Alarm,0.335225900169,False,-1,stimulus_DIAN07_Yes-No Task_2019_Jun_13_1636_584,-1,False,2019_Jun_13_1636,Yes-No Task,2,DIAN07,
Yes-No Task,59,0,59,0,8.1,-1,Miss,0.232762900181,True,-1,stimulus_DIAN07_Yes-No Task_2019_Jun_13_1636_585,-1,False,2019_Jun_13_1636,Yes-No Task,2,DIAN07,
Yes-No Task,60,0,60,0,8.1,-1,False Alarm,0.200290799839,False,-1,stimulus_DIAN07_Yes-No Task_2019_Jun_13_1636_586,-1,False,2019_Jun_13_1636,Yes-No Task,2,DIAN07,
Yes-No Task,61,0,61,0,8.1,-1,False Alarm,0.301237199921,False,-1,stimulus_DIAN07_Yes-No Task_2019_Jun_13_1636_587,-1,False,2019_Jun_13_1636,Yes-No Task,2,DIAN07,
Yes-No Task,62,0,62,0,8.1,-1,False Alarm,0.200603999896,False,-1,stimulus_DIAN07_Yes-No Task_2019_Jun_13_1636_588,-1,False,2019_Jun_13_1636,Yes-No Task,2,DIAN07,
Yes-No Task,63,0,63,0,8.1,-1,False Alarm,0.369264499983,False,-1,stimulus_DIAN07_Yes-No Task_2019_Jun_13_1636_589,-1,False,2019_Jun_13_1636,Yes-No Task,2,DIAN07,
Yes-No Task,64,0,64,0,8.1,-1,Correct Rejection,0.700265199877,False,-1,stimulus_DIAN07_Yes-No Task_2019_Jun_13_1636_590,-1,False,2019_Jun_13_1636,Yes-No Task,2,DIAN07,
Yes-No Task,65,0,65,0,8.1,-1,Miss,0.433926300146,True,-1,stimulus_DIAN07_Yes-No Task_2019_Jun_13_1636_591,-1,False,2019_Jun_13_1636,Yes-No Task,2,DIAN07,
Yes-No Task,66,0,66,0,8.1,-1,False Alarm,0.298884599935,False,-1,stimulus_DIAN07_Yes-No Task_2019_Jun_13_1636_592,-1,False,2019_Jun_13_1636,Yes-No Task,2,DIAN07,
Yes-No Task,67,0,67,0,8.1,-1,Miss,0.269175099907,True,-1,stimulus_DIAN07_Yes-No Task_2019_Jun_13_1636_593,-1,False,2019_Jun_13_1636,Yes-No Task,2,DIAN07,
Yes-No Task,68,0,68,0,8.1,-1,False Alarm,0.133345300099,False,-1,stimulus_DIAN07_Yes-No Task_2019_Jun_13_1636_594,-1,False,2019_Jun_13_1636,Yes-No Task,2,DIAN07,
Yes-No Task,69,0,69,0,8.1,-1,Miss,0.467125099851,True,-1,stimulus_DIAN07_Yes-No Task_2019_Jun_13_1636_595,-1,False,2019_Jun_13_1636,Yes-No Task,2,DIAN07,
Yes-No Task,70,0,70,0,8.1,-1,Hit,0.40056609991,True,-1,stimulus_DIAN07_Yes-No Task_2019_Jun_13_1636_596,-1,False,2019_Jun_13_1636,Yes-No Task,2,DIAN07,
Yes-No Task,71,0,71,0,8.1,-1,Hit,0.367361800047,True,-1,stimulus_DIAN07_Yes-No Task_2019_Jun_13_1636_597,-1,False,2019_Jun_13_1636,Yes-No Task,2,DIAN07,
Yes-No Task,72,0,72,0,8.1,-1,False Alarm,0.400705299806,False,-1,stimulus_DIAN07_Yes-No Task_2019_Jun_13_1636_598,-1,False,2019_Jun_13_1636,Yes-No Task,2,DIAN07,
Yes-No Task,73,0,73,0,8.1,-1,Hit,0.403336499818,True,-1,stimulus_DIAN07_Yes-No Task_2019_Jun_13_1636_599,-1,False,2019_Jun_13_1636,Yes-No Task,2,DIAN07,
Yes-No Task,74,0,74,0,8.1,-1,Hit,0.300967599964,True,-1,stimulus_DIAN07_Yes-No Task_2019_Jun_13_1636_600,-1,False,2019_Jun_13_1636,Yes-No Task,2,DIAN07,
