Task,trials.thisRepN,trials.thisTrialN,trials.thisN,trials.thisIndex,signal_intensity,constant Value,response,time_response,signal_on_stimuluspos1,signal_on_stimuluspos2,stimulus_name_pos1,stimulus_name_pos2,random_intensity,date,expName,session,participant,
Yes-No Task,0,0,0,0,18,-1,Miss,0.467913300032,True,-1,stimulus_DIAN07_Yes-No Task_2019_Jun_13_1627_1,-1,False,2019_Jun_13_1627,Yes-No Task,1,DIAN07,
Yes-No Task,1,0,1,0,18,-1,Correct Rejection,0.466939199949,False,-1,stimulus_DIAN07_Yes-No Task_2019_Jun_13_1627_2,-1,False,2019_Jun_13_1627,Yes-No Task,1,DIAN07,
Yes-No Task,2,0,2,0,18,-1,Correct Rejection,0.333921499783,False,-1,stimulus_DIAN07_Yes-No Task_2019_Jun_13_1627_3,-1,False,2019_Jun_13_1627,Yes-No Task,1,DIAN07,
Yes-No Task,3,0,3,0,18,-1,Miss,0.367411600193,True,-1,stimulus_DIAN07_Yes-No Task_2019_Jun_13_1627_4,-1,False,2019_Jun_13_1627,Yes-No Task,1,DIAN07,
Yes-No Task,4,0,4,0,18,-1,Hit,0.468940600054,True,-1,stimulus_DIAN07_Yes-No Task_2019_Jun_13_1627_5,-1,False,2019_Jun_13_1627,Yes-No Task,1,DIAN07,
Yes-No Task,5,0,5,0,18,-1,Correct Rejection,0.400560599985,False,-1,stimulus_DIAN07_Yes-No Task_2019_Jun_13_1627_6,-1,False,2019_Jun_13_1627,Yes-No Task,1,DIAN07,
Yes-No Task,6,0,6,0,18,-1,Correct Rejection,0.434014400002,False,-1,stimulus_DIAN07_Yes-No Task_2019_Jun_13_1627_7,-1,False,2019_Jun_13_1627,Yes-No Task,1,DIAN07,
Yes-No Task,7,0,7,0,18,-1,Correct Rejection,0.400181500008,False,-1,stimulus_DIAN07_Yes-No Task_2019_Jun_13_1627_8,-1,False,2019_Jun_13_1627,Yes-No Task,1,DIAN07,
Yes-No Task,8,0,8,0,18,-1,Correct Rejection,0.400526900077,False,-1,stimulus_DIAN07_Yes-No Task_2019_Jun_13_1627_9,-1,False,2019_Jun_13_1627,Yes-No Task,1,DIAN07,
Yes-No Task,9,0,9,0,18,-1,Correct Rejection,0.400411900133,False,-1,stimulus_DIAN07_Yes-No Task_2019_Jun_13_1627_10,-1,False,2019_Jun_13_1627,Yes-No Task,1,DIAN07,
Yes-No Task,10,0,10,0,18,-1,Hit,0.433750899974,True,-1,stimulus_DIAN07_Yes-No Task_2019_Jun_13_1627_11,-1,False,2019_Jun_13_1627,Yes-No Task,1,DIAN07,
Yes-No Task,11,0,11,0,18,-1,Hit,0.400515199872,True,-1,stimulus_DIAN07_Yes-No Task_2019_Jun_13_1627_12,-1,False,2019_Jun_13_1627,Yes-No Task,1,DIAN07,
Yes-No Task,12,0,12,0,18,-1,Correct Rejection,0.467871699948,False,-1,stimulus_DIAN07_Yes-No Task_2019_Jun_13_1627_13,-1,False,2019_Jun_13_1627,Yes-No Task,1,DIAN07,
Yes-No Task,13,0,13,0,18,-1,Correct Rejection,0.40019389987,False,-1,stimulus_DIAN07_Yes-No Task_2019_Jun_13_1627_14,-1,False,2019_Jun_13_1627,Yes-No Task,1,DIAN07,
Yes-No Task,14,0,14,0,18,-1,Correct Rejection,0.40111039998,False,-1,stimulus_DIAN07_Yes-No Task_2019_Jun_13_1627_15,-1,False,2019_Jun_13_1627,Yes-No Task,1,DIAN07,
Yes-No Task,15,0,15,0,18,-1,Hit,0.400277100038,True,-1,stimulus_DIAN07_Yes-No Task_2019_Jun_13_1627_16,-1,False,2019_Jun_13_1627,Yes-No Task,1,DIAN07,
Yes-No Task,16,0,16,0,18,-1,Hit,0.400653299876,True,-1,stimulus_DIAN07_Yes-No Task_2019_Jun_13_1627_17,-1,False,2019_Jun_13_1627,Yes-No Task,1,DIAN07,
Yes-No Task,17,0,17,0,18,-1,Correct Rejection,0.432866899995,False,-1,stimulus_DIAN07_Yes-No Task_2019_Jun_13_1627_18,-1,False,2019_Jun_13_1627,Yes-No Task,1,DIAN07,
Yes-No Task,18,0,18,0,18,-1,Hit,0.435597499833,True,-1,stimulus_DIAN07_Yes-No Task_2019_Jun_13_1627_19,-1,False,2019_Jun_13_1627,Yes-No Task,1,DIAN07,
Yes-No Task,19,0,19,0,18,-1,Correct Rejection,0.533961599926,False,-1,stimulus_DIAN07_Yes-No Task_2019_Jun_13_1627_20,-1,False,2019_Jun_13_1627,Yes-No Task,1,DIAN07,
Yes-No Task,20,0,20,0,18,-1,Correct Rejection,0.400189700071,False,-1,stimulus_DIAN07_Yes-No Task_2019_Jun_13_1627_21,-1,False,2019_Jun_13_1627,Yes-No Task,1,DIAN07,
Yes-No Task,21,0,21,0,18,-1,Hit,0.399580500089,True,-1,stimulus_DIAN07_Yes-No Task_2019_Jun_13_1627_22,-1,False,2019_Jun_13_1627,Yes-No Task,1,DIAN07,
Yes-No Task,22,0,22,0,18,-1,Correct Rejection,0.366233900189,False,-1,stimulus_DIAN07_Yes-No Task_2019_Jun_13_1627_23,-1,False,2019_Jun_13_1627,Yes-No Task,1,DIAN07,
Yes-No Task,23,0,23,0,18,-1,Correct Rejection,0.401472199941,False,-1,stimulus_DIAN07_Yes-No Task_2019_Jun_13_1627_24,-1,False,2019_Jun_13_1627,Yes-No Task,1,DIAN07,
Yes-No Task,24,0,24,0,18,-1,Hit,0.401304299943,True,-1,stimulus_DIAN07_Yes-No Task_2019_Jun_13_1627_25,-1,False,2019_Jun_13_1627,Yes-No Task,1,DIAN07,
Yes-No Task,25,0,25,0,18,-1,Correct Rejection,0.368301899871,False,-1,stimulus_DIAN07_Yes-No Task_2019_Jun_13_1627_26,-1,False,2019_Jun_13_1627,Yes-No Task,1,DIAN07,
Yes-No Task,26,0,26,0,18,-1,Correct Rejection,0.366770899855,False,-1,stimulus_DIAN07_Yes-No Task_2019_Jun_13_1627_27,-1,False,2019_Jun_13_1627,Yes-No Task,1,DIAN07,
Yes-No Task,27,0,27,0,18,-1,Hit,0.400705100037,True,-1,stimulus_DIAN07_Yes-No Task_2019_Jun_13_1627_28,-1,False,2019_Jun_13_1627,Yes-No Task,1,DIAN07,
Yes-No Task,28,0,28,0,18,-1,False Alarm,0.400199900148,False,-1,stimulus_DIAN07_Yes-No Task_2019_Jun_13_1627_29,-1,False,2019_Jun_13_1627,Yes-No Task,1,DIAN07,
Yes-No Task,29,0,29,0,18,-1,Hit,0.368937100051,True,-1,stimulus_DIAN07_Yes-No Task_2019_Jun_13_1627_30,-1,False,2019_Jun_13_1627,Yes-No Task,1,DIAN07,
Yes-No Task,0,0,0,0,7,-1,Miss,0.468434400158,True,-1,stimulus_DIAN07_Yes-No Task_2019_Jun_13_1627_31,-1,False,2019_Jun_13_1627,Yes-No Task,1,DIAN07,
Yes-No Task,1,0,1,0,7,-1,Correct Rejection,0.367083200021,False,-1,stimulus_DIAN07_Yes-No Task_2019_Jun_13_1627_32,-1,False,2019_Jun_13_1627,Yes-No Task,1,DIAN07,
Yes-No Task,2,0,2,0,7,-1,Correct Rejection,0.366515199887,False,-1,stimulus_DIAN07_Yes-No Task_2019_Jun_13_1627_33,-1,False,2019_Jun_13_1627,Yes-No Task,1,DIAN07,
Yes-No Task,3,0,3,0,7,-1,Correct Rejection,0.333720300114,False,-1,stimulus_DIAN07_Yes-No Task_2019_Jun_13_1627_34,-1,False,2019_Jun_13_1627,Yes-No Task,1,DIAN07,
Yes-No Task,4,0,4,0,7,-1,Correct Rejection,0.401069300016,False,-1,stimulus_DIAN07_Yes-No Task_2019_Jun_13_1627_35,-1,False,2019_Jun_13_1627,Yes-No Task,1,DIAN07,
Yes-No Task,5,0,5,0,7,-1,Miss,0.433863000013,True,-1,stimulus_DIAN07_Yes-No Task_2019_Jun_13_1627_36,-1,False,2019_Jun_13_1627,Yes-No Task,1,DIAN07,
Yes-No Task,6,0,6,0,7,-1,Correct Rejection,0.467248799978,False,-1,stimulus_DIAN07_Yes-No Task_2019_Jun_13_1627_37,-1,False,2019_Jun_13_1627,Yes-No Task,1,DIAN07,
Yes-No Task,7,0,7,0,7,-1,Correct Rejection,0.434603999835,False,-1,stimulus_DIAN07_Yes-No Task_2019_Jun_13_1627_38,-1,False,2019_Jun_13_1627,Yes-No Task,1,DIAN07,
Yes-No Task,8,0,8,0,7,-1,Miss,0.435531600146,True,-1,stimulus_DIAN07_Yes-No Task_2019_Jun_13_1627_39,-1,False,2019_Jun_13_1627,Yes-No Task,1,DIAN07,
Yes-No Task,9,0,9,0,7,-1,Miss,0.366149300011,True,-1,stimulus_DIAN07_Yes-No Task_2019_Jun_13_1627_40,-1,False,2019_Jun_13_1627,Yes-No Task,1,DIAN07,
Yes-No Task,10,0,10,0,7,-1,Miss,0.500321999891,True,-1,stimulus_DIAN07_Yes-No Task_2019_Jun_13_1627_41,-1,False,2019_Jun_13_1627,Yes-No Task,1,DIAN07,
Yes-No Task,11,0,11,0,7,-1,Miss,0.567406499991,True,-1,stimulus_DIAN07_Yes-No Task_2019_Jun_13_1627_42,-1,False,2019_Jun_13_1627,Yes-No Task,1,DIAN07,
Yes-No Task,12,0,12,0,7,-1,False Alarm,0.467298599891,False,-1,stimulus_DIAN07_Yes-No Task_2019_Jun_13_1627_43,-1,False,2019_Jun_13_1627,Yes-No Task,1,DIAN07,
Yes-No Task,13,0,13,0,7,-1,Miss,0.433709400008,True,-1,stimulus_DIAN07_Yes-No Task_2019_Jun_13_1627_44,-1,False,2019_Jun_13_1627,Yes-No Task,1,DIAN07,
Yes-No Task,14,0,14,0,7,-1,Correct Rejection,0.533266999992,False,-1,stimulus_DIAN07_Yes-No Task_2019_Jun_13_1627_45,-1,False,2019_Jun_13_1627,Yes-No Task,1,DIAN07,
Yes-No Task,15,0,15,0,7,-1,Hit,0.501591300126,True,-1,stimulus_DIAN07_Yes-No Task_2019_Jun_13_1627_46,-1,False,2019_Jun_13_1627,Yes-No Task,1,DIAN07,
Yes-No Task,16,0,16,0,7,-1,False Alarm,0.500662799925,False,-1,stimulus_DIAN07_Yes-No Task_2019_Jun_13_1627_47,-1,False,2019_Jun_13_1627,Yes-No Task,1,DIAN07,
Yes-No Task,17,0,17,0,7,-1,Hit,0.400612199912,True,-1,stimulus_DIAN07_Yes-No Task_2019_Jun_13_1627_48,-1,False,2019_Jun_13_1627,Yes-No Task,1,DIAN07,
Yes-No Task,18,0,18,0,7,-1,Miss,0.433759999927,True,-1,stimulus_DIAN07_Yes-No Task_2019_Jun_13_1627_49,-1,False,2019_Jun_13_1627,Yes-No Task,1,DIAN07,
Yes-No Task,19,0,19,0,7,-1,Hit,0.433652600041,True,-1,stimulus_DIAN07_Yes-No Task_2019_Jun_13_1627_50,-1,False,2019_Jun_13_1627,Yes-No Task,1,DIAN07,
Yes-No Task,20,0,20,0,7,-1,Correct Rejection,0.499629900092,False,-1,stimulus_DIAN07_Yes-No Task_2019_Jun_13_1627_51,-1,False,2019_Jun_13_1627,Yes-No Task,1,DIAN07,
Yes-No Task,21,0,21,0,7,-1,Hit,0.400406600209,True,-1,stimulus_DIAN07_Yes-No Task_2019_Jun_13_1627_52,-1,False,2019_Jun_13_1627,Yes-No Task,1,DIAN07,
Yes-No Task,22,0,22,0,7,-1,Hit,0.501615800196,True,-1,stimulus_DIAN07_Yes-No Task_2019_Jun_13_1627_53,-1,False,2019_Jun_13_1627,Yes-No Task,1,DIAN07,
Yes-No Task,23,0,23,0,7,-1,Correct Rejection,0.467034599977,False,-1,stimulus_DIAN07_Yes-No Task_2019_Jun_13_1627_54,-1,False,2019_Jun_13_1627,Yes-No Task,1,DIAN07,
Yes-No Task,24,0,24,0,7,-1,False Alarm,0.333747499855,False,-1,stimulus_DIAN07_Yes-No Task_2019_Jun_13_1627_55,-1,False,2019_Jun_13_1627,Yes-No Task,1,DIAN07,
Yes-No Task,25,0,25,0,7,-1,Miss,0.501892199973,True,-1,stimulus_DIAN07_Yes-No Task_2019_Jun_13_1627_56,-1,False,2019_Jun_13_1627,Yes-No Task,1,DIAN07,
Yes-No Task,26,0,26,0,7,-1,Correct Rejection,0.500300999964,False,-1,stimulus_DIAN07_Yes-No Task_2019_Jun_13_1627_57,-1,False,2019_Jun_13_1627,Yes-No Task,1,DIAN07,
Yes-No Task,27,0,27,0,7,-1,False Alarm,0.46766500012,False,-1,stimulus_DIAN07_Yes-No Task_2019_Jun_13_1627_58,-1,False,2019_Jun_13_1627,Yes-No Task,1,DIAN07,
Yes-No Task,28,0,28,0,7,-1,Miss,0.431126600131,True,-1,stimulus_DIAN07_Yes-No Task_2019_Jun_13_1627_59,-1,False,2019_Jun_13_1627,Yes-No Task,1,DIAN07,
Yes-No Task,29,0,29,0,7,-1,Correct Rejection,0.56794749992,False,-1,stimulus_DIAN07_Yes-No Task_2019_Jun_13_1627_60,-1,False,2019_Jun_13_1627,Yes-No Task,1,DIAN07,
Yes-No Task,0,0,0,0,11,-1,Correct Rejection,0.368103899993,False,-1,stimulus_DIAN07_Yes-No Task_2019_Jun_13_1627_61,-1,False,2019_Jun_13_1627,Yes-No Task,1,DIAN07,
Yes-No Task,1,0,1,0,11,-1,Correct Rejection,0.334228999913,False,-1,stimulus_DIAN07_Yes-No Task_2019_Jun_13_1627_62,-1,False,2019_Jun_13_1627,Yes-No Task,1,DIAN07,
Yes-No Task,2,0,2,0,11,-1,Miss,0.300625900039,True,-1,stimulus_DIAN07_Yes-No Task_2019_Jun_13_1627_63,-1,False,2019_Jun_13_1627,Yes-No Task,1,DIAN07,
Yes-No Task,3,0,3,0,11,-1,Correct Rejection,0.332254000008,False,-1,stimulus_DIAN07_Yes-No Task_2019_Jun_13_1627_64,-1,False,2019_Jun_13_1627,Yes-No Task,1,DIAN07,
Yes-No Task,4,0,4,0,11,-1,Miss,0.333902199985,True,-1,stimulus_DIAN07_Yes-No Task_2019_Jun_13_1627_65,-1,False,2019_Jun_13_1627,Yes-No Task,1,DIAN07,
Yes-No Task,5,0,5,0,11,-1,Miss,0.265551199904,True,-1,stimulus_DIAN07_Yes-No Task_2019_Jun_13_1627_66,-1,False,2019_Jun_13_1627,Yes-No Task,1,DIAN07,
Yes-No Task,6,0,6,0,11,-1,Correct Rejection,0.234267899999,False,-1,stimulus_DIAN07_Yes-No Task_2019_Jun_13_1627_67,-1,False,2019_Jun_13_1627,Yes-No Task,1,DIAN07,
Yes-No Task,7,0,7,0,11,-1,Miss,0.200150000164,True,-1,stimulus_DIAN07_Yes-No Task_2019_Jun_13_1627_68,-1,False,2019_Jun_13_1627,Yes-No Task,1,DIAN07,
Yes-No Task,8,0,8,0,11,-1,Miss,0.200358500006,True,-1,stimulus_DIAN07_Yes-No Task_2019_Jun_13_1627_69,-1,False,2019_Jun_13_1627,Yes-No Task,1,DIAN07,
Yes-No Task,9,0,9,0,11,-1,Miss,0.234830000205,True,-1,stimulus_DIAN07_Yes-No Task_2019_Jun_13_1627_70,-1,False,2019_Jun_13_1627,Yes-No Task,1,DIAN07,
Yes-No Task,10,0,10,0,11,-1,False Alarm,0.267557400046,False,-1,stimulus_DIAN07_Yes-No Task_2019_Jun_13_1627_71,-1,False,2019_Jun_13_1627,Yes-No Task,1,DIAN07,
Yes-No Task,11,0,11,0,11,-1,Correct Rejection,0.53521319991,False,-1,stimulus_DIAN07_Yes-No Task_2019_Jun_13_1627_72,-1,False,2019_Jun_13_1627,Yes-No Task,1,DIAN07,
Yes-No Task,12,0,12,0,11,-1,Hit,0.433913999936,True,-1,stimulus_DIAN07_Yes-No Task_2019_Jun_13_1627_73,-1,False,2019_Jun_13_1627,Yes-No Task,1,DIAN07,
Yes-No Task,13,0,13,0,11,-1,Miss,0.467228899943,True,-1,stimulus_DIAN07_Yes-No Task_2019_Jun_13_1627_74,-1,False,2019_Jun_13_1627,Yes-No Task,1,DIAN07,
Yes-No Task,14,0,14,0,11,-1,Hit,0.535066700075,True,-1,stimulus_DIAN07_Yes-No Task_2019_Jun_13_1627_75,-1,False,2019_Jun_13_1627,Yes-No Task,1,DIAN07,
Yes-No Task,15,0,15,0,11,-1,Hit,0.599393700017,True,-1,stimulus_DIAN07_Yes-No Task_2019_Jun_13_1627_76,-1,False,2019_Jun_13_1627,Yes-No Task,1,DIAN07,
Yes-No Task,16,0,16,0,11,-1,Hit,0.601586400066,True,-1,stimulus_DIAN07_Yes-No Task_2019_Jun_13_1627_77,-1,False,2019_Jun_13_1627,Yes-No Task,1,DIAN07,
Yes-No Task,17,0,17,0,11,-1,Hit,0.400007900083,True,-1,stimulus_DIAN07_Yes-No Task_2019_Jun_13_1627_78,-1,False,2019_Jun_13_1627,Yes-No Task,1,DIAN07,
Yes-No Task,18,0,18,0,11,-1,Correct Rejection,0.499753699871,False,-1,stimulus_DIAN07_Yes-No Task_2019_Jun_13_1627_79,-1,False,2019_Jun_13_1627,Yes-No Task,1,DIAN07,
Yes-No Task,19,0,19,0,11,-1,Correct Rejection,0.533737400081,False,-1,stimulus_DIAN07_Yes-No Task_2019_Jun_13_1627_80,-1,False,2019_Jun_13_1627,Yes-No Task,1,DIAN07,
Yes-No Task,20,0,20,0,11,-1,Correct Rejection,0.468105500098,False,-1,stimulus_DIAN07_Yes-No Task_2019_Jun_13_1627_81,-1,False,2019_Jun_13_1627,Yes-No Task,1,DIAN07,
Yes-No Task,21,0,21,0,11,-1,Hit,0.46756579983,True,-1,stimulus_DIAN07_Yes-No Task_2019_Jun_13_1627_82,-1,False,2019_Jun_13_1627,Yes-No Task,1,DIAN07,
Yes-No Task,22,0,22,0,11,-1,Miss,0.467075100169,True,-1,stimulus_DIAN07_Yes-No Task_2019_Jun_13_1627_83,-1,False,2019_Jun_13_1627,Yes-No Task,1,DIAN07,
Yes-No Task,23,0,23,0,11,-1,Correct Rejection,0.500746200094,False,-1,stimulus_DIAN07_Yes-No Task_2019_Jun_13_1627_84,-1,False,2019_Jun_13_1627,Yes-No Task,1,DIAN07,
Yes-No Task,24,0,24,0,11,-1,Correct Rejection,0.433243500069,False,-1,stimulus_DIAN07_Yes-No Task_2019_Jun_13_1627_85,-1,False,2019_Jun_13_1627,Yes-No Task,1,DIAN07,
Yes-No Task,25,0,25,0,11,-1,Correct Rejection,0.367975099944,False,-1,stimulus_DIAN07_Yes-No Task_2019_Jun_13_1627_86,-1,False,2019_Jun_13_1627,Yes-No Task,1,DIAN07,
Yes-No Task,26,0,26,0,11,-1,Correct Rejection,0.400118600111,False,-1,stimulus_DIAN07_Yes-No Task_2019_Jun_13_1627_87,-1,False,2019_Jun_13_1627,Yes-No Task,1,DIAN07,
Yes-No Task,27,0,27,0,11,-1,Correct Rejection,0.367085899925,False,-1,stimulus_DIAN07_Yes-No Task_2019_Jun_13_1627_88,-1,False,2019_Jun_13_1627,Yes-No Task,1,DIAN07,
Yes-No Task,28,0,28,0,11,-1,Hit,0.432851300109,True,-1,stimulus_DIAN07_Yes-No Task_2019_Jun_13_1627_89,-1,False,2019_Jun_13_1627,Yes-No Task,1,DIAN07,
Yes-No Task,29,0,29,0,11,-1,Correct Rejection,0.432507799938,False,-1,stimulus_DIAN07_Yes-No Task_2019_Jun_13_1627_90,-1,False,2019_Jun_13_1627,Yes-No Task,1,DIAN07,
Yes-No Task,0,0,0,0,13,-1,Correct Rejection,0.434273899999,False,-1,stimulus_DIAN07_Yes-No Task_2019_Jun_13_1627_91,-1,False,2019_Jun_13_1627,Yes-No Task,1,DIAN07,
Yes-No Task,1,0,1,0,13,-1,Correct Rejection,0.367869700072,False,-1,stimulus_DIAN07_Yes-No Task_2019_Jun_13_1627_92,-1,False,2019_Jun_13_1627,Yes-No Task,1,DIAN07,
Yes-No Task,2,0,2,0,13,-1,Miss,0.33364950004,True,-1,stimulus_DIAN07_Yes-No Task_2019_Jun_13_1627_93,-1,False,2019_Jun_13_1627,Yes-No Task,1,DIAN07,
Yes-No Task,3,0,3,0,13,-1,Miss,0.499191899784,True,-1,stimulus_DIAN07_Yes-No Task_2019_Jun_13_1627_94,-1,False,2019_Jun_13_1627,Yes-No Task,1,DIAN07,
Yes-No Task,4,0,4,0,13,-1,Correct Rejection,0.433601000113,False,-1,stimulus_DIAN07_Yes-No Task_2019_Jun_13_1627_95,-1,False,2019_Jun_13_1627,Yes-No Task,1,DIAN07,
Yes-No Task,5,0,5,0,13,-1,Hit,0.635154299904,True,-1,stimulus_DIAN07_Yes-No Task_2019_Jun_13_1627_96,-1,False,2019_Jun_13_1627,Yes-No Task,1,DIAN07,
Yes-No Task,6,0,6,0,13,-1,Correct Rejection,0.467799099861,False,-1,stimulus_DIAN07_Yes-No Task_2019_Jun_13_1627_97,-1,False,2019_Jun_13_1627,Yes-No Task,1,DIAN07,
Yes-No Task,7,0,7,0,13,-1,Correct Rejection,0.500592399854,False,-1,stimulus_DIAN07_Yes-No Task_2019_Jun_13_1627_98,-1,False,2019_Jun_13_1627,Yes-No Task,1,DIAN07,
Yes-No Task,8,0,8,0,13,-1,Correct Rejection,0.467731700046,False,-1,stimulus_DIAN07_Yes-No Task_2019_Jun_13_1627_99,-1,False,2019_Jun_13_1627,Yes-No Task,1,DIAN07,
Yes-No Task,9,0,9,0,13,-1,Correct Rejection,0.368906799937,False,-1,stimulus_DIAN07_Yes-No Task_2019_Jun_13_1627_100,-1,False,2019_Jun_13_1627,Yes-No Task,1,DIAN07,
Yes-No Task,10,0,10,0,13,-1,Correct Rejection,0.366319800029,False,-1,stimulus_DIAN07_Yes-No Task_2019_Jun_13_1627_101,-1,False,2019_Jun_13_1627,Yes-No Task,1,DIAN07,
Yes-No Task,11,0,11,0,13,-1,Correct Rejection,0.401054300135,False,-1,stimulus_DIAN07_Yes-No Task_2019_Jun_13_1627_102,-1,False,2019_Jun_13_1627,Yes-No Task,1,DIAN07,
Yes-No Task,12,0,12,0,13,-1,Hit,0.501086500008,True,-1,stimulus_DIAN07_Yes-No Task_2019_Jun_13_1627_103,-1,False,2019_Jun_13_1627,Yes-No Task,1,DIAN07,
Yes-No Task,13,0,13,0,13,-1,Correct Rejection,0.43383600004,False,-1,stimulus_DIAN07_Yes-No Task_2019_Jun_13_1627_104,-1,False,2019_Jun_13_1627,Yes-No Task,1,DIAN07,
Yes-No Task,14,0,14,0,13,-1,Miss,0.566873200005,True,-1,stimulus_DIAN07_Yes-No Task_2019_Jun_13_1627_105,-1,False,2019_Jun_13_1627,Yes-No Task,1,DIAN07,
Yes-No Task,15,0,15,0,13,-1,Hit,0.431857899996,True,-1,stimulus_DIAN07_Yes-No Task_2019_Jun_13_1627_106,-1,False,2019_Jun_13_1627,Yes-No Task,1,DIAN07,
Yes-No Task,16,0,16,0,13,-1,Correct Rejection,0.567023500102,False,-1,stimulus_DIAN07_Yes-No Task_2019_Jun_13_1627_107,-1,False,2019_Jun_13_1627,Yes-No Task,1,DIAN07,
Yes-No Task,17,0,17,0,13,-1,Correct Rejection,0.499825800071,False,-1,stimulus_DIAN07_Yes-No Task_2019_Jun_13_1627_108,-1,False,2019_Jun_13_1627,Yes-No Task,1,DIAN07,
Yes-No Task,18,0,18,0,13,-1,Hit,0.533728300128,True,-1,stimulus_DIAN07_Yes-No Task_2019_Jun_13_1627_109,-1,False,2019_Jun_13_1627,Yes-No Task,1,DIAN07,
Yes-No Task,19,0,19,0,13,-1,Hit,0.50087930006,True,-1,stimulus_DIAN07_Yes-No Task_2019_Jun_13_1627_110,-1,False,2019_Jun_13_1627,Yes-No Task,1,DIAN07,
Yes-No Task,20,0,20,0,13,-1,Hit,0.533730800031,True,-1,stimulus_DIAN07_Yes-No Task_2019_Jun_13_1627_111,-1,False,2019_Jun_13_1627,Yes-No Task,1,DIAN07,
Yes-No Task,21,0,21,0,13,-1,Hit,0.469134100014,True,-1,stimulus_DIAN07_Yes-No Task_2019_Jun_13_1627_112,-1,False,2019_Jun_13_1627,Yes-No Task,1,DIAN07,
Yes-No Task,22,0,22,0,13,-1,Correct Rejection,0.634050499881,False,-1,stimulus_DIAN07_Yes-No Task_2019_Jun_13_1627_113,-1,False,2019_Jun_13_1627,Yes-No Task,1,DIAN07,
Yes-No Task,23,0,23,0,13,-1,Hit,0.601519299904,True,-1,stimulus_DIAN07_Yes-No Task_2019_Jun_13_1627_114,-1,False,2019_Jun_13_1627,Yes-No Task,1,DIAN07,
Yes-No Task,24,0,24,0,13,-1,Correct Rejection,0.633408300113,False,-1,stimulus_DIAN07_Yes-No Task_2019_Jun_13_1627_115,-1,False,2019_Jun_13_1627,Yes-No Task,1,DIAN07,
Yes-No Task,25,0,25,0,13,-1,Correct Rejection,0.567203399958,False,-1,stimulus_DIAN07_Yes-No Task_2019_Jun_13_1627_116,-1,False,2019_Jun_13_1627,Yes-No Task,1,DIAN07,
Yes-No Task,26,0,26,0,13,-1,Hit,0.601684200112,True,-1,stimulus_DIAN07_Yes-No Task_2019_Jun_13_1627_117,-1,False,2019_Jun_13_1627,Yes-No Task,1,DIAN07,
Yes-No Task,27,0,27,0,13,-1,Hit,0.566286700079,True,-1,stimulus_DIAN07_Yes-No Task_2019_Jun_13_1627_118,-1,False,2019_Jun_13_1627,Yes-No Task,1,DIAN07,
Yes-No Task,28,0,28,0,13,-1,Hit,0.533867899794,True,-1,stimulus_DIAN07_Yes-No Task_2019_Jun_13_1627_119,-1,False,2019_Jun_13_1627,Yes-No Task,1,DIAN07,
Yes-No Task,29,0,29,0,13,-1,False Alarm,0.50052240002,False,-1,stimulus_DIAN07_Yes-No Task_2019_Jun_13_1627_120,-1,False,2019_Jun_13_1627,Yes-No Task,1,DIAN07,
