Task,trials.thisRepN,trials.thisTrialN,trials.thisN,trials.thisIndex,signal_intensity,constant Value,response,time_response,signal_on_stimuluspos1,signal_on_stimuluspos2,stimulus_name_pos1,stimulus_name_pos2,random_intensity,date,expName,session,participant,
Yes-No Task,0,0,0,0,9.8,-1,Correct Rejection,0.467415,False,-1,stimulus_DIAN07_Yes-No Task_2019_Jun_14_1535_1,-1,True,2019_Jun_14_1535,Yes-No Task,3,DIAN07,
Yes-No Task,1,0,1,0,15.3,-1,Miss,0.4672094,True,-1,stimulus_DIAN07_Yes-No Task_2019_Jun_14_1535_2,-1,True,2019_Jun_14_1535,Yes-No Task,3,DIAN07,
Yes-No Task,2,0,2,0,16.9,-1,Hit,0.5636344,True,-1,stimulus_DIAN07_Yes-No Task_2019_Jun_14_1535_3,-1,True,2019_Jun_14_1535,Yes-No Task,3,DIAN07,
Yes-No Task,3,0,3,0,16.9,-1,Correct Rejection,0.4672607,False,-1,stimulus_DIAN07_Yes-No Task_2019_Jun_14_1535_4,-1,True,2019_Jun_14_1535,Yes-No Task,3,DIAN07,
Yes-No Task,4,0,4,0,15.3,-1,Hit,0.5346882,True,-1,stimulus_DIAN07_Yes-No Task_2019_Jun_14_1535_5,-1,True,2019_Jun_14_1535,Yes-No Task,3,DIAN07,
Yes-No Task,5,0,5,0,5.8,-1,Miss,0.5005414,True,-1,stimulus_DIAN07_Yes-No Task_2019_Jun_14_1535_6,-1,True,2019_Jun_14_1535,Yes-No Task,3,DIAN07,
Yes-No Task,6,0,6,0,11.2,-1,Correct Rejection,0.5004453,False,-1,stimulus_DIAN07_Yes-No Task_2019_Jun_14_1535_7,-1,True,2019_Jun_14_1535,Yes-No Task,3,DIAN07,
Yes-No Task,7,0,7,0,11.2,-1,Correct Rejection,0.500537200001,False,-1,stimulus_DIAN07_Yes-No Task_2019_Jun_14_1535_8,-1,True,2019_Jun_14_1535,Yes-No Task,3,DIAN07,
Yes-No Task,8,0,8,0,16.9,-1,Correct Rejection,0.6338441,False,-1,stimulus_DIAN07_Yes-No Task_2019_Jun_14_1535_9,-1,True,2019_Jun_14_1535,Yes-No Task,3,DIAN07,
Yes-No Task,9,0,9,0,8.1,-1,Hit,0.600458200001,True,-1,stimulus_DIAN07_Yes-No Task_2019_Jun_14_1535_10,-1,True,2019_Jun_14_1535,Yes-No Task,3,DIAN07,
Yes-No Task,10,0,10,0,13.9,-1,Hit,0.5004892,True,-1,stimulus_DIAN07_Yes-No Task_2019_Jun_14_1535_11,-1,True,2019_Jun_14_1535,Yes-No Task,3,DIAN07,
Yes-No Task,11,0,11,0,16.9,-1,Correct Rejection,0.5339017,False,-1,stimulus_DIAN07_Yes-No Task_2019_Jun_14_1535_12,-1,True,2019_Jun_14_1535,Yes-No Task,3,DIAN07,
Yes-No Task,12,0,12,0,15.3,-1,Correct Rejection,0.733181000001,False,-1,stimulus_DIAN07_Yes-No Task_2019_Jun_14_1535_13,-1,True,2019_Jun_14_1535,Yes-No Task,3,DIAN07,
Yes-No Task,13,0,13,0,16.9,-1,Hit,0.401839200001,True,-1,stimulus_DIAN07_Yes-No Task_2019_Jun_14_1535_14,-1,True,2019_Jun_14_1535,Yes-No Task,3,DIAN07,
Yes-No Task,14,0,14,0,13.9,-1,Hit,0.5323614,True,-1,stimulus_DIAN07_Yes-No Task_2019_Jun_14_1535_15,-1,True,2019_Jun_14_1535,Yes-No Task,3,DIAN07,
Yes-No Task,15,0,15,0,8.1,-1,Hit,0.467496300001,True,-1,stimulus_DIAN07_Yes-No Task_2019_Jun_14_1535_16,-1,True,2019_Jun_14_1535,Yes-No Task,3,DIAN07,
Yes-No Task,16,0,16,0,12.5,-1,Correct Rejection,0.5684047,False,-1,stimulus_DIAN07_Yes-No Task_2019_Jun_14_1535_17,-1,True,2019_Jun_14_1535,Yes-No Task,3,DIAN07,
Yes-No Task,17,0,17,0,16.9,-1,Hit,0.4003874,True,-1,stimulus_DIAN07_Yes-No Task_2019_Jun_14_1535_18,-1,True,2019_Jun_14_1535,Yes-No Task,3,DIAN07,
Yes-No Task,18,0,18,0,13.9,-1,Hit,0.4336965,True,-1,stimulus_DIAN07_Yes-No Task_2019_Jun_14_1535_19,-1,True,2019_Jun_14_1535,Yes-No Task,3,DIAN07,
Yes-No Task,19,0,19,0,11.2,-1,Hit,0.4338069,True,-1,stimulus_DIAN07_Yes-No Task_2019_Jun_14_1535_20,-1,True,2019_Jun_14_1535,Yes-No Task,3,DIAN07,
Yes-No Task,20,0,20,0,13.9,-1,Hit,0.4338745,True,-1,stimulus_DIAN07_Yes-No Task_2019_Jun_14_1535_21,-1,True,2019_Jun_14_1535,Yes-No Task,3,DIAN07,
Yes-No Task,21,0,21,0,9.8,-1,Hit,0.4004826,True,-1,stimulus_DIAN07_Yes-No Task_2019_Jun_14_1535_22,-1,True,2019_Jun_14_1535,Yes-No Task,3,DIAN07,
Yes-No Task,22,0,22,0,11.2,-1,False Alarm,0.366802400001,False,-1,stimulus_DIAN07_Yes-No Task_2019_Jun_14_1535_23,-1,True,2019_Jun_14_1535,Yes-No Task,3,DIAN07,
Yes-No Task,23,0,23,0,12.5,-1,False Alarm,0.3345476,False,-1,stimulus_DIAN07_Yes-No Task_2019_Jun_14_1535_24,-1,True,2019_Jun_14_1535,Yes-No Task,3,DIAN07,
Yes-No Task,24,0,24,0,9.8,-1,False Alarm,0.4327165,False,-1,stimulus_DIAN07_Yes-No Task_2019_Jun_14_1535_25,-1,True,2019_Jun_14_1535,Yes-No Task,3,DIAN07,
Yes-No Task,25,0,25,0,5.8,-1,Correct Rejection,0.3675599,False,-1,stimulus_DIAN07_Yes-No Task_2019_Jun_14_1535_26,-1,True,2019_Jun_14_1535,Yes-No Task,3,DIAN07,
Yes-No Task,26,0,26,0,11.2,-1,Correct Rejection,0.5337216,False,-1,stimulus_DIAN07_Yes-No Task_2019_Jun_14_1535_27,-1,True,2019_Jun_14_1535,Yes-No Task,3,DIAN07,
Yes-No Task,27,0,27,0,16.9,-1,Correct Rejection,0.4354035,False,-1,stimulus_DIAN07_Yes-No Task_2019_Jun_14_1535_28,-1,True,2019_Jun_14_1535,Yes-No Task,3,DIAN07,
Yes-No Task,28,0,28,0,15.3,-1,Correct Rejection,0.4010024,False,-1,stimulus_DIAN07_Yes-No Task_2019_Jun_14_1535_29,-1,True,2019_Jun_14_1535,Yes-No Task,3,DIAN07,
Yes-No Task,29,0,29,0,15.3,-1,Hit,0.466921,True,-1,stimulus_DIAN07_Yes-No Task_2019_Jun_14_1535_30,-1,True,2019_Jun_14_1535,Yes-No Task,3,DIAN07,
Yes-No Task,30,0,30,0,5.8,-1,Hit,0.434682399999,True,-1,stimulus_DIAN07_Yes-No Task_2019_Jun_14_1535_31,-1,True,2019_Jun_14_1535,Yes-No Task,3,DIAN07,
Yes-No Task,31,0,31,0,13.9,-1,False Alarm,0.4002143,False,-1,stimulus_DIAN07_Yes-No Task_2019_Jun_14_1535_32,-1,True,2019_Jun_14_1535,Yes-No Task,3,DIAN07,
Yes-No Task,32,0,32,0,13.9,-1,Correct Rejection,0.5005983,False,-1,stimulus_DIAN07_Yes-No Task_2019_Jun_14_1535_33,-1,True,2019_Jun_14_1535,Yes-No Task,3,DIAN07,
Yes-No Task,33,0,33,0,12.5,-1,Correct Rejection,0.5007536,False,-1,stimulus_DIAN07_Yes-No Task_2019_Jun_14_1535_34,-1,True,2019_Jun_14_1535,Yes-No Task,3,DIAN07,
Yes-No Task,34,0,34,0,11.2,-1,Hit,0.5328929,True,-1,stimulus_DIAN07_Yes-No Task_2019_Jun_14_1535_35,-1,True,2019_Jun_14_1535,Yes-No Task,3,DIAN07,
Yes-No Task,35,0,35,0,16.9,-1,Hit,0.5006146,True,-1,stimulus_DIAN07_Yes-No Task_2019_Jun_14_1535_36,-1,True,2019_Jun_14_1535,Yes-No Task,3,DIAN07,
Yes-No Task,36,0,36,0,12.5,-1,Hit,0.4672823,True,-1,stimulus_DIAN07_Yes-No Task_2019_Jun_14_1535_37,-1,True,2019_Jun_14_1535,Yes-No Task,3,DIAN07,
Yes-No Task,37,0,37,0,12.5,-1,Hit,0.4005048,True,-1,stimulus_DIAN07_Yes-No Task_2019_Jun_14_1535_38,-1,True,2019_Jun_14_1535,Yes-No Task,3,DIAN07,
Yes-No Task,38,0,38,0,16.9,-1,Correct Rejection,0.499889,False,-1,stimulus_DIAN07_Yes-No Task_2019_Jun_14_1535_39,-1,True,2019_Jun_14_1535,Yes-No Task,3,DIAN07,
Yes-No Task,39,0,39,0,15.3,-1,Correct Rejection,0.5341006,False,-1,stimulus_DIAN07_Yes-No Task_2019_Jun_14_1535_40,-1,True,2019_Jun_14_1535,Yes-No Task,3,DIAN07,
Yes-No Task,40,0,40,0,12.5,-1,Correct Rejection,0.502968399999,False,-1,stimulus_DIAN07_Yes-No Task_2019_Jun_14_1535_41,-1,True,2019_Jun_14_1535,Yes-No Task,3,DIAN07,
Yes-No Task,41,0,41,0,12.5,-1,Correct Rejection,0.5348047,False,-1,stimulus_DIAN07_Yes-No Task_2019_Jun_14_1535_42,-1,True,2019_Jun_14_1535,Yes-No Task,3,DIAN07,
Yes-No Task,42,0,42,0,16.9,-1,Correct Rejection,0.5330081,False,-1,stimulus_DIAN07_Yes-No Task_2019_Jun_14_1535_43,-1,True,2019_Jun_14_1535,Yes-No Task,3,DIAN07,
Yes-No Task,43,0,43,0,16.9,-1,Correct Rejection,0.4342493,False,-1,stimulus_DIAN07_Yes-No Task_2019_Jun_14_1535_44,-1,True,2019_Jun_14_1535,Yes-No Task,3,DIAN07,
Yes-No Task,44,0,44,0,13.9,-1,Correct Rejection,0.466428799999,False,-1,stimulus_DIAN07_Yes-No Task_2019_Jun_14_1535_45,-1,True,2019_Jun_14_1535,Yes-No Task,3,DIAN07,
Yes-No Task,45,0,45,0,11.2,-1,Correct Rejection,0.400475400001,False,-1,stimulus_DIAN07_Yes-No Task_2019_Jun_14_1535_46,-1,True,2019_Jun_14_1535,Yes-No Task,3,DIAN07,
Yes-No Task,46,0,46,0,11.2,-1,Hit,0.5340317,True,-1,stimulus_DIAN07_Yes-No Task_2019_Jun_14_1535_47,-1,True,2019_Jun_14_1535,Yes-No Task,3,DIAN07,
Yes-No Task,47,0,47,0,16.9,-1,Hit,0.500147700001,True,-1,stimulus_DIAN07_Yes-No Task_2019_Jun_14_1535_48,-1,True,2019_Jun_14_1535,Yes-No Task,3,DIAN07,
Yes-No Task,48,0,48,0,13.9,-1,Correct Rejection,0.467211800001,False,-1,stimulus_DIAN07_Yes-No Task_2019_Jun_14_1535_49,-1,True,2019_Jun_14_1535,Yes-No Task,3,DIAN07,
Yes-No Task,49,0,49,0,13.9,-1,Correct Rejection,0.5007921,False,-1,stimulus_DIAN07_Yes-No Task_2019_Jun_14_1535_50,-1,True,2019_Jun_14_1535,Yes-No Task,3,DIAN07,
Yes-No Task,50,0,50,0,13.9,-1,Hit,0.4677354,True,-1,stimulus_DIAN07_Yes-No Task_2019_Jun_14_1535_51,-1,True,2019_Jun_14_1535,Yes-No Task,3,DIAN07,
Yes-No Task,51,0,51,0,15.3,-1,Correct Rejection,0.5005892,False,-1,stimulus_DIAN07_Yes-No Task_2019_Jun_14_1535_52,-1,True,2019_Jun_14_1535,Yes-No Task,3,DIAN07,
Yes-No Task,52,0,52,0,13.9,-1,Correct Rejection,0.4663532,False,-1,stimulus_DIAN07_Yes-No Task_2019_Jun_14_1535_53,-1,True,2019_Jun_14_1535,Yes-No Task,3,DIAN07,
Yes-No Task,53,0,53,0,15.3,-1,Hit,0.434927,True,-1,stimulus_DIAN07_Yes-No Task_2019_Jun_14_1535_54,-1,True,2019_Jun_14_1535,Yes-No Task,3,DIAN07,
Yes-No Task,54,0,54,0,16.9,-1,Hit,0.4006603,True,-1,stimulus_DIAN07_Yes-No Task_2019_Jun_14_1535_55,-1,True,2019_Jun_14_1535,Yes-No Task,3,DIAN07,
Yes-No Task,55,0,55,0,15.3,-1,Correct Rejection,0.4676144,False,-1,stimulus_DIAN07_Yes-No Task_2019_Jun_14_1535_56,-1,True,2019_Jun_14_1535,Yes-No Task,3,DIAN07,
Yes-No Task,56,0,56,0,15.3,-1,Hit,0.5026397,True,-1,stimulus_DIAN07_Yes-No Task_2019_Jun_14_1535_57,-1,True,2019_Jun_14_1535,Yes-No Task,3,DIAN07,
Yes-No Task,57,0,57,0,8.1,-1,Miss,0.4345355,True,-1,stimulus_DIAN07_Yes-No Task_2019_Jun_14_1535_58,-1,True,2019_Jun_14_1535,Yes-No Task,3,DIAN07,
Yes-No Task,58,0,58,0,9.8,-1,Correct Rejection,0.5673003,False,-1,stimulus_DIAN07_Yes-No Task_2019_Jun_14_1535_59,-1,True,2019_Jun_14_1535,Yes-No Task,3,DIAN07,
Yes-No Task,59,0,59,0,16.9,-1,Correct Rejection,0.533980900001,False,-1,stimulus_DIAN07_Yes-No Task_2019_Jun_14_1535_60,-1,True,2019_Jun_14_1535,Yes-No Task,3,DIAN07,
Yes-No Task,60,0,60,0,13.9,-1,Hit,0.5338306,True,-1,stimulus_DIAN07_Yes-No Task_2019_Jun_14_1535_61,-1,True,2019_Jun_14_1535,Yes-No Task,3,DIAN07,
Yes-No Task,61,0,61,0,15.3,-1,Hit,0.4337472,True,-1,stimulus_DIAN07_Yes-No Task_2019_Jun_14_1535_62,-1,True,2019_Jun_14_1535,Yes-No Task,3,DIAN07,
Yes-No Task,62,0,62,0,11.2,-1,Correct Rejection,0.533993200001,False,-1,stimulus_DIAN07_Yes-No Task_2019_Jun_14_1535_63,-1,True,2019_Jun_14_1535,Yes-No Task,3,DIAN07,
Yes-No Task,63,0,63,0,9.8,-1,Correct Rejection,0.4676144,False,-1,stimulus_DIAN07_Yes-No Task_2019_Jun_14_1535_64,-1,True,2019_Jun_14_1535,Yes-No Task,3,DIAN07,
Yes-No Task,64,0,64,0,9.8,-1,Hit,0.4672561,True,-1,stimulus_DIAN07_Yes-No Task_2019_Jun_14_1535_65,-1,True,2019_Jun_14_1535,Yes-No Task,3,DIAN07,
Yes-No Task,65,0,65,0,15.3,-1,Hit,0.467134400001,True,-1,stimulus_DIAN07_Yes-No Task_2019_Jun_14_1535_66,-1,True,2019_Jun_14_1535,Yes-No Task,3,DIAN07,
Yes-No Task,66,0,66,0,8.1,-1,Hit,0.6344147,True,-1,stimulus_DIAN07_Yes-No Task_2019_Jun_14_1535_67,-1,True,2019_Jun_14_1535,Yes-No Task,3,DIAN07,
Yes-No Task,67,0,67,0,16.9,-1,Correct Rejection,0.4674023,False,-1,stimulus_DIAN07_Yes-No Task_2019_Jun_14_1535_68,-1,True,2019_Jun_14_1535,Yes-No Task,3,DIAN07,
Yes-No Task,68,0,68,0,12.5,-1,Hit,0.469171,True,-1,stimulus_DIAN07_Yes-No Task_2019_Jun_14_1535_69,-1,True,2019_Jun_14_1535,Yes-No Task,3,DIAN07,
Yes-No Task,69,0,69,0,5.8,-1,Miss,0.435174499999,True,-1,stimulus_DIAN07_Yes-No Task_2019_Jun_14_1535_70,-1,True,2019_Jun_14_1535,Yes-No Task,3,DIAN07,
Yes-No Task,70,0,70,0,5.8,-1,Correct Rejection,0.533589,False,-1,stimulus_DIAN07_Yes-No Task_2019_Jun_14_1535_71,-1,True,2019_Jun_14_1535,Yes-No Task,3,DIAN07,
Yes-No Task,71,0,71,0,12.5,-1,Correct Rejection,0.5023402,False,-1,stimulus_DIAN07_Yes-No Task_2019_Jun_14_1535_72,-1,True,2019_Jun_14_1535,Yes-No Task,3,DIAN07,
Yes-No Task,72,0,72,0,9.8,-1,Correct Rejection,0.5008387,False,-1,stimulus_DIAN07_Yes-No Task_2019_Jun_14_1535_73,-1,True,2019_Jun_14_1535,Yes-No Task,3,DIAN07,
Yes-No Task,73,0,73,0,12.5,-1,Hit,0.5335383,True,-1,stimulus_DIAN07_Yes-No Task_2019_Jun_14_1535_74,-1,True,2019_Jun_14_1535,Yes-No Task,3,DIAN07,
Yes-No Task,74,0,74,0,12.5,-1,Hit,0.5007246,True,-1,stimulus_DIAN07_Yes-No Task_2019_Jun_14_1535_75,-1,True,2019_Jun_14_1535,Yes-No Task,3,DIAN07,
Yes-No Task,0,0,0,0,9.8,-1,Miss,0.4672678,True,-1,stimulus_DIAN07_Yes-No Task_2019_Jun_14_1535_76,-1,True,2019_Jun_14_1535,Yes-No Task,3,DIAN07,
Yes-No Task,1,0,1,0,11.2,-1,Correct Rejection,0.500569000001,False,-1,stimulus_DIAN07_Yes-No Task_2019_Jun_14_1535_77,-1,True,2019_Jun_14_1535,Yes-No Task,3,DIAN07,
Yes-No Task,2,0,2,0,12.5,-1,Correct Rejection,0.4339511,False,-1,stimulus_DIAN07_Yes-No Task_2019_Jun_14_1535_78,-1,True,2019_Jun_14_1535,Yes-No Task,3,DIAN07,
Yes-No Task,3,0,3,0,11.2,-1,Miss,0.4005058,True,-1,stimulus_DIAN07_Yes-No Task_2019_Jun_14_1535_79,-1,True,2019_Jun_14_1535,Yes-No Task,3,DIAN07,
Yes-No Task,4,0,4,0,13.9,-1,Hit,0.4997194,True,-1,stimulus_DIAN07_Yes-No Task_2019_Jun_14_1535_80,-1,True,2019_Jun_14_1535,Yes-No Task,3,DIAN07,
Yes-No Task,5,0,5,0,12.5,-1,Hit,0.534062,True,-1,stimulus_DIAN07_Yes-No Task_2019_Jun_14_1535_81,-1,True,2019_Jun_14_1535,Yes-No Task,3,DIAN07,
Yes-No Task,6,0,6,0,9.8,-1,Miss,0.4343347,True,-1,stimulus_DIAN07_Yes-No Task_2019_Jun_14_1535_82,-1,True,2019_Jun_14_1535,Yes-No Task,3,DIAN07,
Yes-No Task,7,0,7,0,13.9,-1,Hit,0.534133900001,True,-1,stimulus_DIAN07_Yes-No Task_2019_Jun_14_1535_83,-1,True,2019_Jun_14_1535,Yes-No Task,3,DIAN07,
Yes-No Task,8,0,8,0,9.8,-1,Correct Rejection,0.4007069,False,-1,stimulus_DIAN07_Yes-No Task_2019_Jun_14_1535_84,-1,True,2019_Jun_14_1535,Yes-No Task,3,DIAN07,
Yes-No Task,9,0,9,0,13.9,-1,Correct Rejection,0.434634900001,False,-1,stimulus_DIAN07_Yes-No Task_2019_Jun_14_1535_85,-1,True,2019_Jun_14_1535,Yes-No Task,3,DIAN07,
Yes-No Task,10,0,10,0,13.9,-1,Correct Rejection,0.467732300001,False,-1,stimulus_DIAN07_Yes-No Task_2019_Jun_14_1535_86,-1,True,2019_Jun_14_1535,Yes-No Task,3,DIAN07,
Yes-No Task,11,0,11,0,11.2,-1,Correct Rejection,0.4351552,False,-1,stimulus_DIAN07_Yes-No Task_2019_Jun_14_1535_87,-1,True,2019_Jun_14_1535,Yes-No Task,3,DIAN07,
Yes-No Task,12,0,12,0,8.1,-1,Miss,0.4997607,True,-1,stimulus_DIAN07_Yes-No Task_2019_Jun_14_1535_88,-1,True,2019_Jun_14_1535,Yes-No Task,3,DIAN07,
Yes-No Task,13,0,13,0,11.2,-1,Hit,0.533091900001,True,-1,stimulus_DIAN07_Yes-No Task_2019_Jun_14_1535_89,-1,True,2019_Jun_14_1535,Yes-No Task,3,DIAN07,
Yes-No Task,14,0,14,0,13.9,-1,Correct Rejection,0.400615,False,-1,stimulus_DIAN07_Yes-No Task_2019_Jun_14_1535_90,-1,True,2019_Jun_14_1535,Yes-No Task,3,DIAN07,
Yes-No Task,15,0,15,0,9.8,-1,Hit,0.4353084,True,-1,stimulus_DIAN07_Yes-No Task_2019_Jun_14_1535_91,-1,True,2019_Jun_14_1535,Yes-No Task,3,DIAN07,
Yes-No Task,16,0,16,0,8.1,-1,Correct Rejection,0.4340897,False,-1,stimulus_DIAN07_Yes-No Task_2019_Jun_14_1535_92,-1,True,2019_Jun_14_1535,Yes-No Task,3,DIAN07,
Yes-No Task,17,0,17,0,12.5,-1,Hit,0.400019000001,True,-1,stimulus_DIAN07_Yes-No Task_2019_Jun_14_1535_93,-1,True,2019_Jun_14_1535,Yes-No Task,3,DIAN07,
Yes-No Task,18,0,18,0,9.8,-1,Correct Rejection,0.4334211,False,-1,stimulus_DIAN07_Yes-No Task_2019_Jun_14_1535_94,-1,True,2019_Jun_14_1535,Yes-No Task,3,DIAN07,
Yes-No Task,19,0,19,0,8.1,-1,Hit,0.4008267,True,-1,stimulus_DIAN07_Yes-No Task_2019_Jun_14_1535_95,-1,True,2019_Jun_14_1535,Yes-No Task,3,DIAN07,
Yes-No Task,20,0,20,0,9.8,-1,Correct Rejection,0.434291099999,False,-1,stimulus_DIAN07_Yes-No Task_2019_Jun_14_1535_96,-1,True,2019_Jun_14_1535,Yes-No Task,3,DIAN07,
Yes-No Task,21,0,21,0,5.8,-1,False Alarm,0.3670875,False,-1,stimulus_DIAN07_Yes-No Task_2019_Jun_14_1535_97,-1,True,2019_Jun_14_1535,Yes-No Task,3,DIAN07,
Yes-No Task,22,0,22,0,13.9,-1,Correct Rejection,0.50052,False,-1,stimulus_DIAN07_Yes-No Task_2019_Jun_14_1535_98,-1,True,2019_Jun_14_1535,Yes-No Task,3,DIAN07,
Yes-No Task,23,0,23,0,11.2,-1,Miss,0.4339376,True,-1,stimulus_DIAN07_Yes-No Task_2019_Jun_14_1535_99,-1,True,2019_Jun_14_1535,Yes-No Task,3,DIAN07,
Yes-No Task,24,0,24,0,12.5,-1,Correct Rejection,0.7017082,False,-1,stimulus_DIAN07_Yes-No Task_2019_Jun_14_1535_100,-1,True,2019_Jun_14_1535,Yes-No Task,3,DIAN07,
Yes-No Task,25,0,25,0,12.5,-1,Hit,0.568103000001,True,-1,stimulus_DIAN07_Yes-No Task_2019_Jun_14_1535_101,-1,True,2019_Jun_14_1535,Yes-No Task,3,DIAN07,
Yes-No Task,26,0,26,0,12.5,-1,Hit,0.633935000001,True,-1,stimulus_DIAN07_Yes-No Task_2019_Jun_14_1535_102,-1,True,2019_Jun_14_1535,Yes-No Task,3,DIAN07,
Yes-No Task,27,0,27,0,13.9,-1,Hit,0.50063,True,-1,stimulus_DIAN07_Yes-No Task_2019_Jun_14_1535_103,-1,True,2019_Jun_14_1535,Yes-No Task,3,DIAN07,
Yes-No Task,28,0,28,0,16.9,-1,Hit,0.400450300001,True,-1,stimulus_DIAN07_Yes-No Task_2019_Jun_14_1535_104,-1,True,2019_Jun_14_1535,Yes-No Task,3,DIAN07,
Yes-No Task,29,0,29,0,8.1,-1,Hit,0.500668,True,-1,stimulus_DIAN07_Yes-No Task_2019_Jun_14_1535_105,-1,True,2019_Jun_14_1535,Yes-No Task,3,DIAN07,
Yes-No Task,30,0,30,0,11.2,-1,Correct Rejection,0.433732,False,-1,stimulus_DIAN07_Yes-No Task_2019_Jun_14_1535_106,-1,True,2019_Jun_14_1535,Yes-No Task,3,DIAN07,
Yes-No Task,31,0,31,0,11.2,-1,Correct Rejection,0.6339458,False,-1,stimulus_DIAN07_Yes-No Task_2019_Jun_14_1535_107,-1,True,2019_Jun_14_1535,Yes-No Task,3,DIAN07,
Yes-No Task,32,0,32,0,13.9,-1,Correct Rejection,0.5335308,False,-1,stimulus_DIAN07_Yes-No Task_2019_Jun_14_1535_108,-1,True,2019_Jun_14_1535,Yes-No Task,3,DIAN07,
Yes-No Task,33,0,33,0,5.8,-1,Miss,0.5004564,True,-1,stimulus_DIAN07_Yes-No Task_2019_Jun_14_1535_109,-1,True,2019_Jun_14_1535,Yes-No Task,3,DIAN07,
Yes-No Task,34,0,34,0,12.5,-1,Hit,0.433813500001,True,-1,stimulus_DIAN07_Yes-No Task_2019_Jun_14_1535_110,-1,True,2019_Jun_14_1535,Yes-No Task,3,DIAN07,
Yes-No Task,35,0,35,0,5.8,-1,Correct Rejection,0.4003083,False,-1,stimulus_DIAN07_Yes-No Task_2019_Jun_14_1535_111,-1,True,2019_Jun_14_1535,Yes-No Task,3,DIAN07,
Yes-No Task,36,0,36,0,16.9,-1,Hit,0.433730799999,True,-1,stimulus_DIAN07_Yes-No Task_2019_Jun_14_1535_112,-1,True,2019_Jun_14_1535,Yes-No Task,3,DIAN07,
Yes-No Task,37,0,37,0,5.8,-1,Miss,0.4671038,True,-1,stimulus_DIAN07_Yes-No Task_2019_Jun_14_1535_113,-1,True,2019_Jun_14_1535,Yes-No Task,3,DIAN07,
Yes-No Task,38,0,38,0,15.3,-1,Hit,0.3998252,True,-1,stimulus_DIAN07_Yes-No Task_2019_Jun_14_1535_114,-1,True,2019_Jun_14_1535,Yes-No Task,3,DIAN07,
Yes-No Task,39,0,39,0,5.8,-1,Correct Rejection,0.4664399,False,-1,stimulus_DIAN07_Yes-No Task_2019_Jun_14_1535_115,-1,True,2019_Jun_14_1535,Yes-No Task,3,DIAN07,
Yes-No Task,40,0,40,0,16.9,-1,Hit,0.400659100001,True,-1,stimulus_DIAN07_Yes-No Task_2019_Jun_14_1535_116,-1,True,2019_Jun_14_1535,Yes-No Task,3,DIAN07,
Yes-No Task,41,0,41,0,11.2,-1,Hit,0.3993603,True,-1,stimulus_DIAN07_Yes-No Task_2019_Jun_14_1535_117,-1,True,2019_Jun_14_1535,Yes-No Task,3,DIAN07,
Yes-No Task,42,0,42,0,9.8,-1,Miss,0.4005867,True,-1,stimulus_DIAN07_Yes-No Task_2019_Jun_14_1535_118,-1,True,2019_Jun_14_1535,Yes-No Task,3,DIAN07,
Yes-No Task,43,0,43,0,5.8,-1,Hit,0.3681463,True,-1,stimulus_DIAN07_Yes-No Task_2019_Jun_14_1535_119,-1,True,2019_Jun_14_1535,Yes-No Task,3,DIAN07,
Yes-No Task,44,0,44,0,15.3,-1,False Alarm,0.367131200001,False,-1,stimulus_DIAN07_Yes-No Task_2019_Jun_14_1535_120,-1,True,2019_Jun_14_1535,Yes-No Task,3,DIAN07,
Yes-No Task,45,0,45,0,16.9,-1,Hit,0.400139599999,True,-1,stimulus_DIAN07_Yes-No Task_2019_Jun_14_1535_121,-1,True,2019_Jun_14_1535,Yes-No Task,3,DIAN07,
Yes-No Task,46,0,46,0,11.2,-1,Correct Rejection,0.5340239,False,-1,stimulus_DIAN07_Yes-No Task_2019_Jun_14_1535_122,-1,True,2019_Jun_14_1535,Yes-No Task,3,DIAN07,
Yes-No Task,47,0,47,0,16.9,-1,Hit,0.4674765,True,-1,stimulus_DIAN07_Yes-No Task_2019_Jun_14_1535_123,-1,True,2019_Jun_14_1535,Yes-No Task,3,DIAN07,
Yes-No Task,48,0,48,0,11.2,-1,Correct Rejection,0.5340912,False,-1,stimulus_DIAN07_Yes-No Task_2019_Jun_14_1535_124,-1,True,2019_Jun_14_1535,Yes-No Task,3,DIAN07,
Yes-No Task,49,0,49,0,15.3,-1,Hit,0.3343302,True,-1,stimulus_DIAN07_Yes-No Task_2019_Jun_14_1535_125,-1,True,2019_Jun_14_1535,Yes-No Task,3,DIAN07,
Yes-No Task,50,0,50,0,13.9,-1,False Alarm,0.5022208,False,-1,stimulus_DIAN07_Yes-No Task_2019_Jun_14_1535_126,-1,True,2019_Jun_14_1535,Yes-No Task,3,DIAN07,
Yes-No Task,51,0,51,0,13.9,-1,No Answer,-1,True,-1,stimulus_DIAN07_Yes-No Task_2019_Jun_14_1535_127,-1,True,2019_Jun_14_1535,Yes-No Task,3,DIAN07,
Yes-No Task,52,0,52,0,13.9,-1,False Alarm,0.433881,False,-1,stimulus_DIAN07_Yes-No Task_2019_Jun_14_1535_128,-1,True,2019_Jun_14_1535,Yes-No Task,3,DIAN07,
Yes-No Task,53,0,53,0,13.9,-1,Correct Rejection,0.368436,False,-1,stimulus_DIAN07_Yes-No Task_2019_Jun_14_1535_129,-1,True,2019_Jun_14_1535,Yes-No Task,3,DIAN07,
Yes-No Task,54,0,54,0,16.9,-1,Correct Rejection,0.433981900001,False,-1,stimulus_DIAN07_Yes-No Task_2019_Jun_14_1535_130,-1,True,2019_Jun_14_1535,Yes-No Task,3,DIAN07,
Yes-No Task,55,0,55,0,15.3,-1,Correct Rejection,0.5002571,False,-1,stimulus_DIAN07_Yes-No Task_2019_Jun_14_1535_131,-1,True,2019_Jun_14_1535,Yes-No Task,3,DIAN07,
Yes-No Task,56,0,56,0,8.1,-1,Miss,0.3339424,True,-1,stimulus_DIAN07_Yes-No Task_2019_Jun_14_1535_132,-1,True,2019_Jun_14_1535,Yes-No Task,3,DIAN07,
Yes-No Task,57,0,57,0,12.5,-1,Correct Rejection,0.3680108,False,-1,stimulus_DIAN07_Yes-No Task_2019_Jun_14_1535_133,-1,True,2019_Jun_14_1535,Yes-No Task,3,DIAN07,
Yes-No Task,58,0,58,0,5.8,-1,Miss,0.3005332,True,-1,stimulus_DIAN07_Yes-No Task_2019_Jun_14_1535_134,-1,True,2019_Jun_14_1535,Yes-No Task,3,DIAN07,
Yes-No Task,59,0,59,0,8.1,-1,Correct Rejection,0.467257,False,-1,stimulus_DIAN07_Yes-No Task_2019_Jun_14_1535_135,-1,True,2019_Jun_14_1535,Yes-No Task,3,DIAN07,
Yes-No Task,60,0,60,0,8.1,-1,Miss,0.334326,True,-1,stimulus_DIAN07_Yes-No Task_2019_Jun_14_1535_136,-1,True,2019_Jun_14_1535,Yes-No Task,3,DIAN07,
Yes-No Task,61,0,61,0,13.9,-1,Correct Rejection,0.567434600001,False,-1,stimulus_DIAN07_Yes-No Task_2019_Jun_14_1535_137,-1,True,2019_Jun_14_1535,Yes-No Task,3,DIAN07,
Yes-No Task,62,0,62,0,11.2,-1,Correct Rejection,0.400005500001,False,-1,stimulus_DIAN07_Yes-No Task_2019_Jun_14_1535_138,-1,True,2019_Jun_14_1535,Yes-No Task,3,DIAN07,
Yes-No Task,63,0,63,0,16.9,-1,Correct Rejection,0.3338754,False,-1,stimulus_DIAN07_Yes-No Task_2019_Jun_14_1535_139,-1,True,2019_Jun_14_1535,Yes-No Task,3,DIAN07,
Yes-No Task,64,0,64,0,12.5,-1,Miss,0.333970299999,True,-1,stimulus_DIAN07_Yes-No Task_2019_Jun_14_1535_140,-1,True,2019_Jun_14_1535,Yes-No Task,3,DIAN07,
Yes-No Task,65,0,65,0,9.8,-1,Miss,0.6341515,True,-1,stimulus_DIAN07_Yes-No Task_2019_Jun_14_1535_141,-1,True,2019_Jun_14_1535,Yes-No Task,3,DIAN07,
Yes-No Task,66,0,66,0,13.9,-1,Correct Rejection,0.368443599999,False,-1,stimulus_DIAN07_Yes-No Task_2019_Jun_14_1535_142,-1,True,2019_Jun_14_1535,Yes-No Task,3,DIAN07,
Yes-No Task,67,0,67,0,5.8,-1,Correct Rejection,0.3997777,False,-1,stimulus_DIAN07_Yes-No Task_2019_Jun_14_1535_143,-1,True,2019_Jun_14_1535,Yes-No Task,3,DIAN07,
Yes-No Task,68,0,68,0,5.8,-1,Correct Rejection,0.367249,False,-1,stimulus_DIAN07_Yes-No Task_2019_Jun_14_1535_144,-1,True,2019_Jun_14_1535,Yes-No Task,3,DIAN07,
Yes-No Task,69,0,69,0,8.1,-1,Correct Rejection,0.3672483,False,-1,stimulus_DIAN07_Yes-No Task_2019_Jun_14_1535_145,-1,True,2019_Jun_14_1535,Yes-No Task,3,DIAN07,
Yes-No Task,70,0,70,0,15.3,-1,Correct Rejection,0.3676299,False,-1,stimulus_DIAN07_Yes-No Task_2019_Jun_14_1535_146,-1,True,2019_Jun_14_1535,Yes-No Task,3,DIAN07,
Yes-No Task,71,0,71,0,15.3,-1,Correct Rejection,0.3671251,False,-1,stimulus_DIAN07_Yes-No Task_2019_Jun_14_1535_147,-1,True,2019_Jun_14_1535,Yes-No Task,3,DIAN07,
Yes-No Task,72,0,72,0,15.3,-1,Correct Rejection,0.333791,False,-1,stimulus_DIAN07_Yes-No Task_2019_Jun_14_1535_148,-1,True,2019_Jun_14_1535,Yes-No Task,3,DIAN07,
Yes-No Task,73,0,73,0,13.9,-1,Correct Rejection,0.399464,False,-1,stimulus_DIAN07_Yes-No Task_2019_Jun_14_1535_149,-1,True,2019_Jun_14_1535,Yes-No Task,3,DIAN07,
Yes-No Task,74,0,74,0,16.9,-1,Correct Rejection,0.4007838,False,-1,stimulus_DIAN07_Yes-No Task_2019_Jun_14_1535_150,-1,True,2019_Jun_14_1535,Yes-No Task,3,DIAN07,
Yes-No Task,0,0,0,0,12.5,-1,Correct Rejection,0.467490200001,False,-1,stimulus_DIAN07_Yes-No Task_2019_Jun_14_1535_151,-1,True,2019_Jun_14_1535,Yes-No Task,3,DIAN07,
Yes-No Task,1,0,1,0,9.8,-1,Correct Rejection,0.4006243,False,-1,stimulus_DIAN07_Yes-No Task_2019_Jun_14_1535_152,-1,True,2019_Jun_14_1535,Yes-No Task,3,DIAN07,
Yes-No Task,2,0,2,0,9.8,-1,Miss,0.4020909,True,-1,stimulus_DIAN07_Yes-No Task_2019_Jun_14_1535_153,-1,True,2019_Jun_14_1535,Yes-No Task,3,DIAN07,
Yes-No Task,3,0,3,0,15.3,-1,Correct Rejection,0.3987785,False,-1,stimulus_DIAN07_Yes-No Task_2019_Jun_14_1535_154,-1,True,2019_Jun_14_1535,Yes-No Task,3,DIAN07,
Yes-No Task,4,0,4,0,5.8,-1,Hit,0.433798800001,True,-1,stimulus_DIAN07_Yes-No Task_2019_Jun_14_1535_155,-1,True,2019_Jun_14_1535,Yes-No Task,3,DIAN07,
Yes-No Task,5,0,5,0,13.9,-1,Correct Rejection,0.4670937,False,-1,stimulus_DIAN07_Yes-No Task_2019_Jun_14_1535_156,-1,True,2019_Jun_14_1535,Yes-No Task,3,DIAN07,
Yes-No Task,6,0,6,0,11.2,-1,Hit,0.4665043,True,-1,stimulus_DIAN07_Yes-No Task_2019_Jun_14_1535_157,-1,True,2019_Jun_14_1535,Yes-No Task,3,DIAN07,
Yes-No Task,7,0,7,0,13.9,-1,Correct Rejection,0.4003118,False,-1,stimulus_DIAN07_Yes-No Task_2019_Jun_14_1535_158,-1,True,2019_Jun_14_1535,Yes-No Task,3,DIAN07,
Yes-No Task,8,0,8,0,12.5,-1,Correct Rejection,0.4000641,False,-1,stimulus_DIAN07_Yes-No Task_2019_Jun_14_1535_159,-1,True,2019_Jun_14_1535,Yes-No Task,3,DIAN07,
Yes-No Task,9,0,9,0,16.9,-1,Correct Rejection,0.4012449,False,-1,stimulus_DIAN07_Yes-No Task_2019_Jun_14_1535_160,-1,True,2019_Jun_14_1535,Yes-No Task,3,DIAN07,
Yes-No Task,10,0,10,0,16.9,-1,Correct Rejection,0.3672405,False,-1,stimulus_DIAN07_Yes-No Task_2019_Jun_14_1535_161,-1,True,2019_Jun_14_1535,Yes-No Task,3,DIAN07,
Yes-No Task,11,0,11,0,13.9,-1,Correct Rejection,0.3335216,False,-1,stimulus_DIAN07_Yes-No Task_2019_Jun_14_1535_162,-1,True,2019_Jun_14_1535,Yes-No Task,3,DIAN07,
Yes-No Task,12,0,12,0,9.8,-1,Correct Rejection,0.401141400001,False,-1,stimulus_DIAN07_Yes-No Task_2019_Jun_14_1535_163,-1,True,2019_Jun_14_1535,Yes-No Task,3,DIAN07,
Yes-No Task,13,0,13,0,13.9,-1,Miss,0.3674778,True,-1,stimulus_DIAN07_Yes-No Task_2019_Jun_14_1535_164,-1,True,2019_Jun_14_1535,Yes-No Task,3,DIAN07,
Yes-No Task,14,0,14,0,5.8,-1,Correct Rejection,0.4672462,False,-1,stimulus_DIAN07_Yes-No Task_2019_Jun_14_1535_165,-1,True,2019_Jun_14_1535,Yes-No Task,3,DIAN07,
Yes-No Task,15,0,15,0,12.5,-1,Correct Rejection,0.4002712,False,-1,stimulus_DIAN07_Yes-No Task_2019_Jun_14_1535_166,-1,True,2019_Jun_14_1535,Yes-No Task,3,DIAN07,
Yes-No Task,16,0,16,0,13.9,-1,Miss,0.3676504,True,-1,stimulus_DIAN07_Yes-No Task_2019_Jun_14_1535_167,-1,True,2019_Jun_14_1535,Yes-No Task,3,DIAN07,
Yes-No Task,17,0,17,0,11.2,-1,Correct Rejection,0.5003671,False,-1,stimulus_DIAN07_Yes-No Task_2019_Jun_14_1535_168,-1,True,2019_Jun_14_1535,Yes-No Task,3,DIAN07,
Yes-No Task,18,0,18,0,12.5,-1,Correct Rejection,0.4335947,False,-1,stimulus_DIAN07_Yes-No Task_2019_Jun_14_1535_169,-1,True,2019_Jun_14_1535,Yes-No Task,3,DIAN07,
Yes-No Task,19,0,19,0,11.2,-1,Correct Rejection,0.4011099,False,-1,stimulus_DIAN07_Yes-No Task_2019_Jun_14_1535_170,-1,True,2019_Jun_14_1535,Yes-No Task,3,DIAN07,
Yes-No Task,20,0,20,0,13.9,-1,Hit,0.4667576,True,-1,stimulus_DIAN07_Yes-No Task_2019_Jun_14_1535_171,-1,True,2019_Jun_14_1535,Yes-No Task,3,DIAN07,
Yes-No Task,21,0,21,0,8.1,-1,Hit,0.4671996,True,-1,stimulus_DIAN07_Yes-No Task_2019_Jun_14_1535_172,-1,True,2019_Jun_14_1535,Yes-No Task,3,DIAN07,
Yes-No Task,22,0,22,0,5.8,-1,Correct Rejection,0.5675926,False,-1,stimulus_DIAN07_Yes-No Task_2019_Jun_14_1535_173,-1,True,2019_Jun_14_1535,Yes-No Task,3,DIAN07,
Yes-No Task,23,0,23,0,15.3,-1,Correct Rejection,0.400452999999,False,-1,stimulus_DIAN07_Yes-No Task_2019_Jun_14_1535_174,-1,True,2019_Jun_14_1535,Yes-No Task,3,DIAN07,
Yes-No Task,24,0,24,0,11.2,-1,Correct Rejection,0.4340453,False,-1,stimulus_DIAN07_Yes-No Task_2019_Jun_14_1535_175,-1,True,2019_Jun_14_1535,Yes-No Task,3,DIAN07,
Yes-No Task,25,0,25,0,11.2,-1,Correct Rejection,0.4005001,False,-1,stimulus_DIAN07_Yes-No Task_2019_Jun_14_1535_176,-1,True,2019_Jun_14_1535,Yes-No Task,3,DIAN07,
Yes-No Task,26,0,26,0,12.5,-1,Hit,0.43321,True,-1,stimulus_DIAN07_Yes-No Task_2019_Jun_14_1535_177,-1,True,2019_Jun_14_1535,Yes-No Task,3,DIAN07,
Yes-No Task,27,0,27,0,12.5,-1,Hit,0.4338179,True,-1,stimulus_DIAN07_Yes-No Task_2019_Jun_14_1535_178,-1,True,2019_Jun_14_1535,Yes-No Task,3,DIAN07,
Yes-No Task,28,0,28,0,5.8,-1,Miss,0.533883999999,True,-1,stimulus_DIAN07_Yes-No Task_2019_Jun_14_1535_179,-1,True,2019_Jun_14_1535,Yes-No Task,3,DIAN07,
Yes-No Task,29,0,29,0,13.9,-1,Correct Rejection,0.4343351,False,-1,stimulus_DIAN07_Yes-No Task_2019_Jun_14_1535_180,-1,True,2019_Jun_14_1535,Yes-No Task,3,DIAN07,
Yes-No Task,30,0,30,0,9.8,-1,False Alarm,0.3669419,False,-1,stimulus_DIAN07_Yes-No Task_2019_Jun_14_1535_181,-1,True,2019_Jun_14_1535,Yes-No Task,3,DIAN07,
Yes-No Task,31,0,31,0,13.9,-1,Correct Rejection,0.366928500001,False,-1,stimulus_DIAN07_Yes-No Task_2019_Jun_14_1535_182,-1,True,2019_Jun_14_1535,Yes-No Task,3,DIAN07,
Yes-No Task,32,0,32,0,15.3,-1,Correct Rejection,0.4337427,False,-1,stimulus_DIAN07_Yes-No Task_2019_Jun_14_1535_183,-1,True,2019_Jun_14_1535,Yes-No Task,3,DIAN07,
Yes-No Task,33,0,33,0,12.5,-1,Correct Rejection,0.335002,False,-1,stimulus_DIAN07_Yes-No Task_2019_Jun_14_1535_184,-1,True,2019_Jun_14_1535,Yes-No Task,3,DIAN07,
Yes-No Task,34,0,34,0,8.1,-1,Correct Rejection,0.5005253,False,-1,stimulus_DIAN07_Yes-No Task_2019_Jun_14_1535_185,-1,True,2019_Jun_14_1535,Yes-No Task,3,DIAN07,
Yes-No Task,35,0,35,0,12.5,-1,Correct Rejection,0.3665925,False,-1,stimulus_DIAN07_Yes-No Task_2019_Jun_14_1535_186,-1,True,2019_Jun_14_1535,Yes-No Task,3,DIAN07,
Yes-No Task,36,0,36,0,5.8,-1,Correct Rejection,0.4002251,False,-1,stimulus_DIAN07_Yes-No Task_2019_Jun_14_1535_187,-1,True,2019_Jun_14_1535,Yes-No Task,3,DIAN07,
Yes-No Task,37,0,37,0,16.9,-1,Correct Rejection,0.4006302,False,-1,stimulus_DIAN07_Yes-No Task_2019_Jun_14_1535_188,-1,True,2019_Jun_14_1535,Yes-No Task,3,DIAN07,
Yes-No Task,38,0,38,0,8.1,-1,Correct Rejection,0.3997112,False,-1,stimulus_DIAN07_Yes-No Task_2019_Jun_14_1535_189,-1,True,2019_Jun_14_1535,Yes-No Task,3,DIAN07,
Yes-No Task,39,0,39,0,5.8,-1,Correct Rejection,0.4002206,False,-1,stimulus_DIAN07_Yes-No Task_2019_Jun_14_1535_190,-1,True,2019_Jun_14_1535,Yes-No Task,3,DIAN07,
Yes-No Task,40,0,40,0,11.2,-1,Correct Rejection,0.4002695,False,-1,stimulus_DIAN07_Yes-No Task_2019_Jun_14_1535_191,-1,True,2019_Jun_14_1535,Yes-No Task,3,DIAN07,
Yes-No Task,41,0,41,0,11.2,-1,Miss,0.3679095,True,-1,stimulus_DIAN07_Yes-No Task_2019_Jun_14_1535_192,-1,True,2019_Jun_14_1535,Yes-No Task,3,DIAN07,
Yes-No Task,42,0,42,0,8.1,-1,Correct Rejection,0.500619500001,False,-1,stimulus_DIAN07_Yes-No Task_2019_Jun_14_1535_193,-1,True,2019_Jun_14_1535,Yes-No Task,3,DIAN07,
Yes-No Task,43,0,43,0,5.8,-1,Miss,0.500346,True,-1,stimulus_DIAN07_Yes-No Task_2019_Jun_14_1535_194,-1,True,2019_Jun_14_1535,Yes-No Task,3,DIAN07,
Yes-No Task,44,0,44,0,13.9,-1,Miss,0.4004635,True,-1,stimulus_DIAN07_Yes-No Task_2019_Jun_14_1535_195,-1,True,2019_Jun_14_1535,Yes-No Task,3,DIAN07,
Yes-No Task,45,0,45,0,12.5,-1,False Alarm,0.3673618,False,-1,stimulus_DIAN07_Yes-No Task_2019_Jun_14_1535_196,-1,True,2019_Jun_14_1535,Yes-No Task,3,DIAN07,
Yes-No Task,46,0,46,0,9.8,-1,False Alarm,0.467385399999,False,-1,stimulus_DIAN07_Yes-No Task_2019_Jun_14_1535_197,-1,True,2019_Jun_14_1535,Yes-No Task,3,DIAN07,
Yes-No Task,47,0,47,0,11.2,-1,Miss,0.6010991,True,-1,stimulus_DIAN07_Yes-No Task_2019_Jun_14_1535_198,-1,True,2019_Jun_14_1535,Yes-No Task,3,DIAN07,
Yes-No Task,48,0,48,0,5.8,-1,Miss,0.466692499999,True,-1,stimulus_DIAN07_Yes-No Task_2019_Jun_14_1535_199,-1,True,2019_Jun_14_1535,Yes-No Task,3,DIAN07,
Yes-No Task,49,0,49,0,16.9,-1,Correct Rejection,0.5332844,False,-1,stimulus_DIAN07_Yes-No Task_2019_Jun_14_1535_200,-1,True,2019_Jun_14_1535,Yes-No Task,3,DIAN07,
Yes-No Task,50,0,50,0,16.9,-1,Correct Rejection,0.4670839,False,-1,stimulus_DIAN07_Yes-No Task_2019_Jun_14_1535_201,-1,True,2019_Jun_14_1535,Yes-No Task,3,DIAN07,
Yes-No Task,51,0,51,0,15.3,-1,Correct Rejection,0.4008756,False,-1,stimulus_DIAN07_Yes-No Task_2019_Jun_14_1535_202,-1,True,2019_Jun_14_1535,Yes-No Task,3,DIAN07,
Yes-No Task,52,0,52,0,11.2,-1,Correct Rejection,0.400128499999,False,-1,stimulus_DIAN07_Yes-No Task_2019_Jun_14_1535_203,-1,True,2019_Jun_14_1535,Yes-No Task,3,DIAN07,
Yes-No Task,53,0,53,0,16.9,-1,Hit,0.4339445,True,-1,stimulus_DIAN07_Yes-No Task_2019_Jun_14_1535_204,-1,True,2019_Jun_14_1535,Yes-No Task,3,DIAN07,
Yes-No Task,54,0,54,0,12.5,-1,Hit,0.368041799999,True,-1,stimulus_DIAN07_Yes-No Task_2019_Jun_14_1535_205,-1,True,2019_Jun_14_1535,Yes-No Task,3,DIAN07,
Yes-No Task,55,0,55,0,5.8,-1,Miss,0.467557,True,-1,stimulus_DIAN07_Yes-No Task_2019_Jun_14_1535_206,-1,True,2019_Jun_14_1535,Yes-No Task,3,DIAN07,
Yes-No Task,56,0,56,0,9.8,-1,Hit,0.5664236,True,-1,stimulus_DIAN07_Yes-No Task_2019_Jun_14_1535_207,-1,True,2019_Jun_14_1535,Yes-No Task,3,DIAN07,
Yes-No Task,57,0,57,0,5.8,-1,Correct Rejection,0.5006327,False,-1,stimulus_DIAN07_Yes-No Task_2019_Jun_14_1535_208,-1,True,2019_Jun_14_1535,Yes-No Task,3,DIAN07,
Yes-No Task,58,0,58,0,9.8,-1,Hit,0.633971499999,True,-1,stimulus_DIAN07_Yes-No Task_2019_Jun_14_1535_209,-1,True,2019_Jun_14_1535,Yes-No Task,3,DIAN07,
Yes-No Task,59,0,59,0,13.9,-1,Correct Rejection,0.4671643,False,-1,stimulus_DIAN07_Yes-No Task_2019_Jun_14_1535_210,-1,True,2019_Jun_14_1535,Yes-No Task,3,DIAN07,
Yes-No Task,60,0,60,0,12.5,-1,Correct Rejection,0.500453000001,False,-1,stimulus_DIAN07_Yes-No Task_2019_Jun_14_1535_211,-1,True,2019_Jun_14_1535,Yes-No Task,3,DIAN07,
Yes-No Task,61,0,61,0,9.8,-1,Correct Rejection,0.500479200001,False,-1,stimulus_DIAN07_Yes-No Task_2019_Jun_14_1535_212,-1,True,2019_Jun_14_1535,Yes-No Task,3,DIAN07,
Yes-No Task,62,0,62,0,8.1,-1,Correct Rejection,0.4335801,False,-1,stimulus_DIAN07_Yes-No Task_2019_Jun_14_1535_213,-1,True,2019_Jun_14_1535,Yes-No Task,3,DIAN07,
Yes-No Task,63,0,63,0,16.9,-1,Correct Rejection,0.4332382,False,-1,stimulus_DIAN07_Yes-No Task_2019_Jun_14_1535_214,-1,True,2019_Jun_14_1535,Yes-No Task,3,DIAN07,
Yes-No Task,64,0,64,0,12.5,-1,Correct Rejection,0.6008789,False,-1,stimulus_DIAN07_Yes-No Task_2019_Jun_14_1535_215,-1,True,2019_Jun_14_1535,Yes-No Task,3,DIAN07,
Yes-No Task,65,0,65,0,13.9,-1,Correct Rejection,0.3341359,False,-1,stimulus_DIAN07_Yes-No Task_2019_Jun_14_1535_216,-1,True,2019_Jun_14_1535,Yes-No Task,3,DIAN07,
Yes-No Task,66,0,66,0,5.8,-1,Correct Rejection,0.3660848,False,-1,stimulus_DIAN07_Yes-No Task_2019_Jun_14_1535_217,-1,True,2019_Jun_14_1535,Yes-No Task,3,DIAN07,
Yes-No Task,67,0,67,0,5.8,-1,Correct Rejection,0.3342253,False,-1,stimulus_DIAN07_Yes-No Task_2019_Jun_14_1535_218,-1,True,2019_Jun_14_1535,Yes-No Task,3,DIAN07,
Yes-No Task,68,0,68,0,8.1,-1,Hit,0.5341217,True,-1,stimulus_DIAN07_Yes-No Task_2019_Jun_14_1535_219,-1,True,2019_Jun_14_1535,Yes-No Task,3,DIAN07,
Yes-No Task,69,0,69,0,11.2,-1,Correct Rejection,0.433863300001,False,-1,stimulus_DIAN07_Yes-No Task_2019_Jun_14_1535_220,-1,True,2019_Jun_14_1535,Yes-No Task,3,DIAN07,
Yes-No Task,70,0,70,0,11.2,-1,Hit,0.500315,True,-1,stimulus_DIAN07_Yes-No Task_2019_Jun_14_1535_221,-1,True,2019_Jun_14_1535,Yes-No Task,3,DIAN07,
Yes-No Task,71,0,71,0,12.5,-1,Hit,0.4670302,True,-1,stimulus_DIAN07_Yes-No Task_2019_Jun_14_1535_222,-1,True,2019_Jun_14_1535,Yes-No Task,3,DIAN07,
Yes-No Task,72,0,72,0,9.8,-1,Hit,0.500191,True,-1,stimulus_DIAN07_Yes-No Task_2019_Jun_14_1535_223,-1,True,2019_Jun_14_1535,Yes-No Task,3,DIAN07,
Yes-No Task,73,0,73,0,13.9,-1,Hit,0.4673183,True,-1,stimulus_DIAN07_Yes-No Task_2019_Jun_14_1535_224,-1,True,2019_Jun_14_1535,Yes-No Task,3,DIAN07,
Yes-No Task,74,0,74,0,5.8,-1,Miss,0.4339748,True,-1,stimulus_DIAN07_Yes-No Task_2019_Jun_14_1535_225,-1,True,2019_Jun_14_1535,Yes-No Task,3,DIAN07,
Yes-No Task,0,0,0,0,9.8,-1,Correct Rejection,0.4339282,False,-1,stimulus_DIAN07_Yes-No Task_2019_Jun_14_1535_226,-1,True,2019_Jun_14_1535,Yes-No Task,3,DIAN07,
Yes-No Task,1,0,1,0,12.5,-1,False Alarm,0.300541,False,-1,stimulus_DIAN07_Yes-No Task_2019_Jun_14_1535_227,-1,True,2019_Jun_14_1535,Yes-No Task,3,DIAN07,
Yes-No Task,2,0,2,0,9.8,-1,Miss,0.367050700001,True,-1,stimulus_DIAN07_Yes-No Task_2019_Jun_14_1535_228,-1,True,2019_Jun_14_1535,Yes-No Task,3,DIAN07,
Yes-No Task,3,0,3,0,5.8,-1,False Alarm,0.3338326,False,-1,stimulus_DIAN07_Yes-No Task_2019_Jun_14_1535_229,-1,True,2019_Jun_14_1535,Yes-No Task,3,DIAN07,
Yes-No Task,4,0,4,0,13.9,-1,Hit,0.5007735,True,-1,stimulus_DIAN07_Yes-No Task_2019_Jun_14_1535_230,-1,True,2019_Jun_14_1535,Yes-No Task,3,DIAN07,
Yes-No Task,5,0,5,0,13.9,-1,Hit,0.467167100001,True,-1,stimulus_DIAN07_Yes-No Task_2019_Jun_14_1535_231,-1,True,2019_Jun_14_1535,Yes-No Task,3,DIAN07,
Yes-No Task,6,0,6,0,9.8,-1,Miss,0.467863299999,True,-1,stimulus_DIAN07_Yes-No Task_2019_Jun_14_1535_232,-1,True,2019_Jun_14_1535,Yes-No Task,3,DIAN07,
Yes-No Task,7,0,7,0,15.3,-1,False Alarm,0.4346568,False,-1,stimulus_DIAN07_Yes-No Task_2019_Jun_14_1535_233,-1,True,2019_Jun_14_1535,Yes-No Task,3,DIAN07,
Yes-No Task,8,0,8,0,16.9,-1,Correct Rejection,0.4004437,False,-1,stimulus_DIAN07_Yes-No Task_2019_Jun_14_1535_234,-1,True,2019_Jun_14_1535,Yes-No Task,3,DIAN07,
Yes-No Task,9,0,9,0,15.3,-1,Correct Rejection,0.467102,False,-1,stimulus_DIAN07_Yes-No Task_2019_Jun_14_1535_235,-1,True,2019_Jun_14_1535,Yes-No Task,3,DIAN07,
Yes-No Task,10,0,10,0,11.2,-1,Correct Rejection,0.4017108,False,-1,stimulus_DIAN07_Yes-No Task_2019_Jun_14_1535_236,-1,True,2019_Jun_14_1535,Yes-No Task,3,DIAN07,
Yes-No Task,11,0,11,0,8.1,-1,Correct Rejection,0.500816700001,False,-1,stimulus_DIAN07_Yes-No Task_2019_Jun_14_1535_237,-1,True,2019_Jun_14_1535,Yes-No Task,3,DIAN07,
Yes-No Task,12,0,12,0,8.1,-1,Correct Rejection,0.4004838,False,-1,stimulus_DIAN07_Yes-No Task_2019_Jun_14_1535_238,-1,True,2019_Jun_14_1535,Yes-No Task,3,DIAN07,
Yes-No Task,13,0,13,0,15.3,-1,Hit,0.5006351,True,-1,stimulus_DIAN07_Yes-No Task_2019_Jun_14_1535_239,-1,True,2019_Jun_14_1535,Yes-No Task,3,DIAN07,
Yes-No Task,14,0,14,0,16.9,-1,Correct Rejection,0.433087599999,False,-1,stimulus_DIAN07_Yes-No Task_2019_Jun_14_1535_240,-1,True,2019_Jun_14_1535,Yes-No Task,3,DIAN07,
Yes-No Task,15,0,15,0,13.9,-1,Correct Rejection,0.4329868,False,-1,stimulus_DIAN07_Yes-No Task_2019_Jun_14_1535_241,-1,True,2019_Jun_14_1535,Yes-No Task,3,DIAN07,
Yes-No Task,16,0,16,0,16.9,-1,Correct Rejection,0.4994306,False,-1,stimulus_DIAN07_Yes-No Task_2019_Jun_14_1535_242,-1,True,2019_Jun_14_1535,Yes-No Task,3,DIAN07,
Yes-No Task,17,0,17,0,13.9,-1,Hit,0.4673683,True,-1,stimulus_DIAN07_Yes-No Task_2019_Jun_14_1535_243,-1,True,2019_Jun_14_1535,Yes-No Task,3,DIAN07,
Yes-No Task,18,0,18,0,5.8,-1,Miss,0.4687196,True,-1,stimulus_DIAN07_Yes-No Task_2019_Jun_14_1535_244,-1,True,2019_Jun_14_1535,Yes-No Task,3,DIAN07,
Yes-No Task,19,0,19,0,12.5,-1,Hit,0.4671392,True,-1,stimulus_DIAN07_Yes-No Task_2019_Jun_14_1535_245,-1,True,2019_Jun_14_1535,Yes-No Task,3,DIAN07,
Yes-No Task,20,0,20,0,5.8,-1,Correct Rejection,0.4660956,False,-1,stimulus_DIAN07_Yes-No Task_2019_Jun_14_1535_246,-1,True,2019_Jun_14_1535,Yes-No Task,3,DIAN07,
Yes-No Task,21,0,21,0,15.3,-1,Hit,0.3999551,True,-1,stimulus_DIAN07_Yes-No Task_2019_Jun_14_1535_247,-1,True,2019_Jun_14_1535,Yes-No Task,3,DIAN07,
Yes-No Task,22,0,22,0,5.8,-1,Miss,0.4673301,True,-1,stimulus_DIAN07_Yes-No Task_2019_Jun_14_1535_248,-1,True,2019_Jun_14_1535,Yes-No Task,3,DIAN07,
Yes-No Task,23,0,23,0,5.8,-1,Hit,0.5003156,True,-1,stimulus_DIAN07_Yes-No Task_2019_Jun_14_1535_249,-1,True,2019_Jun_14_1535,Yes-No Task,3,DIAN07,
Yes-No Task,24,0,24,0,16.9,-1,Hit,0.4009432,True,-1,stimulus_DIAN07_Yes-No Task_2019_Jun_14_1535_250,-1,True,2019_Jun_14_1535,Yes-No Task,3,DIAN07,
Yes-No Task,25,0,25,0,5.8,-1,Correct Rejection,0.4662141,False,-1,stimulus_DIAN07_Yes-No Task_2019_Jun_14_1535_251,-1,True,2019_Jun_14_1535,Yes-No Task,3,DIAN07,
Yes-No Task,26,0,26,0,12.5,-1,Hit,0.4004549,True,-1,stimulus_DIAN07_Yes-No Task_2019_Jun_14_1535_252,-1,True,2019_Jun_14_1535,Yes-No Task,3,DIAN07,
Yes-No Task,27,0,27,0,12.5,-1,Hit,0.4019753,True,-1,stimulus_DIAN07_Yes-No Task_2019_Jun_14_1535_253,-1,True,2019_Jun_14_1535,Yes-No Task,3,DIAN07,
Yes-No Task,28,0,28,0,5.8,-1,Hit,0.4046296,True,-1,stimulus_DIAN07_Yes-No Task_2019_Jun_14_1535_254,-1,True,2019_Jun_14_1535,Yes-No Task,3,DIAN07,
Yes-No Task,29,0,29,0,13.9,-1,Hit,0.3673626,True,-1,stimulus_DIAN07_Yes-No Task_2019_Jun_14_1535_255,-1,True,2019_Jun_14_1535,Yes-No Task,3,DIAN07,
Yes-No Task,30,0,30,0,5.8,-1,Hit,0.4005624,True,-1,stimulus_DIAN07_Yes-No Task_2019_Jun_14_1535_256,-1,True,2019_Jun_14_1535,Yes-No Task,3,DIAN07,
Yes-No Task,31,0,31,0,13.9,-1,Hit,0.4665938,True,-1,stimulus_DIAN07_Yes-No Task_2019_Jun_14_1535_257,-1,True,2019_Jun_14_1535,Yes-No Task,3,DIAN07,
Yes-No Task,32,0,32,0,5.8,-1,Hit,0.467149200001,True,-1,stimulus_DIAN07_Yes-No Task_2019_Jun_14_1535_258,-1,True,2019_Jun_14_1535,Yes-No Task,3,DIAN07,
Yes-No Task,33,0,33,0,8.1,-1,False Alarm,0.4009126,False,-1,stimulus_DIAN07_Yes-No Task_2019_Jun_14_1535_259,-1,True,2019_Jun_14_1535,Yes-No Task,3,DIAN07,
Yes-No Task,34,0,34,0,12.5,-1,Hit,0.4673042,True,-1,stimulus_DIAN07_Yes-No Task_2019_Jun_14_1535_260,-1,True,2019_Jun_14_1535,Yes-No Task,3,DIAN07,
Yes-No Task,35,0,35,0,11.2,-1,Hit,0.433631999999,True,-1,stimulus_DIAN07_Yes-No Task_2019_Jun_14_1535_261,-1,True,2019_Jun_14_1535,Yes-No Task,3,DIAN07,
Yes-No Task,36,0,36,0,12.5,-1,Correct Rejection,0.5686037,False,-1,stimulus_DIAN07_Yes-No Task_2019_Jun_14_1535_262,-1,True,2019_Jun_14_1535,Yes-No Task,3,DIAN07,
Yes-No Task,37,0,37,0,9.8,-1,Correct Rejection,0.5667402,False,-1,stimulus_DIAN07_Yes-No Task_2019_Jun_14_1535_263,-1,True,2019_Jun_14_1535,Yes-No Task,3,DIAN07,
Yes-No Task,38,0,38,0,15.3,-1,Correct Rejection,0.5342028,False,-1,stimulus_DIAN07_Yes-No Task_2019_Jun_14_1535_264,-1,True,2019_Jun_14_1535,Yes-No Task,3,DIAN07,
Yes-No Task,39,0,39,0,12.5,-1,Hit,0.4668913,True,-1,stimulus_DIAN07_Yes-No Task_2019_Jun_14_1535_265,-1,True,2019_Jun_14_1535,Yes-No Task,3,DIAN07,
Yes-No Task,40,0,40,0,13.9,-1,Hit,0.434402899999,True,-1,stimulus_DIAN07_Yes-No Task_2019_Jun_14_1535_266,-1,True,2019_Jun_14_1535,Yes-No Task,3,DIAN07,
Yes-No Task,41,0,41,0,5.8,-1,False Alarm,0.4996805,False,-1,stimulus_DIAN07_Yes-No Task_2019_Jun_14_1535_267,-1,True,2019_Jun_14_1535,Yes-No Task,3,DIAN07,
Yes-No Task,42,0,42,0,9.8,-1,Correct Rejection,0.3001328,False,-1,stimulus_DIAN07_Yes-No Task_2019_Jun_14_1535_268,-1,True,2019_Jun_14_1535,Yes-No Task,3,DIAN07,
Yes-No Task,43,0,43,0,13.9,-1,Correct Rejection,0.5004971,False,-1,stimulus_DIAN07_Yes-No Task_2019_Jun_14_1535_269,-1,True,2019_Jun_14_1535,Yes-No Task,3,DIAN07,
Yes-No Task,44,0,44,0,9.8,-1,Correct Rejection,0.533972599999,False,-1,stimulus_DIAN07_Yes-No Task_2019_Jun_14_1535_270,-1,True,2019_Jun_14_1535,Yes-No Task,3,DIAN07,
Yes-No Task,45,0,45,0,15.3,-1,Hit,0.4670242,True,-1,stimulus_DIAN07_Yes-No Task_2019_Jun_14_1535_271,-1,True,2019_Jun_14_1535,Yes-No Task,3,DIAN07,
Yes-No Task,46,0,46,0,5.8,-1,Hit,0.6008329,True,-1,stimulus_DIAN07_Yes-No Task_2019_Jun_14_1535_272,-1,True,2019_Jun_14_1535,Yes-No Task,3,DIAN07,
Yes-No Task,47,0,47,0,5.8,-1,Hit,0.4673801,True,-1,stimulus_DIAN07_Yes-No Task_2019_Jun_14_1535_273,-1,True,2019_Jun_14_1535,Yes-No Task,3,DIAN07,
Yes-No Task,48,0,48,0,15.3,-1,False Alarm,0.3672308,False,-1,stimulus_DIAN07_Yes-No Task_2019_Jun_14_1535_274,-1,True,2019_Jun_14_1535,Yes-No Task,3,DIAN07,
Yes-No Task,49,0,49,0,13.9,-1,Hit,0.300738899999,True,-1,stimulus_DIAN07_Yes-No Task_2019_Jun_14_1535_275,-1,True,2019_Jun_14_1535,Yes-No Task,3,DIAN07,
Yes-No Task,50,0,50,0,16.9,-1,Correct Rejection,0.367235299999,False,-1,stimulus_DIAN07_Yes-No Task_2019_Jun_14_1535_276,-1,True,2019_Jun_14_1535,Yes-No Task,3,DIAN07,
Yes-No Task,51,0,51,0,16.9,-1,Hit,0.4688101,True,-1,stimulus_DIAN07_Yes-No Task_2019_Jun_14_1535_277,-1,True,2019_Jun_14_1535,Yes-No Task,3,DIAN07,
Yes-No Task,52,0,52,0,11.2,-1,Hit,0.4006603,True,-1,stimulus_DIAN07_Yes-No Task_2019_Jun_14_1535_278,-1,True,2019_Jun_14_1535,Yes-No Task,3,DIAN07,
Yes-No Task,53,0,53,0,5.8,-1,Correct Rejection,0.634877099999,False,-1,stimulus_DIAN07_Yes-No Task_2019_Jun_14_1535_279,-1,True,2019_Jun_14_1535,Yes-No Task,3,DIAN07,
Yes-No Task,54,0,54,0,13.9,-1,False Alarm,0.5362653,False,-1,stimulus_DIAN07_Yes-No Task_2019_Jun_14_1535_280,-1,True,2019_Jun_14_1535,Yes-No Task,3,DIAN07,
Yes-No Task,55,0,55,0,15.3,-1,Correct Rejection,0.400623699999,False,-1,stimulus_DIAN07_Yes-No Task_2019_Jun_14_1535_281,-1,True,2019_Jun_14_1535,Yes-No Task,3,DIAN07,
Yes-No Task,56,0,56,0,9.8,-1,Correct Rejection,0.4337856,False,-1,stimulus_DIAN07_Yes-No Task_2019_Jun_14_1535_282,-1,True,2019_Jun_14_1535,Yes-No Task,3,DIAN07,
Yes-No Task,57,0,57,0,12.5,-1,Hit,0.5009141,True,-1,stimulus_DIAN07_Yes-No Task_2019_Jun_14_1535_283,-1,True,2019_Jun_14_1535,Yes-No Task,3,DIAN07,
Yes-No Task,58,0,58,0,16.9,-1,Hit,0.4671731,True,-1,stimulus_DIAN07_Yes-No Task_2019_Jun_14_1535_284,-1,True,2019_Jun_14_1535,Yes-No Task,3,DIAN07,
Yes-No Task,59,0,59,0,12.5,-1,Correct Rejection,0.4676901,False,-1,stimulus_DIAN07_Yes-No Task_2019_Jun_14_1535_285,-1,True,2019_Jun_14_1535,Yes-No Task,3,DIAN07,
Yes-No Task,60,0,60,0,13.9,-1,False Alarm,0.4675214,False,-1,stimulus_DIAN07_Yes-No Task_2019_Jun_14_1535_286,-1,True,2019_Jun_14_1535,Yes-No Task,3,DIAN07,
Yes-No Task,61,0,61,0,9.8,-1,Correct Rejection,0.53378,False,-1,stimulus_DIAN07_Yes-No Task_2019_Jun_14_1535_287,-1,True,2019_Jun_14_1535,Yes-No Task,3,DIAN07,
Yes-No Task,62,0,62,0,13.9,-1,Hit,0.5339263,True,-1,stimulus_DIAN07_Yes-No Task_2019_Jun_14_1535_288,-1,True,2019_Jun_14_1535,Yes-No Task,3,DIAN07,
Yes-No Task,63,0,63,0,9.8,-1,Miss,0.6005204,True,-1,stimulus_DIAN07_Yes-No Task_2019_Jun_14_1535_289,-1,True,2019_Jun_14_1535,Yes-No Task,3,DIAN07,
Yes-No Task,64,0,64,0,12.5,-1,Correct Rejection,0.5680211,False,-1,stimulus_DIAN07_Yes-No Task_2019_Jun_14_1535_290,-1,True,2019_Jun_14_1535,Yes-No Task,3,DIAN07,
Yes-No Task,65,0,65,0,5.8,-1,Correct Rejection,0.4669701,False,-1,stimulus_DIAN07_Yes-No Task_2019_Jun_14_1535_291,-1,True,2019_Jun_14_1535,Yes-No Task,3,DIAN07,
Yes-No Task,66,0,66,0,9.8,-1,Correct Rejection,0.5004702,False,-1,stimulus_DIAN07_Yes-No Task_2019_Jun_14_1535_292,-1,True,2019_Jun_14_1535,Yes-No Task,3,DIAN07,
Yes-No Task,67,0,67,0,16.9,-1,Hit,0.498682,True,-1,stimulus_DIAN07_Yes-No Task_2019_Jun_14_1535_293,-1,True,2019_Jun_14_1535,Yes-No Task,3,DIAN07,
Yes-No Task,68,0,68,0,12.5,-1,False Alarm,0.6004759,False,-1,stimulus_DIAN07_Yes-No Task_2019_Jun_14_1535_294,-1,True,2019_Jun_14_1535,Yes-No Task,3,DIAN07,
Yes-No Task,69,0,69,0,12.5,-1,Hit,0.4672257,True,-1,stimulus_DIAN07_Yes-No Task_2019_Jun_14_1535_295,-1,True,2019_Jun_14_1535,Yes-No Task,3,DIAN07,
Yes-No Task,70,0,70,0,13.9,-1,Correct Rejection,0.5672428,False,-1,stimulus_DIAN07_Yes-No Task_2019_Jun_14_1535_296,-1,True,2019_Jun_14_1535,Yes-No Task,3,DIAN07,
Yes-No Task,71,0,71,0,12.5,-1,Correct Rejection,0.5346999,False,-1,stimulus_DIAN07_Yes-No Task_2019_Jun_14_1535_297,-1,True,2019_Jun_14_1535,Yes-No Task,3,DIAN07,
Yes-No Task,72,0,72,0,12.5,-1,Correct Rejection,0.4670767,False,-1,stimulus_DIAN07_Yes-No Task_2019_Jun_14_1535_298,-1,True,2019_Jun_14_1535,Yes-No Task,3,DIAN07,
Yes-No Task,73,0,73,0,13.9,-1,Correct Rejection,0.467087,False,-1,stimulus_DIAN07_Yes-No Task_2019_Jun_14_1535_299,-1,True,2019_Jun_14_1535,Yes-No Task,3,DIAN07,
Yes-No Task,74,0,74,0,11.2,-1,Correct Rejection,0.4665421,False,-1,stimulus_DIAN07_Yes-No Task_2019_Jun_14_1535_300,-1,True,2019_Jun_14_1535,Yes-No Task,3,DIAN07,
Yes-No Task,0,0,0,0,13.9,-1,False Alarm,0.5675037,False,-1,stimulus_DIAN07_Yes-No Task_2019_Jun_14_1535_301,-1,True,2019_Jun_14_1535,Yes-No Task,3,DIAN07,
Yes-No Task,1,0,1,0,5.8,-1,False Alarm,0.3671896,False,-1,stimulus_DIAN07_Yes-No Task_2019_Jun_14_1535_302,-1,True,2019_Jun_14_1535,Yes-No Task,3,DIAN07,
Yes-No Task,2,0,2,0,12.5,-1,Correct Rejection,0.432461400001,False,-1,stimulus_DIAN07_Yes-No Task_2019_Jun_14_1535_303,-1,True,2019_Jun_14_1535,Yes-No Task,3,DIAN07,
Yes-No Task,3,0,3,0,11.2,-1,Correct Rejection,0.4003389,False,-1,stimulus_DIAN07_Yes-No Task_2019_Jun_14_1535_304,-1,True,2019_Jun_14_1535,Yes-No Task,3,DIAN07,
Yes-No Task,4,0,4,0,9.8,-1,Correct Rejection,0.4003475,False,-1,stimulus_DIAN07_Yes-No Task_2019_Jun_14_1535_305,-1,True,2019_Jun_14_1535,Yes-No Task,3,DIAN07,
Yes-No Task,5,0,5,0,8.1,-1,Correct Rejection,0.400763,False,-1,stimulus_DIAN07_Yes-No Task_2019_Jun_14_1535_306,-1,True,2019_Jun_14_1535,Yes-No Task,3,DIAN07,
Yes-No Task,6,0,6,0,15.3,-1,Correct Rejection,0.3675428,False,-1,stimulus_DIAN07_Yes-No Task_2019_Jun_14_1535_307,-1,True,2019_Jun_14_1535,Yes-No Task,3,DIAN07,
Yes-No Task,7,0,7,0,8.1,-1,Correct Rejection,0.400476600001,False,-1,stimulus_DIAN07_Yes-No Task_2019_Jun_14_1535_308,-1,True,2019_Jun_14_1535,Yes-No Task,3,DIAN07,
Yes-No Task,8,0,8,0,11.2,-1,Correct Rejection,0.3672051,False,-1,stimulus_DIAN07_Yes-No Task_2019_Jun_14_1535_309,-1,True,2019_Jun_14_1535,Yes-No Task,3,DIAN07,
Yes-No Task,9,0,9,0,8.1,-1,Miss,0.367560600001,True,-1,stimulus_DIAN07_Yes-No Task_2019_Jun_14_1535_310,-1,True,2019_Jun_14_1535,Yes-No Task,3,DIAN07,
Yes-No Task,10,0,10,0,12.5,-1,Hit,0.5004956,True,-1,stimulus_DIAN07_Yes-No Task_2019_Jun_14_1535_311,-1,True,2019_Jun_14_1535,Yes-No Task,3,DIAN07,
Yes-No Task,11,0,11,0,12.5,-1,Hit,0.5007386,True,-1,stimulus_DIAN07_Yes-No Task_2019_Jun_14_1535_312,-1,True,2019_Jun_14_1535,Yes-No Task,3,DIAN07,
Yes-No Task,12,0,12,0,11.2,-1,Correct Rejection,0.5686844,False,-1,stimulus_DIAN07_Yes-No Task_2019_Jun_14_1535_313,-1,True,2019_Jun_14_1535,Yes-No Task,3,DIAN07,
Yes-No Task,13,0,13,0,8.1,-1,Correct Rejection,0.5322951,False,-1,stimulus_DIAN07_Yes-No Task_2019_Jun_14_1535_314,-1,True,2019_Jun_14_1535,Yes-No Task,3,DIAN07,
Yes-No Task,14,0,14,0,11.2,-1,Correct Rejection,0.5337568,False,-1,stimulus_DIAN07_Yes-No Task_2019_Jun_14_1535_315,-1,True,2019_Jun_14_1535,Yes-No Task,3,DIAN07,
Yes-No Task,15,0,15,0,11.2,-1,Miss,0.4334287,True,-1,stimulus_DIAN07_Yes-No Task_2019_Jun_14_1535_316,-1,True,2019_Jun_14_1535,Yes-No Task,3,DIAN07,
Yes-No Task,16,0,16,0,12.5,-1,Hit,0.4337135,True,-1,stimulus_DIAN07_Yes-No Task_2019_Jun_14_1535_317,-1,True,2019_Jun_14_1535,Yes-No Task,3,DIAN07,
Yes-No Task,17,0,17,0,16.9,-1,Correct Rejection,0.5337638,False,-1,stimulus_DIAN07_Yes-No Task_2019_Jun_14_1535_318,-1,True,2019_Jun_14_1535,Yes-No Task,3,DIAN07,
Yes-No Task,18,0,18,0,8.1,-1,Correct Rejection,0.500600300001,False,-1,stimulus_DIAN07_Yes-No Task_2019_Jun_14_1535_319,-1,True,2019_Jun_14_1535,Yes-No Task,3,DIAN07,
Yes-No Task,19,0,19,0,13.9,-1,Correct Rejection,0.5009033,False,-1,stimulus_DIAN07_Yes-No Task_2019_Jun_14_1535_320,-1,True,2019_Jun_14_1535,Yes-No Task,3,DIAN07,
Yes-No Task,20,0,20,0,13.9,-1,Hit,0.466881599999,True,-1,stimulus_DIAN07_Yes-No Task_2019_Jun_14_1535_321,-1,True,2019_Jun_14_1535,Yes-No Task,3,DIAN07,
Yes-No Task,21,0,21,0,8.1,-1,False Alarm,0.4340338,False,-1,stimulus_DIAN07_Yes-No Task_2019_Jun_14_1535_322,-1,True,2019_Jun_14_1535,Yes-No Task,3,DIAN07,
Yes-No Task,22,0,22,0,8.1,-1,Hit,0.4663377,True,-1,stimulus_DIAN07_Yes-No Task_2019_Jun_14_1535_323,-1,True,2019_Jun_14_1535,Yes-No Task,3,DIAN07,
Yes-No Task,23,0,23,0,16.9,-1,Hit,0.4671445,True,-1,stimulus_DIAN07_Yes-No Task_2019_Jun_14_1535_324,-1,True,2019_Jun_14_1535,Yes-No Task,3,DIAN07,
Yes-No Task,24,0,24,0,9.8,-1,Correct Rejection,0.5675999,False,-1,stimulus_DIAN07_Yes-No Task_2019_Jun_14_1535_325,-1,True,2019_Jun_14_1535,Yes-No Task,3,DIAN07,
Yes-No Task,25,0,25,0,12.5,-1,Hit,0.4341637,True,-1,stimulus_DIAN07_Yes-No Task_2019_Jun_14_1535_326,-1,True,2019_Jun_14_1535,Yes-No Task,3,DIAN07,
Yes-No Task,26,0,26,0,5.8,-1,Hit,0.4338293,True,-1,stimulus_DIAN07_Yes-No Task_2019_Jun_14_1535_327,-1,True,2019_Jun_14_1535,Yes-No Task,3,DIAN07,
Yes-No Task,27,0,27,0,11.2,-1,Hit,0.498933299999,True,-1,stimulus_DIAN07_Yes-No Task_2019_Jun_14_1535_328,-1,True,2019_Jun_14_1535,Yes-No Task,3,DIAN07,
Yes-No Task,28,0,28,0,16.9,-1,Hit,0.4005024,True,-1,stimulus_DIAN07_Yes-No Task_2019_Jun_14_1535_329,-1,True,2019_Jun_14_1535,Yes-No Task,3,DIAN07,
Yes-No Task,29,0,29,0,9.8,-1,Hit,0.4673354,True,-1,stimulus_DIAN07_Yes-No Task_2019_Jun_14_1535_330,-1,True,2019_Jun_14_1535,Yes-No Task,3,DIAN07,
Yes-No Task,30,0,30,0,12.5,-1,Hit,0.433683,True,-1,stimulus_DIAN07_Yes-No Task_2019_Jun_14_1535_331,-1,True,2019_Jun_14_1535,Yes-No Task,3,DIAN07,
Yes-No Task,31,0,31,0,12.5,-1,False Alarm,0.467263099999,False,-1,stimulus_DIAN07_Yes-No Task_2019_Jun_14_1535_332,-1,True,2019_Jun_14_1535,Yes-No Task,3,DIAN07,
Yes-No Task,32,0,32,0,8.1,-1,Miss,0.5680229,True,-1,stimulus_DIAN07_Yes-No Task_2019_Jun_14_1535_333,-1,True,2019_Jun_14_1535,Yes-No Task,3,DIAN07,
Yes-No Task,33,0,33,0,15.3,-1,Correct Rejection,0.5003306,False,-1,stimulus_DIAN07_Yes-No Task_2019_Jun_14_1535_334,-1,True,2019_Jun_14_1535,Yes-No Task,3,DIAN07,
Yes-No Task,34,0,34,0,8.1,-1,Miss,0.6672244,True,-1,stimulus_DIAN07_Yes-No Task_2019_Jun_14_1535_335,-1,True,2019_Jun_14_1535,Yes-No Task,3,DIAN07,
Yes-No Task,35,0,35,0,12.5,-1,Hit,0.5672422,True,-1,stimulus_DIAN07_Yes-No Task_2019_Jun_14_1535_336,-1,True,2019_Jun_14_1535,Yes-No Task,3,DIAN07,
Yes-No Task,36,0,36,0,16.9,-1,Correct Rejection,0.5003005,False,-1,stimulus_DIAN07_Yes-No Task_2019_Jun_14_1535_337,-1,True,2019_Jun_14_1535,Yes-No Task,3,DIAN07,
Yes-No Task,37,0,37,0,15.3,-1,Hit,0.4670642,True,-1,stimulus_DIAN07_Yes-No Task_2019_Jun_14_1535_338,-1,True,2019_Jun_14_1535,Yes-No Task,3,DIAN07,
Yes-No Task,38,0,38,0,15.3,-1,Correct Rejection,0.5004706,False,-1,stimulus_DIAN07_Yes-No Task_2019_Jun_14_1535_339,-1,True,2019_Jun_14_1535,Yes-No Task,3,DIAN07,
Yes-No Task,39,0,39,0,12.5,-1,Hit,0.4338108,True,-1,stimulus_DIAN07_Yes-No Task_2019_Jun_14_1535_340,-1,True,2019_Jun_14_1535,Yes-No Task,3,DIAN07,
Yes-No Task,40,0,40,0,5.8,-1,Correct Rejection,0.5016595,False,-1,stimulus_DIAN07_Yes-No Task_2019_Jun_14_1535_341,-1,True,2019_Jun_14_1535,Yes-No Task,3,DIAN07,
Yes-No Task,41,0,41,0,16.9,-1,Hit,0.4672541,True,-1,stimulus_DIAN07_Yes-No Task_2019_Jun_14_1535_342,-1,True,2019_Jun_14_1535,Yes-No Task,3,DIAN07,
Yes-No Task,42,0,42,0,12.5,-1,Correct Rejection,0.5002744,False,-1,stimulus_DIAN07_Yes-No Task_2019_Jun_14_1535_343,-1,True,2019_Jun_14_1535,Yes-No Task,3,DIAN07,
Yes-No Task,43,0,43,0,9.8,-1,False Alarm,0.3671995,False,-1,stimulus_DIAN07_Yes-No Task_2019_Jun_14_1535_344,-1,True,2019_Jun_14_1535,Yes-No Task,3,DIAN07,
Yes-No Task,44,0,44,0,8.1,-1,Miss,0.600732000001,True,-1,stimulus_DIAN07_Yes-No Task_2019_Jun_14_1535_345,-1,True,2019_Jun_14_1535,Yes-No Task,3,DIAN07,
Yes-No Task,45,0,45,0,12.5,-1,Hit,0.3998029,True,-1,stimulus_DIAN07_Yes-No Task_2019_Jun_14_1535_346,-1,True,2019_Jun_14_1535,Yes-No Task,3,DIAN07,
Yes-No Task,46,0,46,0,8.1,-1,Hit,0.4677745,True,-1,stimulus_DIAN07_Yes-No Task_2019_Jun_14_1535_347,-1,True,2019_Jun_14_1535,Yes-No Task,3,DIAN07,
Yes-No Task,47,0,47,0,9.8,-1,Miss,0.5011092,True,-1,stimulus_DIAN07_Yes-No Task_2019_Jun_14_1535_348,-1,True,2019_Jun_14_1535,Yes-No Task,3,DIAN07,
Yes-No Task,48,0,48,0,11.2,-1,Hit,0.3669341,True,-1,stimulus_DIAN07_Yes-No Task_2019_Jun_14_1535_349,-1,True,2019_Jun_14_1535,Yes-No Task,3,DIAN07,
Yes-No Task,49,0,49,0,5.8,-1,Miss,0.4334523,True,-1,stimulus_DIAN07_Yes-No Task_2019_Jun_14_1535_350,-1,True,2019_Jun_14_1535,Yes-No Task,3,DIAN07,
Yes-No Task,50,0,50,0,8.1,-1,False Alarm,0.3006832,False,-1,stimulus_DIAN07_Yes-No Task_2019_Jun_14_1535_351,-1,True,2019_Jun_14_1535,Yes-No Task,3,DIAN07,
Yes-No Task,51,0,51,0,11.2,-1,Correct Rejection,0.5995696,False,-1,stimulus_DIAN07_Yes-No Task_2019_Jun_14_1535_352,-1,True,2019_Jun_14_1535,Yes-No Task,3,DIAN07,
Yes-No Task,52,0,52,0,15.3,-1,Hit,0.5997145,True,-1,stimulus_DIAN07_Yes-No Task_2019_Jun_14_1535_353,-1,True,2019_Jun_14_1535,Yes-No Task,3,DIAN07,
Yes-No Task,53,0,53,0,15.3,-1,Correct Rejection,0.4669664,False,-1,stimulus_DIAN07_Yes-No Task_2019_Jun_14_1535_354,-1,True,2019_Jun_14_1535,Yes-No Task,3,DIAN07,
Yes-No Task,54,0,54,0,5.8,-1,Miss,0.4339503,True,-1,stimulus_DIAN07_Yes-No Task_2019_Jun_14_1535_355,-1,True,2019_Jun_14_1535,Yes-No Task,3,DIAN07,
Yes-No Task,55,0,55,0,12.5,-1,Correct Rejection,0.5000089,False,-1,stimulus_DIAN07_Yes-No Task_2019_Jun_14_1535_356,-1,True,2019_Jun_14_1535,Yes-No Task,3,DIAN07,
Yes-No Task,56,0,56,0,16.9,-1,Correct Rejection,0.5672864,False,-1,stimulus_DIAN07_Yes-No Task_2019_Jun_14_1535_357,-1,True,2019_Jun_14_1535,Yes-No Task,3,DIAN07,
Yes-No Task,57,0,57,0,16.9,-1,Correct Rejection,0.5007225,False,-1,stimulus_DIAN07_Yes-No Task_2019_Jun_14_1535_358,-1,True,2019_Jun_14_1535,Yes-No Task,3,DIAN07,
Yes-No Task,58,0,58,0,11.2,-1,Hit,0.6662249,True,-1,stimulus_DIAN07_Yes-No Task_2019_Jun_14_1535_359,-1,True,2019_Jun_14_1535,Yes-No Task,3,DIAN07,
Yes-No Task,59,0,59,0,12.5,-1,Hit,0.5342256,True,-1,stimulus_DIAN07_Yes-No Task_2019_Jun_14_1535_360,-1,True,2019_Jun_14_1535,Yes-No Task,3,DIAN07,
Yes-No Task,60,0,60,0,8.1,-1,Correct Rejection,0.5338184,False,-1,stimulus_DIAN07_Yes-No Task_2019_Jun_14_1535_361,-1,True,2019_Jun_14_1535,Yes-No Task,3,DIAN07,
Yes-No Task,61,0,61,0,8.1,-1,Correct Rejection,0.600509,False,-1,stimulus_DIAN07_Yes-No Task_2019_Jun_14_1535_362,-1,True,2019_Jun_14_1535,Yes-No Task,3,DIAN07,
Yes-No Task,62,0,62,0,16.9,-1,False Alarm,0.4004141,False,-1,stimulus_DIAN07_Yes-No Task_2019_Jun_14_1535_363,-1,True,2019_Jun_14_1535,Yes-No Task,3,DIAN07,
Yes-No Task,63,0,63,0,9.8,-1,Correct Rejection,0.5330152,False,-1,stimulus_DIAN07_Yes-No Task_2019_Jun_14_1535_364,-1,True,2019_Jun_14_1535,Yes-No Task,3,DIAN07,
Yes-No Task,64,0,64,0,9.8,-1,Correct Rejection,0.5005879,False,-1,stimulus_DIAN07_Yes-No Task_2019_Jun_14_1535_365,-1,True,2019_Jun_14_1535,Yes-No Task,3,DIAN07,
Yes-No Task,65,0,65,0,15.3,-1,Correct Rejection,0.499904699999,False,-1,stimulus_DIAN07_Yes-No Task_2019_Jun_14_1535_366,-1,True,2019_Jun_14_1535,Yes-No Task,3,DIAN07,
Yes-No Task,66,0,66,0,11.2,-1,Miss,0.4675339,True,-1,stimulus_DIAN07_Yes-No Task_2019_Jun_14_1535_367,-1,True,2019_Jun_14_1535,Yes-No Task,3,DIAN07,
Yes-No Task,67,0,67,0,11.2,-1,Correct Rejection,0.5998679,False,-1,stimulus_DIAN07_Yes-No Task_2019_Jun_14_1535_368,-1,True,2019_Jun_14_1535,Yes-No Task,3,DIAN07,
Yes-No Task,68,0,68,0,5.8,-1,Correct Rejection,0.4674946,False,-1,stimulus_DIAN07_Yes-No Task_2019_Jun_14_1535_369,-1,True,2019_Jun_14_1535,Yes-No Task,3,DIAN07,
Yes-No Task,69,0,69,0,15.3,-1,Correct Rejection,0.4668272,False,-1,stimulus_DIAN07_Yes-No Task_2019_Jun_14_1535_370,-1,True,2019_Jun_14_1535,Yes-No Task,3,DIAN07,
Yes-No Task,70,0,70,0,11.2,-1,Correct Rejection,0.4342584,False,-1,stimulus_DIAN07_Yes-No Task_2019_Jun_14_1535_371,-1,True,2019_Jun_14_1535,Yes-No Task,3,DIAN07,
Yes-No Task,71,0,71,0,12.5,-1,Correct Rejection,0.434488899999,False,-1,stimulus_DIAN07_Yes-No Task_2019_Jun_14_1535_372,-1,True,2019_Jun_14_1535,Yes-No Task,3,DIAN07,
Yes-No Task,72,0,72,0,13.9,-1,Correct Rejection,0.4008903,False,-1,stimulus_DIAN07_Yes-No Task_2019_Jun_14_1535_373,-1,True,2019_Jun_14_1535,Yes-No Task,3,DIAN07,
Yes-No Task,73,0,73,0,12.5,-1,Correct Rejection,0.4335409,False,-1,stimulus_DIAN07_Yes-No Task_2019_Jun_14_1535_374,-1,True,2019_Jun_14_1535,Yes-No Task,3,DIAN07,
Yes-No Task,74,0,74,0,8.1,-1,Miss,0.4016122,True,-1,stimulus_DIAN07_Yes-No Task_2019_Jun_14_1535_375,-1,True,2019_Jun_14_1535,Yes-No Task,3,DIAN07,
Yes-No Task,0,0,0,0,8.1,-1,False Alarm,0.5014817,False,-1,stimulus_DIAN07_Yes-No Task_2019_Jun_14_1535_376,-1,True,2019_Jun_14_1535,Yes-No Task,3,DIAN07,
Yes-No Task,1,0,1,0,11.2,-1,Miss,0.4997635,True,-1,stimulus_DIAN07_Yes-No Task_2019_Jun_14_1535_377,-1,True,2019_Jun_14_1535,Yes-No Task,3,DIAN07,
Yes-No Task,2,0,2,0,11.2,-1,Correct Rejection,0.5002119,False,-1,stimulus_DIAN07_Yes-No Task_2019_Jun_14_1535_378,-1,True,2019_Jun_14_1535,Yes-No Task,3,DIAN07,
Yes-No Task,3,0,3,0,8.1,-1,Miss,0.4999239,True,-1,stimulus_DIAN07_Yes-No Task_2019_Jun_14_1535_379,-1,True,2019_Jun_14_1535,Yes-No Task,3,DIAN07,
Yes-No Task,4,0,4,0,5.8,-1,Correct Rejection,0.4675105,False,-1,stimulus_DIAN07_Yes-No Task_2019_Jun_14_1535_380,-1,True,2019_Jun_14_1535,Yes-No Task,3,DIAN07,
Yes-No Task,5,0,5,0,13.9,-1,Miss,0.5341522,True,-1,stimulus_DIAN07_Yes-No Task_2019_Jun_14_1535_381,-1,True,2019_Jun_14_1535,Yes-No Task,3,DIAN07,
Yes-No Task,6,0,6,0,12.5,-1,Correct Rejection,0.600887099999,False,-1,stimulus_DIAN07_Yes-No Task_2019_Jun_14_1535_382,-1,True,2019_Jun_14_1535,Yes-No Task,3,DIAN07,
Yes-No Task,7,0,7,0,15.3,-1,Hit,0.5670815,True,-1,stimulus_DIAN07_Yes-No Task_2019_Jun_14_1535_383,-1,True,2019_Jun_14_1535,Yes-No Task,3,DIAN07,
Yes-No Task,8,0,8,0,12.5,-1,Miss,0.6672517,True,-1,stimulus_DIAN07_Yes-No Task_2019_Jun_14_1535_384,-1,True,2019_Jun_14_1535,Yes-No Task,3,DIAN07,
Yes-No Task,9,0,9,0,11.2,-1,Correct Rejection,0.466484,False,-1,stimulus_DIAN07_Yes-No Task_2019_Jun_14_1535_385,-1,True,2019_Jun_14_1535,Yes-No Task,3,DIAN07,
Yes-No Task,10,0,10,0,15.3,-1,Hit,0.5005284,True,-1,stimulus_DIAN07_Yes-No Task_2019_Jun_14_1535_386,-1,True,2019_Jun_14_1535,Yes-No Task,3,DIAN07,
Yes-No Task,11,0,11,0,8.1,-1,Correct Rejection,0.4670825,False,-1,stimulus_DIAN07_Yes-No Task_2019_Jun_14_1535_387,-1,True,2019_Jun_14_1535,Yes-No Task,3,DIAN07,
Yes-No Task,12,0,12,0,11.2,-1,Correct Rejection,0.4670391,False,-1,stimulus_DIAN07_Yes-No Task_2019_Jun_14_1535_388,-1,True,2019_Jun_14_1535,Yes-No Task,3,DIAN07,
Yes-No Task,13,0,13,0,15.3,-1,Hit,0.433215800001,True,-1,stimulus_DIAN07_Yes-No Task_2019_Jun_14_1535_389,-1,True,2019_Jun_14_1535,Yes-No Task,3,DIAN07,
Yes-No Task,14,0,14,0,11.2,-1,Correct Rejection,0.4681141,False,-1,stimulus_DIAN07_Yes-No Task_2019_Jun_14_1535_390,-1,True,2019_Jun_14_1535,Yes-No Task,3,DIAN07,
Yes-No Task,15,0,15,0,15.3,-1,Hit,0.4669462,True,-1,stimulus_DIAN07_Yes-No Task_2019_Jun_14_1535_391,-1,True,2019_Jun_14_1535,Yes-No Task,3,DIAN07,
Yes-No Task,16,0,16,0,11.2,-1,Correct Rejection,0.4672412,False,-1,stimulus_DIAN07_Yes-No Task_2019_Jun_14_1535_392,-1,True,2019_Jun_14_1535,Yes-No Task,3,DIAN07,
Yes-No Task,17,0,17,0,9.8,-1,Correct Rejection,0.4679669,False,-1,stimulus_DIAN07_Yes-No Task_2019_Jun_14_1535_393,-1,True,2019_Jun_14_1535,Yes-No Task,3,DIAN07,
Yes-No Task,18,0,18,0,11.2,-1,False Alarm,0.533845,False,-1,stimulus_DIAN07_Yes-No Task_2019_Jun_14_1535_394,-1,True,2019_Jun_14_1535,Yes-No Task,3,DIAN07,
Yes-No Task,19,0,19,0,16.9,-1,Correct Rejection,0.4004415,False,-1,stimulus_DIAN07_Yes-No Task_2019_Jun_14_1535_395,-1,True,2019_Jun_14_1535,Yes-No Task,3,DIAN07,
Yes-No Task,20,0,20,0,8.1,-1,Correct Rejection,0.5008471,False,-1,stimulus_DIAN07_Yes-No Task_2019_Jun_14_1535_396,-1,True,2019_Jun_14_1535,Yes-No Task,3,DIAN07,
Yes-No Task,21,0,21,0,15.3,-1,Hit,0.467118,True,-1,stimulus_DIAN07_Yes-No Task_2019_Jun_14_1535_397,-1,True,2019_Jun_14_1535,Yes-No Task,3,DIAN07,
Yes-No Task,22,0,22,0,15.3,-1,Correct Rejection,0.4672525,False,-1,stimulus_DIAN07_Yes-No Task_2019_Jun_14_1535_398,-1,True,2019_Jun_14_1535,Yes-No Task,3,DIAN07,
Yes-No Task,23,0,23,0,11.2,-1,Hit,0.5666208,True,-1,stimulus_DIAN07_Yes-No Task_2019_Jun_14_1535_399,-1,True,2019_Jun_14_1535,Yes-No Task,3,DIAN07,
Yes-No Task,24,0,24,0,5.8,-1,Correct Rejection,0.4677329,False,-1,stimulus_DIAN07_Yes-No Task_2019_Jun_14_1535_400,-1,True,2019_Jun_14_1535,Yes-No Task,3,DIAN07,
Yes-No Task,25,0,25,0,15.3,-1,Correct Rejection,0.4996123,False,-1,stimulus_DIAN07_Yes-No Task_2019_Jun_14_1535_401,-1,True,2019_Jun_14_1535,Yes-No Task,3,DIAN07,
Yes-No Task,26,0,26,0,16.9,-1,Correct Rejection,0.4672636,False,-1,stimulus_DIAN07_Yes-No Task_2019_Jun_14_1535_402,-1,True,2019_Jun_14_1535,Yes-No Task,3,DIAN07,
Yes-No Task,27,0,27,0,5.8,-1,Correct Rejection,0.5005696,False,-1,stimulus_DIAN07_Yes-No Task_2019_Jun_14_1535_403,-1,True,2019_Jun_14_1535,Yes-No Task,3,DIAN07,
Yes-No Task,28,0,28,0,15.3,-1,Correct Rejection,0.3680802,False,-1,stimulus_DIAN07_Yes-No Task_2019_Jun_14_1535_404,-1,True,2019_Jun_14_1535,Yes-No Task,3,DIAN07,
Yes-No Task,29,0,29,0,16.9,-1,Correct Rejection,0.433867199999,False,-1,stimulus_DIAN07_Yes-No Task_2019_Jun_14_1535_405,-1,True,2019_Jun_14_1535,Yes-No Task,3,DIAN07,
Yes-No Task,30,0,30,0,13.9,-1,Correct Rejection,0.433722799999,False,-1,stimulus_DIAN07_Yes-No Task_2019_Jun_14_1535_406,-1,True,2019_Jun_14_1535,Yes-No Task,3,DIAN07,
Yes-No Task,31,0,31,0,12.5,-1,Correct Rejection,0.4001175,False,-1,stimulus_DIAN07_Yes-No Task_2019_Jun_14_1535_407,-1,True,2019_Jun_14_1535,Yes-No Task,3,DIAN07,
Yes-No Task,32,0,32,0,12.5,-1,Correct Rejection,0.4004735,False,-1,stimulus_DIAN07_Yes-No Task_2019_Jun_14_1535_408,-1,True,2019_Jun_14_1535,Yes-No Task,3,DIAN07,
Yes-No Task,33,0,33,0,16.9,-1,Hit,0.500433,True,-1,stimulus_DIAN07_Yes-No Task_2019_Jun_14_1535_409,-1,True,2019_Jun_14_1535,Yes-No Task,3,DIAN07,
Yes-No Task,34,0,34,0,8.1,-1,Correct Rejection,0.4678702,False,-1,stimulus_DIAN07_Yes-No Task_2019_Jun_14_1535_410,-1,True,2019_Jun_14_1535,Yes-No Task,3,DIAN07,
Yes-No Task,35,0,35,0,16.9,-1,Correct Rejection,0.468855900001,False,-1,stimulus_DIAN07_Yes-No Task_2019_Jun_14_1535_411,-1,True,2019_Jun_14_1535,Yes-No Task,3,DIAN07,
Yes-No Task,36,0,36,0,15.3,-1,Correct Rejection,0.4003874,False,-1,stimulus_DIAN07_Yes-No Task_2019_Jun_14_1535_412,-1,True,2019_Jun_14_1535,Yes-No Task,3,DIAN07,
Yes-No Task,37,0,37,0,15.3,-1,Hit,0.500352999999,True,-1,stimulus_DIAN07_Yes-No Task_2019_Jun_14_1535_413,-1,True,2019_Jun_14_1535,Yes-No Task,3,DIAN07,
Yes-No Task,38,0,38,0,9.8,-1,Hit,0.5342202,True,-1,stimulus_DIAN07_Yes-No Task_2019_Jun_14_1535_414,-1,True,2019_Jun_14_1535,Yes-No Task,3,DIAN07,
Yes-No Task,39,0,39,0,9.8,-1,Miss,0.4673554,True,-1,stimulus_DIAN07_Yes-No Task_2019_Jun_14_1535_415,-1,True,2019_Jun_14_1535,Yes-No Task,3,DIAN07,
Yes-No Task,40,0,40,0,13.9,-1,Correct Rejection,0.500435800001,False,-1,stimulus_DIAN07_Yes-No Task_2019_Jun_14_1535_416,-1,True,2019_Jun_14_1535,Yes-No Task,3,DIAN07,
Yes-No Task,41,0,41,0,11.2,-1,Correct Rejection,0.5341607,False,-1,stimulus_DIAN07_Yes-No Task_2019_Jun_14_1535_417,-1,True,2019_Jun_14_1535,Yes-No Task,3,DIAN07,
Yes-No Task,42,0,42,0,13.9,-1,Correct Rejection,0.4674568,False,-1,stimulus_DIAN07_Yes-No Task_2019_Jun_14_1535_418,-1,True,2019_Jun_14_1535,Yes-No Task,3,DIAN07,
Yes-No Task,43,0,43,0,12.5,-1,Hit,0.4339582,True,-1,stimulus_DIAN07_Yes-No Task_2019_Jun_14_1535_419,-1,True,2019_Jun_14_1535,Yes-No Task,3,DIAN07,
Yes-No Task,44,0,44,0,12.5,-1,Correct Rejection,0.4333065,False,-1,stimulus_DIAN07_Yes-No Task_2019_Jun_14_1535_420,-1,True,2019_Jun_14_1535,Yes-No Task,3,DIAN07,
Yes-No Task,45,0,45,0,5.8,-1,Correct Rejection,0.4672482,False,-1,stimulus_DIAN07_Yes-No Task_2019_Jun_14_1535_421,-1,True,2019_Jun_14_1535,Yes-No Task,3,DIAN07,
Yes-No Task,46,0,46,0,8.1,-1,Hit,0.5342789,True,-1,stimulus_DIAN07_Yes-No Task_2019_Jun_14_1535_422,-1,True,2019_Jun_14_1535,Yes-No Task,3,DIAN07,
Yes-No Task,47,0,47,0,13.9,-1,Miss,0.4338247,True,-1,stimulus_DIAN07_Yes-No Task_2019_Jun_14_1535_423,-1,True,2019_Jun_14_1535,Yes-No Task,3,DIAN07,
Yes-No Task,48,0,48,0,15.3,-1,Correct Rejection,0.5003359,False,-1,stimulus_DIAN07_Yes-No Task_2019_Jun_14_1535_424,-1,True,2019_Jun_14_1535,Yes-No Task,3,DIAN07,
Yes-No Task,49,0,49,0,12.5,-1,Hit,0.4670562,True,-1,stimulus_DIAN07_Yes-No Task_2019_Jun_14_1535_425,-1,True,2019_Jun_14_1535,Yes-No Task,3,DIAN07,
Yes-No Task,50,0,50,0,16.9,-1,Correct Rejection,0.4671675,False,-1,stimulus_DIAN07_Yes-No Task_2019_Jun_14_1535_426,-1,True,2019_Jun_14_1535,Yes-No Task,3,DIAN07,
Yes-No Task,51,0,51,0,11.2,-1,Hit,0.5012693,True,-1,stimulus_DIAN07_Yes-No Task_2019_Jun_14_1535_427,-1,True,2019_Jun_14_1535,Yes-No Task,3,DIAN07,
Yes-No Task,52,0,52,0,15.3,-1,Hit,0.4329193,True,-1,stimulus_DIAN07_Yes-No Task_2019_Jun_14_1535_428,-1,True,2019_Jun_14_1535,Yes-No Task,3,DIAN07,
Yes-No Task,53,0,53,0,8.1,-1,False Alarm,0.5021271,False,-1,stimulus_DIAN07_Yes-No Task_2019_Jun_14_1535_429,-1,True,2019_Jun_14_1535,Yes-No Task,3,DIAN07,
Yes-No Task,54,0,54,0,16.9,-1,Hit,0.467873,True,-1,stimulus_DIAN07_Yes-No Task_2019_Jun_14_1535_430,-1,True,2019_Jun_14_1535,Yes-No Task,3,DIAN07,
Yes-No Task,55,0,55,0,16.9,-1,Correct Rejection,0.4335857,False,-1,stimulus_DIAN07_Yes-No Task_2019_Jun_14_1535_431,-1,True,2019_Jun_14_1535,Yes-No Task,3,DIAN07,
Yes-No Task,56,0,56,0,5.8,-1,Correct Rejection,0.466859900001,False,-1,stimulus_DIAN07_Yes-No Task_2019_Jun_14_1535_432,-1,True,2019_Jun_14_1535,Yes-No Task,3,DIAN07,
Yes-No Task,57,0,57,0,8.1,-1,Miss,0.500557400001,True,-1,stimulus_DIAN07_Yes-No Task_2019_Jun_14_1535_433,-1,True,2019_Jun_14_1535,Yes-No Task,3,DIAN07,
Yes-No Task,58,0,58,0,15.3,-1,Correct Rejection,0.4682562,False,-1,stimulus_DIAN07_Yes-No Task_2019_Jun_14_1535_434,-1,True,2019_Jun_14_1535,Yes-No Task,3,DIAN07,
Yes-No Task,59,0,59,0,9.8,-1,Hit,0.4349564,True,-1,stimulus_DIAN07_Yes-No Task_2019_Jun_14_1535_435,-1,True,2019_Jun_14_1535,Yes-No Task,3,DIAN07,
Yes-No Task,60,0,60,0,9.8,-1,Correct Rejection,0.4665179,False,-1,stimulus_DIAN07_Yes-No Task_2019_Jun_14_1535_436,-1,True,2019_Jun_14_1535,Yes-No Task,3,DIAN07,
Yes-No Task,61,0,61,0,12.5,-1,Correct Rejection,0.4339427,False,-1,stimulus_DIAN07_Yes-No Task_2019_Jun_14_1535_437,-1,True,2019_Jun_14_1535,Yes-No Task,3,DIAN07,
Yes-No Task,62,0,62,0,5.8,-1,Correct Rejection,0.4005143,False,-1,stimulus_DIAN07_Yes-No Task_2019_Jun_14_1535_438,-1,True,2019_Jun_14_1535,Yes-No Task,3,DIAN07,
Yes-No Task,63,0,63,0,5.8,-1,Correct Rejection,0.399204300001,False,-1,stimulus_DIAN07_Yes-No Task_2019_Jun_14_1535_439,-1,True,2019_Jun_14_1535,Yes-No Task,3,DIAN07,
Yes-No Task,64,0,64,0,12.5,-1,Hit,0.5004753,True,-1,stimulus_DIAN07_Yes-No Task_2019_Jun_14_1535_440,-1,True,2019_Jun_14_1535,Yes-No Task,3,DIAN07,
Yes-No Task,65,0,65,0,5.8,-1,Correct Rejection,0.4669435,False,-1,stimulus_DIAN07_Yes-No Task_2019_Jun_14_1535_441,-1,True,2019_Jun_14_1535,Yes-No Task,3,DIAN07,
Yes-No Task,66,0,66,0,16.9,-1,Hit,0.4339597,True,-1,stimulus_DIAN07_Yes-No Task_2019_Jun_14_1535_442,-1,True,2019_Jun_14_1535,Yes-No Task,3,DIAN07,
Yes-No Task,67,0,67,0,5.8,-1,Correct Rejection,0.5010441,False,-1,stimulus_DIAN07_Yes-No Task_2019_Jun_14_1535_443,-1,True,2019_Jun_14_1535,Yes-No Task,3,DIAN07,
Yes-No Task,68,0,68,0,12.5,-1,Correct Rejection,0.434240500001,False,-1,stimulus_DIAN07_Yes-No Task_2019_Jun_14_1535_444,-1,True,2019_Jun_14_1535,Yes-No Task,3,DIAN07,
Yes-No Task,69,0,69,0,5.8,-1,Correct Rejection,0.4335447,False,-1,stimulus_DIAN07_Yes-No Task_2019_Jun_14_1535_445,-1,True,2019_Jun_14_1535,Yes-No Task,3,DIAN07,
Yes-No Task,70,0,70,0,5.8,-1,Miss,0.4672282,True,-1,stimulus_DIAN07_Yes-No Task_2019_Jun_14_1535_446,-1,True,2019_Jun_14_1535,Yes-No Task,3,DIAN07,
Yes-No Task,71,0,71,0,9.8,-1,Hit,0.5341362,True,-1,stimulus_DIAN07_Yes-No Task_2019_Jun_14_1535_447,-1,True,2019_Jun_14_1535,Yes-No Task,3,DIAN07,
Yes-No Task,72,0,72,0,11.2,-1,Hit,0.5010555,True,-1,stimulus_DIAN07_Yes-No Task_2019_Jun_14_1535_448,-1,True,2019_Jun_14_1535,Yes-No Task,3,DIAN07,
Yes-No Task,73,0,73,0,5.8,-1,False Alarm,0.567192,False,-1,stimulus_DIAN07_Yes-No Task_2019_Jun_14_1535_449,-1,True,2019_Jun_14_1535,Yes-No Task,3,DIAN07,
Yes-No Task,74,0,74,0,12.5,-1,Correct Rejection,0.5352283,False,-1,stimulus_DIAN07_Yes-No Task_2019_Jun_14_1535_450,-1,True,2019_Jun_14_1535,Yes-No Task,3,DIAN07,
Yes-No Task,0,0,0,0,8.1,-1,Correct Rejection,0.5004563,False,-1,stimulus_DIAN07_Yes-No Task_2019_Jun_14_1535_451,-1,True,2019_Jun_14_1535,Yes-No Task,3,DIAN07,
Yes-No Task,1,0,1,0,9.8,-1,Hit,0.6006594,True,-1,stimulus_DIAN07_Yes-No Task_2019_Jun_14_1535_452,-1,True,2019_Jun_14_1535,Yes-No Task,3,DIAN07,
Yes-No Task,2,0,2,0,5.8,-1,Correct Rejection,0.6681938,False,-1,stimulus_DIAN07_Yes-No Task_2019_Jun_14_1535_453,-1,True,2019_Jun_14_1535,Yes-No Task,3,DIAN07,
Yes-No Task,3,0,3,0,13.9,-1,Correct Rejection,0.5003026,False,-1,stimulus_DIAN07_Yes-No Task_2019_Jun_14_1535_454,-1,True,2019_Jun_14_1535,Yes-No Task,3,DIAN07,
Yes-No Task,4,0,4,0,9.8,-1,Correct Rejection,0.4673446,False,-1,stimulus_DIAN07_Yes-No Task_2019_Jun_14_1535_455,-1,True,2019_Jun_14_1535,Yes-No Task,3,DIAN07,
Yes-No Task,5,0,5,0,13.9,-1,Hit,0.534131500001,True,-1,stimulus_DIAN07_Yes-No Task_2019_Jun_14_1535_456,-1,True,2019_Jun_14_1535,Yes-No Task,3,DIAN07,
Yes-No Task,6,0,6,0,15.3,-1,Correct Rejection,0.468049,False,-1,stimulus_DIAN07_Yes-No Task_2019_Jun_14_1535_457,-1,True,2019_Jun_14_1535,Yes-No Task,3,DIAN07,
Yes-No Task,7,0,7,0,16.9,-1,Hit,0.5339493,True,-1,stimulus_DIAN07_Yes-No Task_2019_Jun_14_1535_458,-1,True,2019_Jun_14_1535,Yes-No Task,3,DIAN07,
Yes-No Task,8,0,8,0,12.5,-1,Correct Rejection,0.5335184,False,-1,stimulus_DIAN07_Yes-No Task_2019_Jun_14_1535_459,-1,True,2019_Jun_14_1535,Yes-No Task,3,DIAN07,
Yes-No Task,9,0,9,0,15.3,-1,Correct Rejection,0.4999675,False,-1,stimulus_DIAN07_Yes-No Task_2019_Jun_14_1535_460,-1,True,2019_Jun_14_1535,Yes-No Task,3,DIAN07,
Yes-No Task,10,0,10,0,8.1,-1,Correct Rejection,0.4670888,False,-1,stimulus_DIAN07_Yes-No Task_2019_Jun_14_1535_461,-1,True,2019_Jun_14_1535,Yes-No Task,3,DIAN07,
Yes-No Task,11,0,11,0,15.3,-1,Correct Rejection,0.4674049,False,-1,stimulus_DIAN07_Yes-No Task_2019_Jun_14_1535_462,-1,True,2019_Jun_14_1535,Yes-No Task,3,DIAN07,
Yes-No Task,12,0,12,0,11.2,-1,Correct Rejection,0.433980100001,False,-1,stimulus_DIAN07_Yes-No Task_2019_Jun_14_1535_463,-1,True,2019_Jun_14_1535,Yes-No Task,3,DIAN07,
Yes-No Task,13,0,13,0,9.8,-1,False Alarm,0.4004066,False,-1,stimulus_DIAN07_Yes-No Task_2019_Jun_14_1535_464,-1,True,2019_Jun_14_1535,Yes-No Task,3,DIAN07,
Yes-No Task,14,0,14,0,13.9,-1,Miss,0.4676648,True,-1,stimulus_DIAN07_Yes-No Task_2019_Jun_14_1535_465,-1,True,2019_Jun_14_1535,Yes-No Task,3,DIAN07,
Yes-No Task,15,0,15,0,12.5,-1,Correct Rejection,0.5001113,False,-1,stimulus_DIAN07_Yes-No Task_2019_Jun_14_1535_466,-1,True,2019_Jun_14_1535,Yes-No Task,3,DIAN07,
Yes-No Task,16,0,16,0,12.5,-1,Hit,0.5685531,True,-1,stimulus_DIAN07_Yes-No Task_2019_Jun_14_1535_467,-1,True,2019_Jun_14_1535,Yes-No Task,3,DIAN07,
Yes-No Task,17,0,17,0,12.5,-1,Hit,0.6010613,True,-1,stimulus_DIAN07_Yes-No Task_2019_Jun_14_1535_468,-1,True,2019_Jun_14_1535,Yes-No Task,3,DIAN07,
Yes-No Task,18,0,18,0,9.8,-1,Hit,0.533825,True,-1,stimulus_DIAN07_Yes-No Task_2019_Jun_14_1535_469,-1,True,2019_Jun_14_1535,Yes-No Task,3,DIAN07,
Yes-No Task,19,0,19,0,8.1,-1,Hit,0.5008096,True,-1,stimulus_DIAN07_Yes-No Task_2019_Jun_14_1535_470,-1,True,2019_Jun_14_1535,Yes-No Task,3,DIAN07,
Yes-No Task,20,0,20,0,15.3,-1,Hit,0.4672914,True,-1,stimulus_DIAN07_Yes-No Task_2019_Jun_14_1535_471,-1,True,2019_Jun_14_1535,Yes-No Task,3,DIAN07,
Yes-No Task,21,0,21,0,16.9,-1,Hit,0.433589,True,-1,stimulus_DIAN07_Yes-No Task_2019_Jun_14_1535_472,-1,True,2019_Jun_14_1535,Yes-No Task,3,DIAN07,
Yes-No Task,22,0,22,0,15.3,-1,Correct Rejection,0.5339293,False,-1,stimulus_DIAN07_Yes-No Task_2019_Jun_14_1535_473,-1,True,2019_Jun_14_1535,Yes-No Task,3,DIAN07,
Yes-No Task,23,0,23,0,13.9,-1,Correct Rejection,0.5674765,False,-1,stimulus_DIAN07_Yes-No Task_2019_Jun_14_1535_474,-1,True,2019_Jun_14_1535,Yes-No Task,3,DIAN07,
Yes-No Task,24,0,24,0,13.9,-1,Correct Rejection,0.434060099999,False,-1,stimulus_DIAN07_Yes-No Task_2019_Jun_14_1535_475,-1,True,2019_Jun_14_1535,Yes-No Task,3,DIAN07,
Yes-No Task,25,0,25,0,15.3,-1,Hit,0.500561899999,True,-1,stimulus_DIAN07_Yes-No Task_2019_Jun_14_1535_476,-1,True,2019_Jun_14_1535,Yes-No Task,3,DIAN07,
Yes-No Task,26,0,26,0,16.9,-1,Hit,0.5341943,True,-1,stimulus_DIAN07_Yes-No Task_2019_Jun_14_1535_477,-1,True,2019_Jun_14_1535,Yes-No Task,3,DIAN07,
Yes-No Task,27,0,27,0,16.9,-1,Hit,0.4346623,True,-1,stimulus_DIAN07_Yes-No Task_2019_Jun_14_1535_478,-1,True,2019_Jun_14_1535,Yes-No Task,3,DIAN07,
Yes-No Task,28,0,28,0,16.9,-1,Correct Rejection,0.5002719,False,-1,stimulus_DIAN07_Yes-No Task_2019_Jun_14_1535_479,-1,True,2019_Jun_14_1535,Yes-No Task,3,DIAN07,
Yes-No Task,29,0,29,0,5.8,-1,Correct Rejection,0.534101900001,False,-1,stimulus_DIAN07_Yes-No Task_2019_Jun_14_1535_480,-1,True,2019_Jun_14_1535,Yes-No Task,3,DIAN07,
Yes-No Task,30,0,30,0,8.1,-1,Correct Rejection,0.56787,False,-1,stimulus_DIAN07_Yes-No Task_2019_Jun_14_1535_481,-1,True,2019_Jun_14_1535,Yes-No Task,3,DIAN07,
Yes-No Task,31,0,31,0,13.9,-1,Hit,0.4672749,True,-1,stimulus_DIAN07_Yes-No Task_2019_Jun_14_1535_482,-1,True,2019_Jun_14_1535,Yes-No Task,3,DIAN07,
Yes-No Task,32,0,32,0,16.9,-1,Correct Rejection,0.5008665,False,-1,stimulus_DIAN07_Yes-No Task_2019_Jun_14_1535_483,-1,True,2019_Jun_14_1535,Yes-No Task,3,DIAN07,
Yes-No Task,33,0,33,0,9.8,-1,Hit,0.4673037,True,-1,stimulus_DIAN07_Yes-No Task_2019_Jun_14_1535_484,-1,True,2019_Jun_14_1535,Yes-No Task,3,DIAN07,
Yes-No Task,34,0,34,0,16.9,-1,Hit,0.500795,True,-1,stimulus_DIAN07_Yes-No Task_2019_Jun_14_1535_485,-1,True,2019_Jun_14_1535,Yes-No Task,3,DIAN07,
Yes-No Task,35,0,35,0,16.9,-1,Correct Rejection,0.5002856,False,-1,stimulus_DIAN07_Yes-No Task_2019_Jun_14_1535_486,-1,True,2019_Jun_14_1535,Yes-No Task,3,DIAN07,
Yes-No Task,36,0,36,0,13.9,-1,Hit,0.467521099999,True,-1,stimulus_DIAN07_Yes-No Task_2019_Jun_14_1535_487,-1,True,2019_Jun_14_1535,Yes-No Task,3,DIAN07,
Yes-No Task,37,0,37,0,15.3,-1,Correct Rejection,0.466585499999,False,-1,stimulus_DIAN07_Yes-No Task_2019_Jun_14_1535_488,-1,True,2019_Jun_14_1535,Yes-No Task,3,DIAN07,
Yes-No Task,38,0,38,0,16.9,-1,Correct Rejection,0.467430000001,False,-1,stimulus_DIAN07_Yes-No Task_2019_Jun_14_1535_489,-1,True,2019_Jun_14_1535,Yes-No Task,3,DIAN07,
Yes-No Task,39,0,39,0,8.1,-1,Correct Rejection,0.4002927,False,-1,stimulus_DIAN07_Yes-No Task_2019_Jun_14_1535_490,-1,True,2019_Jun_14_1535,Yes-No Task,3,DIAN07,
Yes-No Task,40,0,40,0,12.5,-1,Hit,0.4348378,True,-1,stimulus_DIAN07_Yes-No Task_2019_Jun_14_1535_491,-1,True,2019_Jun_14_1535,Yes-No Task,3,DIAN07,
Yes-No Task,41,0,41,0,11.2,-1,Hit,0.5009149,True,-1,stimulus_DIAN07_Yes-No Task_2019_Jun_14_1535_492,-1,True,2019_Jun_14_1535,Yes-No Task,3,DIAN07,
Yes-No Task,42,0,42,0,16.9,-1,Hit,0.468333000001,True,-1,stimulus_DIAN07_Yes-No Task_2019_Jun_14_1535_493,-1,True,2019_Jun_14_1535,Yes-No Task,3,DIAN07,
Yes-No Task,43,0,43,0,8.1,-1,Correct Rejection,0.4336363,False,-1,stimulus_DIAN07_Yes-No Task_2019_Jun_14_1535_494,-1,True,2019_Jun_14_1535,Yes-No Task,3,DIAN07,
Yes-No Task,44,0,44,0,9.8,-1,Hit,0.400703400001,True,-1,stimulus_DIAN07_Yes-No Task_2019_Jun_14_1535_495,-1,True,2019_Jun_14_1535,Yes-No Task,3,DIAN07,
Yes-No Task,45,0,45,0,9.8,-1,Correct Rejection,0.4673605,False,-1,stimulus_DIAN07_Yes-No Task_2019_Jun_14_1535_496,-1,True,2019_Jun_14_1535,Yes-No Task,3,DIAN07,
Yes-No Task,46,0,46,0,5.8,-1,Miss,0.534192700001,True,-1,stimulus_DIAN07_Yes-No Task_2019_Jun_14_1535_497,-1,True,2019_Jun_14_1535,Yes-No Task,3,DIAN07,
Yes-No Task,47,0,47,0,15.3,-1,Correct Rejection,0.5670904,False,-1,stimulus_DIAN07_Yes-No Task_2019_Jun_14_1535_498,-1,True,2019_Jun_14_1535,Yes-No Task,3,DIAN07,
Yes-No Task,48,0,48,0,13.9,-1,Correct Rejection,0.4342124,False,-1,stimulus_DIAN07_Yes-No Task_2019_Jun_14_1535_499,-1,True,2019_Jun_14_1535,Yes-No Task,3,DIAN07,
Yes-No Task,49,0,49,0,5.8,-1,Miss,0.4341883,True,-1,stimulus_DIAN07_Yes-No Task_2019_Jun_14_1535_500,-1,True,2019_Jun_14_1535,Yes-No Task,3,DIAN07,
Yes-No Task,50,0,50,0,8.1,-1,Hit,0.533767299999,True,-1,stimulus_DIAN07_Yes-No Task_2019_Jun_14_1535_501,-1,True,2019_Jun_14_1535,Yes-No Task,3,DIAN07,
Yes-No Task,51,0,51,0,15.3,-1,Hit,0.4348132,True,-1,stimulus_DIAN07_Yes-No Task_2019_Jun_14_1535_502,-1,True,2019_Jun_14_1535,Yes-No Task,3,DIAN07,
Yes-No Task,52,0,52,0,16.9,-1,Hit,0.4006812,True,-1,stimulus_DIAN07_Yes-No Task_2019_Jun_14_1535_503,-1,True,2019_Jun_14_1535,Yes-No Task,3,DIAN07,
Yes-No Task,53,0,53,0,9.8,-1,Hit,0.4997052,True,-1,stimulus_DIAN07_Yes-No Task_2019_Jun_14_1535_504,-1,True,2019_Jun_14_1535,Yes-No Task,3,DIAN07,
Yes-No Task,54,0,54,0,15.3,-1,Hit,0.4337356,True,-1,stimulus_DIAN07_Yes-No Task_2019_Jun_14_1535_505,-1,True,2019_Jun_14_1535,Yes-No Task,3,DIAN07,
Yes-No Task,55,0,55,0,5.8,-1,Miss,0.4668851,True,-1,stimulus_DIAN07_Yes-No Task_2019_Jun_14_1535_506,-1,True,2019_Jun_14_1535,Yes-No Task,3,DIAN07,
Yes-No Task,56,0,56,0,15.3,-1,Correct Rejection,0.5672385,False,-1,stimulus_DIAN07_Yes-No Task_2019_Jun_14_1535_507,-1,True,2019_Jun_14_1535,Yes-No Task,3,DIAN07,
Yes-No Task,57,0,57,0,8.1,-1,Correct Rejection,0.4672936,False,-1,stimulus_DIAN07_Yes-No Task_2019_Jun_14_1535_508,-1,True,2019_Jun_14_1535,Yes-No Task,3,DIAN07,
Yes-No Task,58,0,58,0,9.8,-1,Hit,0.5008097,True,-1,stimulus_DIAN07_Yes-No Task_2019_Jun_14_1535_509,-1,True,2019_Jun_14_1535,Yes-No Task,3,DIAN07,
Yes-No Task,59,0,59,0,16.9,-1,Hit,0.4003532,True,-1,stimulus_DIAN07_Yes-No Task_2019_Jun_14_1535_510,-1,True,2019_Jun_14_1535,Yes-No Task,3,DIAN07,
Yes-No Task,60,0,60,0,5.8,-1,Hit,0.4340998,True,-1,stimulus_DIAN07_Yes-No Task_2019_Jun_14_1535_511,-1,True,2019_Jun_14_1535,Yes-No Task,3,DIAN07,
Yes-No Task,61,0,61,0,12.5,-1,Hit,0.534034800001,True,-1,stimulus_DIAN07_Yes-No Task_2019_Jun_14_1535_512,-1,True,2019_Jun_14_1535,Yes-No Task,3,DIAN07,
Yes-No Task,62,0,62,0,11.2,-1,Hit,0.4337009,True,-1,stimulus_DIAN07_Yes-No Task_2019_Jun_14_1535_513,-1,True,2019_Jun_14_1535,Yes-No Task,3,DIAN07,
Yes-No Task,63,0,63,0,9.8,-1,Miss,0.5007909,True,-1,stimulus_DIAN07_Yes-No Task_2019_Jun_14_1535_514,-1,True,2019_Jun_14_1535,Yes-No Task,3,DIAN07,
Yes-No Task,64,0,64,0,5.8,-1,False Alarm,0.399748700001,False,-1,stimulus_DIAN07_Yes-No Task_2019_Jun_14_1535_515,-1,True,2019_Jun_14_1535,Yes-No Task,3,DIAN07,
Yes-No Task,65,0,65,0,9.8,-1,Correct Rejection,0.4337572,False,-1,stimulus_DIAN07_Yes-No Task_2019_Jun_14_1535_516,-1,True,2019_Jun_14_1535,Yes-No Task,3,DIAN07,
Yes-No Task,66,0,66,0,13.9,-1,Correct Rejection,0.467401000001,False,-1,stimulus_DIAN07_Yes-No Task_2019_Jun_14_1535_517,-1,True,2019_Jun_14_1535,Yes-No Task,3,DIAN07,
Yes-No Task,67,0,67,0,13.9,-1,Hit,0.497516099999,True,-1,stimulus_DIAN07_Yes-No Task_2019_Jun_14_1535_518,-1,True,2019_Jun_14_1535,Yes-No Task,3,DIAN07,
Yes-No Task,68,0,68,0,16.9,-1,Correct Rejection,0.534128400001,False,-1,stimulus_DIAN07_Yes-No Task_2019_Jun_14_1535_519,-1,True,2019_Jun_14_1535,Yes-No Task,3,DIAN07,
Yes-No Task,69,0,69,0,8.1,-1,Correct Rejection,0.5005314,False,-1,stimulus_DIAN07_Yes-No Task_2019_Jun_14_1535_520,-1,True,2019_Jun_14_1535,Yes-No Task,3,DIAN07,
Yes-No Task,70,0,70,0,8.1,-1,Correct Rejection,0.6343313,False,-1,stimulus_DIAN07_Yes-No Task_2019_Jun_14_1535_521,-1,True,2019_Jun_14_1535,Yes-No Task,3,DIAN07,
Yes-No Task,71,0,71,0,12.5,-1,Hit,0.466548,True,-1,stimulus_DIAN07_Yes-No Task_2019_Jun_14_1535_522,-1,True,2019_Jun_14_1535,Yes-No Task,3,DIAN07,
Yes-No Task,72,0,72,0,8.1,-1,Correct Rejection,0.4677549,False,-1,stimulus_DIAN07_Yes-No Task_2019_Jun_14_1535_523,-1,True,2019_Jun_14_1535,Yes-No Task,3,DIAN07,
Yes-No Task,73,0,73,0,15.3,-1,Correct Rejection,0.4345169,False,-1,stimulus_DIAN07_Yes-No Task_2019_Jun_14_1535_524,-1,True,2019_Jun_14_1535,Yes-No Task,3,DIAN07,
Yes-No Task,74,0,74,0,8.1,-1,Miss,0.4005701,True,-1,stimulus_DIAN07_Yes-No Task_2019_Jun_14_1535_525,-1,True,2019_Jun_14_1535,Yes-No Task,3,DIAN07,
Yes-No Task,0,0,0,0,11.2,-1,Hit,0.433803100001,True,-1,stimulus_DIAN07_Yes-No Task_2019_Jun_14_1535_526,-1,True,2019_Jun_14_1535,Yes-No Task,3,DIAN07,
Yes-No Task,1,0,1,0,11.2,-1,Correct Rejection,0.400142699999,False,-1,stimulus_DIAN07_Yes-No Task_2019_Jun_14_1535_527,-1,True,2019_Jun_14_1535,Yes-No Task,3,DIAN07,
Yes-No Task,2,0,2,0,11.2,-1,Correct Rejection,0.4341795,False,-1,stimulus_DIAN07_Yes-No Task_2019_Jun_14_1535_528,-1,True,2019_Jun_14_1535,Yes-No Task,3,DIAN07,
Yes-No Task,3,0,3,0,12.5,-1,False Alarm,0.366424899999,False,-1,stimulus_DIAN07_Yes-No Task_2019_Jun_14_1535_529,-1,True,2019_Jun_14_1535,Yes-No Task,3,DIAN07,
Yes-No Task,4,0,4,0,5.8,-1,Correct Rejection,0.3014433,False,-1,stimulus_DIAN07_Yes-No Task_2019_Jun_14_1535_530,-1,True,2019_Jun_14_1535,Yes-No Task,3,DIAN07,
Yes-No Task,5,0,5,0,15.3,-1,Miss,0.3672139,True,-1,stimulus_DIAN07_Yes-No Task_2019_Jun_14_1535_531,-1,True,2019_Jun_14_1535,Yes-No Task,3,DIAN07,
Yes-No Task,6,0,6,0,8.1,-1,Correct Rejection,0.4669112,False,-1,stimulus_DIAN07_Yes-No Task_2019_Jun_14_1535_532,-1,True,2019_Jun_14_1535,Yes-No Task,3,DIAN07,
Yes-No Task,7,0,7,0,11.2,-1,Correct Rejection,0.433819,False,-1,stimulus_DIAN07_Yes-No Task_2019_Jun_14_1535_533,-1,True,2019_Jun_14_1535,Yes-No Task,3,DIAN07,
Yes-No Task,8,0,8,0,11.2,-1,Correct Rejection,0.4347492,False,-1,stimulus_DIAN07_Yes-No Task_2019_Jun_14_1535_534,-1,True,2019_Jun_14_1535,Yes-No Task,3,DIAN07,
Yes-No Task,9,0,9,0,15.3,-1,Miss,0.3672924,True,-1,stimulus_DIAN07_Yes-No Task_2019_Jun_14_1535_535,-1,True,2019_Jun_14_1535,Yes-No Task,3,DIAN07,
Yes-No Task,10,0,10,0,9.8,-1,Miss,0.4997416,True,-1,stimulus_DIAN07_Yes-No Task_2019_Jun_14_1535_536,-1,True,2019_Jun_14_1535,Yes-No Task,3,DIAN07,
Yes-No Task,11,0,11,0,11.2,-1,Miss,0.6010511,True,-1,stimulus_DIAN07_Yes-No Task_2019_Jun_14_1535_537,-1,True,2019_Jun_14_1535,Yes-No Task,3,DIAN07,
Yes-No Task,12,0,12,0,12.5,-1,Correct Rejection,0.4342313,False,-1,stimulus_DIAN07_Yes-No Task_2019_Jun_14_1535_538,-1,True,2019_Jun_14_1535,Yes-No Task,3,DIAN07,
Yes-No Task,13,0,13,0,9.8,-1,Correct Rejection,0.4347692,False,-1,stimulus_DIAN07_Yes-No Task_2019_Jun_14_1535_539,-1,True,2019_Jun_14_1535,Yes-No Task,3,DIAN07,
Yes-No Task,14,0,14,0,9.8,-1,Correct Rejection,0.4672623,False,-1,stimulus_DIAN07_Yes-No Task_2019_Jun_14_1535_540,-1,True,2019_Jun_14_1535,Yes-No Task,3,DIAN07,
Yes-No Task,15,0,15,0,15.3,-1,Correct Rejection,0.399881,False,-1,stimulus_DIAN07_Yes-No Task_2019_Jun_14_1535_541,-1,True,2019_Jun_14_1535,Yes-No Task,3,DIAN07,
Yes-No Task,16,0,16,0,9.8,-1,Miss,0.4345605,True,-1,stimulus_DIAN07_Yes-No Task_2019_Jun_14_1535_542,-1,True,2019_Jun_14_1535,Yes-No Task,3,DIAN07,
Yes-No Task,17,0,17,0,13.9,-1,Hit,0.5004744,True,-1,stimulus_DIAN07_Yes-No Task_2019_Jun_14_1535_543,-1,True,2019_Jun_14_1535,Yes-No Task,3,DIAN07,
Yes-No Task,18,0,18,0,16.9,-1,Hit,0.4668923,True,-1,stimulus_DIAN07_Yes-No Task_2019_Jun_14_1535_544,-1,True,2019_Jun_14_1535,Yes-No Task,3,DIAN07,
Yes-No Task,19,0,19,0,8.1,-1,Miss,0.4678111,True,-1,stimulus_DIAN07_Yes-No Task_2019_Jun_14_1535_545,-1,True,2019_Jun_14_1535,Yes-No Task,3,DIAN07,
Yes-No Task,20,0,20,0,9.8,-1,Miss,0.433467700001,True,-1,stimulus_DIAN07_Yes-No Task_2019_Jun_14_1535_546,-1,True,2019_Jun_14_1535,Yes-No Task,3,DIAN07,
Yes-No Task,21,0,21,0,11.2,-1,Hit,0.4006357,True,-1,stimulus_DIAN07_Yes-No Task_2019_Jun_14_1535_547,-1,True,2019_Jun_14_1535,Yes-No Task,3,DIAN07,
Yes-No Task,22,0,22,0,13.9,-1,False Alarm,0.4657272,False,-1,stimulus_DIAN07_Yes-No Task_2019_Jun_14_1535_548,-1,True,2019_Jun_14_1535,Yes-No Task,3,DIAN07,
Yes-No Task,23,0,23,0,11.2,-1,Correct Rejection,0.4346145,False,-1,stimulus_DIAN07_Yes-No Task_2019_Jun_14_1535_549,-1,True,2019_Jun_14_1535,Yes-No Task,3,DIAN07,
Yes-No Task,24,0,24,0,15.3,-1,Correct Rejection,0.433888500001,False,-1,stimulus_DIAN07_Yes-No Task_2019_Jun_14_1535_550,-1,True,2019_Jun_14_1535,Yes-No Task,3,DIAN07,
Yes-No Task,25,0,25,0,8.1,-1,False Alarm,0.6333317,False,-1,stimulus_DIAN07_Yes-No Task_2019_Jun_14_1535_551,-1,True,2019_Jun_14_1535,Yes-No Task,3,DIAN07,
Yes-No Task,26,0,26,0,15.3,-1,Correct Rejection,0.3680276,False,-1,stimulus_DIAN07_Yes-No Task_2019_Jun_14_1535_552,-1,True,2019_Jun_14_1535,Yes-No Task,3,DIAN07,
Yes-No Task,27,0,27,0,11.2,-1,Correct Rejection,0.4002232,False,-1,stimulus_DIAN07_Yes-No Task_2019_Jun_14_1535_553,-1,True,2019_Jun_14_1535,Yes-No Task,3,DIAN07,
Yes-No Task,28,0,28,0,5.8,-1,Correct Rejection,0.3686774,False,-1,stimulus_DIAN07_Yes-No Task_2019_Jun_14_1535_554,-1,True,2019_Jun_14_1535,Yes-No Task,3,DIAN07,
Yes-No Task,29,0,29,0,12.5,-1,Hit,0.467325699999,True,-1,stimulus_DIAN07_Yes-No Task_2019_Jun_14_1535_555,-1,True,2019_Jun_14_1535,Yes-No Task,3,DIAN07,
Yes-No Task,30,0,30,0,5.8,-1,Miss,0.500648900001,True,-1,stimulus_DIAN07_Yes-No Task_2019_Jun_14_1535_556,-1,True,2019_Jun_14_1535,Yes-No Task,3,DIAN07,
Yes-No Task,31,0,31,0,13.9,-1,False Alarm,0.4005758,False,-1,stimulus_DIAN07_Yes-No Task_2019_Jun_14_1535_557,-1,True,2019_Jun_14_1535,Yes-No Task,3,DIAN07,
Yes-No Task,32,0,32,0,11.2,-1,Correct Rejection,0.4671303,False,-1,stimulus_DIAN07_Yes-No Task_2019_Jun_14_1535_558,-1,True,2019_Jun_14_1535,Yes-No Task,3,DIAN07,
Yes-No Task,33,0,33,0,16.9,-1,Correct Rejection,0.567529899999,False,-1,stimulus_DIAN07_Yes-No Task_2019_Jun_14_1535_559,-1,True,2019_Jun_14_1535,Yes-No Task,3,DIAN07,
Yes-No Task,34,0,34,0,5.8,-1,Hit,0.4668002,True,-1,stimulus_DIAN07_Yes-No Task_2019_Jun_14_1535_560,-1,True,2019_Jun_14_1535,Yes-No Task,3,DIAN07,
Yes-No Task,35,0,35,0,8.1,-1,Hit,0.500461000001,True,-1,stimulus_DIAN07_Yes-No Task_2019_Jun_14_1535_561,-1,True,2019_Jun_14_1535,Yes-No Task,3,DIAN07,
Yes-No Task,36,0,36,0,16.9,-1,Hit,0.4342435,True,-1,stimulus_DIAN07_Yes-No Task_2019_Jun_14_1535_562,-1,True,2019_Jun_14_1535,Yes-No Task,3,DIAN07,
Yes-No Task,37,0,37,0,8.1,-1,Correct Rejection,0.4685675,False,-1,stimulus_DIAN07_Yes-No Task_2019_Jun_14_1535_563,-1,True,2019_Jun_14_1535,Yes-No Task,3,DIAN07,
Yes-No Task,38,0,38,0,16.9,-1,Correct Rejection,0.4672893,False,-1,stimulus_DIAN07_Yes-No Task_2019_Jun_14_1535_564,-1,True,2019_Jun_14_1535,Yes-No Task,3,DIAN07,
Yes-No Task,39,0,39,0,11.2,-1,Hit,0.434034800001,True,-1,stimulus_DIAN07_Yes-No Task_2019_Jun_14_1535_565,-1,True,2019_Jun_14_1535,Yes-No Task,3,DIAN07,
Yes-No Task,40,0,40,0,15.3,-1,Correct Rejection,0.5336391,False,-1,stimulus_DIAN07_Yes-No Task_2019_Jun_14_1535_566,-1,True,2019_Jun_14_1535,Yes-No Task,3,DIAN07,
Yes-No Task,41,0,41,0,5.8,-1,Correct Rejection,0.534025399999,False,-1,stimulus_DIAN07_Yes-No Task_2019_Jun_14_1535_567,-1,True,2019_Jun_14_1535,Yes-No Task,3,DIAN07,
Yes-No Task,42,0,42,0,8.1,-1,False Alarm,0.4005469,False,-1,stimulus_DIAN07_Yes-No Task_2019_Jun_14_1535_568,-1,True,2019_Jun_14_1535,Yes-No Task,3,DIAN07,
Yes-No Task,43,0,43,0,13.9,-1,Hit,0.4337617,True,-1,stimulus_DIAN07_Yes-No Task_2019_Jun_14_1535_569,-1,True,2019_Jun_14_1535,Yes-No Task,3,DIAN07,
Yes-No Task,44,0,44,0,5.8,-1,Correct Rejection,0.4673637,False,-1,stimulus_DIAN07_Yes-No Task_2019_Jun_14_1535_570,-1,True,2019_Jun_14_1535,Yes-No Task,3,DIAN07,
Yes-No Task,45,0,45,0,13.9,-1,Hit,0.434263200001,True,-1,stimulus_DIAN07_Yes-No Task_2019_Jun_14_1535_571,-1,True,2019_Jun_14_1535,Yes-No Task,3,DIAN07,
Yes-No Task,46,0,46,0,15.3,-1,Hit,0.501751399999,True,-1,stimulus_DIAN07_Yes-No Task_2019_Jun_14_1535_572,-1,True,2019_Jun_14_1535,Yes-No Task,3,DIAN07,
Yes-No Task,47,0,47,0,15.3,-1,Hit,0.399981,True,-1,stimulus_DIAN07_Yes-No Task_2019_Jun_14_1535_573,-1,True,2019_Jun_14_1535,Yes-No Task,3,DIAN07,
Yes-No Task,48,0,48,0,9.8,-1,Hit,0.4336512,True,-1,stimulus_DIAN07_Yes-No Task_2019_Jun_14_1535_574,-1,True,2019_Jun_14_1535,Yes-No Task,3,DIAN07,
Yes-No Task,49,0,49,0,5.8,-1,False Alarm,0.4004514,False,-1,stimulus_DIAN07_Yes-No Task_2019_Jun_14_1535_575,-1,True,2019_Jun_14_1535,Yes-No Task,3,DIAN07,
Yes-No Task,50,0,50,0,9.8,-1,Correct Rejection,0.5683583,False,-1,stimulus_DIAN07_Yes-No Task_2019_Jun_14_1535_576,-1,True,2019_Jun_14_1535,Yes-No Task,3,DIAN07,
Yes-No Task,51,0,51,0,15.3,-1,Correct Rejection,0.6002199,False,-1,stimulus_DIAN07_Yes-No Task_2019_Jun_14_1535_577,-1,True,2019_Jun_14_1535,Yes-No Task,3,DIAN07,
Yes-No Task,52,0,52,0,13.9,-1,Correct Rejection,0.4359066,False,-1,stimulus_DIAN07_Yes-No Task_2019_Jun_14_1535_578,-1,True,2019_Jun_14_1535,Yes-No Task,3,DIAN07,
Yes-No Task,53,0,53,0,15.3,-1,Hit,0.4338909,True,-1,stimulus_DIAN07_Yes-No Task_2019_Jun_14_1535_579,-1,True,2019_Jun_14_1535,Yes-No Task,3,DIAN07,
Yes-No Task,54,0,54,0,11.2,-1,Correct Rejection,0.533621500001,False,-1,stimulus_DIAN07_Yes-No Task_2019_Jun_14_1535_580,-1,True,2019_Jun_14_1535,Yes-No Task,3,DIAN07,
Yes-No Task,55,0,55,0,5.8,-1,Correct Rejection,0.4670711,False,-1,stimulus_DIAN07_Yes-No Task_2019_Jun_14_1535_581,-1,True,2019_Jun_14_1535,Yes-No Task,3,DIAN07,
Yes-No Task,56,0,56,0,16.9,-1,Hit,0.4000427,True,-1,stimulus_DIAN07_Yes-No Task_2019_Jun_14_1535_582,-1,True,2019_Jun_14_1535,Yes-No Task,3,DIAN07,
Yes-No Task,57,0,57,0,11.2,-1,Correct Rejection,0.5022169,False,-1,stimulus_DIAN07_Yes-No Task_2019_Jun_14_1535_583,-1,True,2019_Jun_14_1535,Yes-No Task,3,DIAN07,
Yes-No Task,58,0,58,0,13.9,-1,Hit,0.4671937,True,-1,stimulus_DIAN07_Yes-No Task_2019_Jun_14_1535_584,-1,True,2019_Jun_14_1535,Yes-No Task,3,DIAN07,
Yes-No Task,59,0,59,0,15.3,-1,Correct Rejection,0.5341942,False,-1,stimulus_DIAN07_Yes-No Task_2019_Jun_14_1535_585,-1,True,2019_Jun_14_1535,Yes-No Task,3,DIAN07,
Yes-No Task,60,0,60,0,11.2,-1,False Alarm,0.6335374,False,-1,stimulus_DIAN07_Yes-No Task_2019_Jun_14_1535_586,-1,True,2019_Jun_14_1535,Yes-No Task,3,DIAN07,
Yes-No Task,61,0,61,0,12.5,-1,Hit,0.5003176,True,-1,stimulus_DIAN07_Yes-No Task_2019_Jun_14_1535_587,-1,True,2019_Jun_14_1535,Yes-No Task,3,DIAN07,
Yes-No Task,62,0,62,0,13.9,-1,Hit,0.4334013,True,-1,stimulus_DIAN07_Yes-No Task_2019_Jun_14_1535_588,-1,True,2019_Jun_14_1535,Yes-No Task,3,DIAN07,
Yes-No Task,63,0,63,0,9.8,-1,Hit,0.4326968,True,-1,stimulus_DIAN07_Yes-No Task_2019_Jun_14_1535_589,-1,True,2019_Jun_14_1535,Yes-No Task,3,DIAN07,
Yes-No Task,64,0,64,0,16.9,-1,Correct Rejection,0.4656336,False,-1,stimulus_DIAN07_Yes-No Task_2019_Jun_14_1535_590,-1,True,2019_Jun_14_1535,Yes-No Task,3,DIAN07,
Yes-No Task,65,0,65,0,11.2,-1,Correct Rejection,0.5340882,False,-1,stimulus_DIAN07_Yes-No Task_2019_Jun_14_1535_591,-1,True,2019_Jun_14_1535,Yes-No Task,3,DIAN07,
Yes-No Task,66,0,66,0,8.1,-1,Miss,0.5997233,True,-1,stimulus_DIAN07_Yes-No Task_2019_Jun_14_1535_592,-1,True,2019_Jun_14_1535,Yes-No Task,3,DIAN07,
Yes-No Task,67,0,67,0,8.1,-1,False Alarm,0.4677852,False,-1,stimulus_DIAN07_Yes-No Task_2019_Jun_14_1535_593,-1,True,2019_Jun_14_1535,Yes-No Task,3,DIAN07,
Yes-No Task,68,0,68,0,16.9,-1,Correct Rejection,0.6670288,False,-1,stimulus_DIAN07_Yes-No Task_2019_Jun_14_1535_594,-1,True,2019_Jun_14_1535,Yes-No Task,3,DIAN07,
Yes-No Task,69,0,69,0,13.9,-1,False Alarm,0.2675491,False,-1,stimulus_DIAN07_Yes-No Task_2019_Jun_14_1535_595,-1,True,2019_Jun_14_1535,Yes-No Task,3,DIAN07,
Yes-No Task,70,0,70,0,15.3,-1,Correct Rejection,0.4671628,False,-1,stimulus_DIAN07_Yes-No Task_2019_Jun_14_1535_596,-1,True,2019_Jun_14_1535,Yes-No Task,3,DIAN07,
Yes-No Task,71,0,71,0,15.3,-1,Hit,0.567243699999,True,-1,stimulus_DIAN07_Yes-No Task_2019_Jun_14_1535_597,-1,True,2019_Jun_14_1535,Yes-No Task,3,DIAN07,
Yes-No Task,72,0,72,0,16.9,-1,Hit,0.5341525,True,-1,stimulus_DIAN07_Yes-No Task_2019_Jun_14_1535_598,-1,True,2019_Jun_14_1535,Yes-No Task,3,DIAN07,
Yes-No Task,73,0,73,0,15.3,-1,Hit,0.467192,True,-1,stimulus_DIAN07_Yes-No Task_2019_Jun_14_1535_599,-1,True,2019_Jun_14_1535,Yes-No Task,3,DIAN07,
Yes-No Task,74,0,74,0,12.5,-1,Hit,0.500416100001,True,-1,stimulus_DIAN07_Yes-No Task_2019_Jun_14_1535_600,-1,True,2019_Jun_14_1535,Yes-No Task,3,DIAN07,
