Task,trials.thisRepN,trials.thisTrialN,trials.thisN,trials.thisIndex,signal_intensity,constant Value,response,time_response,signal_on_stimuluspos1,signal_on_stimuluspos2,stimulus_name_pos1,stimulus_name_pos2,random_intensity,date,expName,session,participant,
2IFC,0,0,0,0,16.9,-1,wrong answer,0.633537400048,True,False,stimulusDIAN07_2IFC_2019_Jun_13_1802_1,stimulusDIAN07_2IFC_2019_Jun_13_1802_2,False,2019_Jun_13_1802,2IFC,2,DIAN07,
2IFC,1,0,1,0,16.9,-1,correct answer,0.466746499995,False,True,stimulusDIAN07_2IFC_2019_Jun_13_1802_3,stimulusDIAN07_2IFC_2019_Jun_13_1802_4,False,2019_Jun_13_1802,2IFC,2,DIAN07,
2IFC,2,0,2,0,16.9,-1,wrong answer,0.333792800084,False,True,stimulusDIAN07_2IFC_2019_Jun_13_1802_5,stimulusDIAN07_2IFC_2019_Jun_13_1802_6,False,2019_Jun_13_1802,2IFC,2,DIAN07,
2IFC,3,0,3,0,16.9,-1,correct answer,0.267330500064,True,False,stimulusDIAN07_2IFC_2019_Jun_13_1802_7,stimulusDIAN07_2IFC_2019_Jun_13_1802_8,False,2019_Jun_13_1802,2IFC,2,DIAN07,
2IFC,4,0,4,0,16.9,-1,correct answer,0.367489099968,True,False,stimulusDIAN07_2IFC_2019_Jun_13_1802_9,stimulusDIAN07_2IFC_2019_Jun_13_1802_10,False,2019_Jun_13_1802,2IFC,2,DIAN07,
2IFC,5,0,5,0,16.9,-1,correct answer,0.266013399931,True,False,stimulusDIAN07_2IFC_2019_Jun_13_1802_11,stimulusDIAN07_2IFC_2019_Jun_13_1802_12,False,2019_Jun_13_1802,2IFC,2,DIAN07,
2IFC,6,0,6,0,16.9,-1,correct answer,0.467649299884,False,True,stimulusDIAN07_2IFC_2019_Jun_13_1802_13,stimulusDIAN07_2IFC_2019_Jun_13_1802_14,False,2019_Jun_13_1802,2IFC,2,DIAN07,
2IFC,7,0,7,0,16.9,-1,correct answer,0.232913599815,True,False,stimulusDIAN07_2IFC_2019_Jun_13_1802_15,stimulusDIAN07_2IFC_2019_Jun_13_1802_16,False,2019_Jun_13_1802,2IFC,2,DIAN07,
2IFC,8,0,8,0,16.9,-1,correct answer,0.133669600124,True,False,stimulusDIAN07_2IFC_2019_Jun_13_1802_17,stimulusDIAN07_2IFC_2019_Jun_13_1802_18,False,2019_Jun_13_1802,2IFC,2,DIAN07,
2IFC,9,0,9,0,16.9,-1,correct answer,0.434200400021,False,True,stimulusDIAN07_2IFC_2019_Jun_13_1802_19,stimulusDIAN07_2IFC_2019_Jun_13_1802_20,False,2019_Jun_13_1802,2IFC,2,DIAN07,
2IFC,10,0,10,0,16.9,-1,correct answer,0.46743259998,False,True,stimulusDIAN07_2IFC_2019_Jun_13_1802_21,stimulusDIAN07_2IFC_2019_Jun_13_1802_22,False,2019_Jun_13_1802,2IFC,2,DIAN07,
2IFC,11,0,11,0,16.9,-1,correct answer,0.400376299862,False,True,stimulusDIAN07_2IFC_2019_Jun_13_1802_23,stimulusDIAN07_2IFC_2019_Jun_13_1802_24,False,2019_Jun_13_1802,2IFC,2,DIAN07,
2IFC,12,0,12,0,16.9,-1,correct answer,0.267037400045,True,False,stimulusDIAN07_2IFC_2019_Jun_13_1802_25,stimulusDIAN07_2IFC_2019_Jun_13_1802_26,False,2019_Jun_13_1802,2IFC,2,DIAN07,
2IFC,13,0,13,0,16.9,-1,correct answer,0.266963700065,True,False,stimulusDIAN07_2IFC_2019_Jun_13_1802_27,stimulusDIAN07_2IFC_2019_Jun_13_1802_28,False,2019_Jun_13_1802,2IFC,2,DIAN07,
2IFC,14,0,14,0,16.9,-1,correct answer,0.267401099904,True,False,stimulusDIAN07_2IFC_2019_Jun_13_1802_29,stimulusDIAN07_2IFC_2019_Jun_13_1802_30,False,2019_Jun_13_1802,2IFC,2,DIAN07,
2IFC,15,0,15,0,16.9,-1,correct answer,0.266724999994,True,False,stimulusDIAN07_2IFC_2019_Jun_13_1802_31,stimulusDIAN07_2IFC_2019_Jun_13_1802_32,False,2019_Jun_13_1802,2IFC,2,DIAN07,
2IFC,16,0,16,0,16.9,-1,correct answer,0.200488199946,True,False,stimulusDIAN07_2IFC_2019_Jun_13_1802_33,stimulusDIAN07_2IFC_2019_Jun_13_1802_34,False,2019_Jun_13_1802,2IFC,2,DIAN07,
2IFC,17,0,17,0,16.9,-1,correct answer,0.367473100079,False,True,stimulusDIAN07_2IFC_2019_Jun_13_1802_35,stimulusDIAN07_2IFC_2019_Jun_13_1802_36,False,2019_Jun_13_1802,2IFC,2,DIAN07,
2IFC,18,0,18,0,16.9,-1,correct answer,0.534150400199,True,False,stimulusDIAN07_2IFC_2019_Jun_13_1802_37,stimulusDIAN07_2IFC_2019_Jun_13_1802_38,False,2019_Jun_13_1802,2IFC,2,DIAN07,
2IFC,19,0,19,0,16.9,-1,correct answer,0.333632499911,False,True,stimulusDIAN07_2IFC_2019_Jun_13_1802_39,stimulusDIAN07_2IFC_2019_Jun_13_1802_40,False,2019_Jun_13_1802,2IFC,2,DIAN07,
2IFC,20,0,20,0,16.9,-1,correct answer,0.233683599858,True,False,stimulusDIAN07_2IFC_2019_Jun_13_1802_41,stimulusDIAN07_2IFC_2019_Jun_13_1802_42,False,2019_Jun_13_1802,2IFC,2,DIAN07,
2IFC,21,0,21,0,16.9,-1,correct answer,0.36763829994,False,True,stimulusDIAN07_2IFC_2019_Jun_13_1802_43,stimulusDIAN07_2IFC_2019_Jun_13_1802_44,False,2019_Jun_13_1802,2IFC,2,DIAN07,
2IFC,22,0,22,0,16.9,-1,correct answer,0.233831600053,True,False,stimulusDIAN07_2IFC_2019_Jun_13_1802_45,stimulusDIAN07_2IFC_2019_Jun_13_1802_46,False,2019_Jun_13_1802,2IFC,2,DIAN07,
2IFC,23,0,23,0,16.9,-1,correct answer,0.366757499985,False,True,stimulusDIAN07_2IFC_2019_Jun_13_1802_47,stimulusDIAN07_2IFC_2019_Jun_13_1802_48,False,2019_Jun_13_1802,2IFC,2,DIAN07,
2IFC,24,0,24,0,16.9,-1,correct answer,0.367828799877,False,True,stimulusDIAN07_2IFC_2019_Jun_13_1802_49,stimulusDIAN07_2IFC_2019_Jun_13_1802_50,False,2019_Jun_13_1802,2IFC,2,DIAN07,
2IFC,25,0,25,0,16.9,-1,correct answer,0.534249299904,False,True,stimulusDIAN07_2IFC_2019_Jun_13_1802_51,stimulusDIAN07_2IFC_2019_Jun_13_1802_52,False,2019_Jun_13_1802,2IFC,2,DIAN07,
2IFC,26,0,26,0,16.9,-1,correct answer,0.333758100169,False,True,stimulusDIAN07_2IFC_2019_Jun_13_1802_53,stimulusDIAN07_2IFC_2019_Jun_13_1802_54,False,2019_Jun_13_1802,2IFC,2,DIAN07,
2IFC,27,0,27,0,16.9,-1,correct answer,0.100929900073,True,False,stimulusDIAN07_2IFC_2019_Jun_13_1802_55,stimulusDIAN07_2IFC_2019_Jun_13_1802_56,False,2019_Jun_13_1802,2IFC,2,DIAN07,
2IFC,28,0,28,0,16.9,-1,correct answer,0.301569199888,False,True,stimulusDIAN07_2IFC_2019_Jun_13_1802_57,stimulusDIAN07_2IFC_2019_Jun_13_1802_58,False,2019_Jun_13_1802,2IFC,2,DIAN07,
2IFC,29,0,29,0,16.9,-1,correct answer,0.30099290004,False,True,stimulusDIAN07_2IFC_2019_Jun_13_1802_59,stimulusDIAN07_2IFC_2019_Jun_13_1802_60,False,2019_Jun_13_1802,2IFC,2,DIAN07,
2IFC,30,0,30,0,16.9,-1,correct answer,0.20041229995,True,False,stimulusDIAN07_2IFC_2019_Jun_13_1802_61,stimulusDIAN07_2IFC_2019_Jun_13_1802_62,False,2019_Jun_13_1802,2IFC,2,DIAN07,
2IFC,31,0,31,0,16.9,-1,correct answer,0.300160499988,False,True,stimulusDIAN07_2IFC_2019_Jun_13_1802_63,stimulusDIAN07_2IFC_2019_Jun_13_1802_64,False,2019_Jun_13_1802,2IFC,2,DIAN07,
2IFC,32,0,32,0,16.9,-1,correct answer,0.0337847999763,True,False,stimulusDIAN07_2IFC_2019_Jun_13_1802_65,stimulusDIAN07_2IFC_2019_Jun_13_1802_66,False,2019_Jun_13_1802,2IFC,2,DIAN07,
2IFC,33,0,33,0,16.9,-1,correct answer,0.266967700096,False,True,stimulusDIAN07_2IFC_2019_Jun_13_1802_67,stimulusDIAN07_2IFC_2019_Jun_13_1802_68,False,2019_Jun_13_1802,2IFC,2,DIAN07,
2IFC,34,0,34,0,16.9,-1,correct answer,0.36723650014,True,False,stimulusDIAN07_2IFC_2019_Jun_13_1802_69,stimulusDIAN07_2IFC_2019_Jun_13_1802_70,False,2019_Jun_13_1802,2IFC,2,DIAN07,
2IFC,35,0,35,0,16.9,-1,correct answer,0.401075300062,False,True,stimulusDIAN07_2IFC_2019_Jun_13_1802_71,stimulusDIAN07_2IFC_2019_Jun_13_1802_72,False,2019_Jun_13_1802,2IFC,2,DIAN07,
2IFC,36,0,36,0,16.9,-1,correct answer,0.133767999941,True,False,stimulusDIAN07_2IFC_2019_Jun_13_1802_73,stimulusDIAN07_2IFC_2019_Jun_13_1802_74,False,2019_Jun_13_1802,2IFC,2,DIAN07,
2IFC,37,0,37,0,16.9,-1,correct answer,0.300674000056,False,True,stimulusDIAN07_2IFC_2019_Jun_13_1802_75,stimulusDIAN07_2IFC_2019_Jun_13_1802_76,False,2019_Jun_13_1802,2IFC,2,DIAN07,
2IFC,38,0,38,0,16.9,-1,correct answer,0.40040059993,False,True,stimulusDIAN07_2IFC_2019_Jun_13_1802_77,stimulusDIAN07_2IFC_2019_Jun_13_1802_78,False,2019_Jun_13_1802,2IFC,2,DIAN07,
2IFC,39,0,39,0,16.9,-1,correct answer,0.299941000063,False,True,stimulusDIAN07_2IFC_2019_Jun_13_1802_79,stimulusDIAN07_2IFC_2019_Jun_13_1802_80,False,2019_Jun_13_1802,2IFC,2,DIAN07,
2IFC,40,0,40,0,16.9,-1,correct answer,0.167442500126,True,False,stimulusDIAN07_2IFC_2019_Jun_13_1802_81,stimulusDIAN07_2IFC_2019_Jun_13_1802_82,False,2019_Jun_13_1802,2IFC,2,DIAN07,
2IFC,41,0,41,0,16.9,-1,correct answer,0.267651600065,False,True,stimulusDIAN07_2IFC_2019_Jun_13_1802_83,stimulusDIAN07_2IFC_2019_Jun_13_1802_84,False,2019_Jun_13_1802,2IFC,2,DIAN07,
2IFC,42,0,42,0,16.9,-1,correct answer,0.233412400121,True,False,stimulusDIAN07_2IFC_2019_Jun_13_1802_85,stimulusDIAN07_2IFC_2019_Jun_13_1802_86,False,2019_Jun_13_1802,2IFC,2,DIAN07,
2IFC,43,0,43,0,16.9,-1,correct answer,0.267158399802,False,True,stimulusDIAN07_2IFC_2019_Jun_13_1802_87,stimulusDIAN07_2IFC_2019_Jun_13_1802_88,False,2019_Jun_13_1802,2IFC,2,DIAN07,
2IFC,44,0,44,0,16.9,-1,correct answer,0.367278299993,False,True,stimulusDIAN07_2IFC_2019_Jun_13_1802_89,stimulusDIAN07_2IFC_2019_Jun_13_1802_90,False,2019_Jun_13_1802,2IFC,2,DIAN07,
2IFC,45,0,45,0,16.9,-1,correct answer,0.367895500036,False,True,stimulusDIAN07_2IFC_2019_Jun_13_1802_91,stimulusDIAN07_2IFC_2019_Jun_13_1802_92,False,2019_Jun_13_1802,2IFC,2,DIAN07,
2IFC,46,0,46,0,16.9,-1,correct answer,0.0338763999753,True,False,stimulusDIAN07_2IFC_2019_Jun_13_1802_93,stimulusDIAN07_2IFC_2019_Jun_13_1802_94,False,2019_Jun_13_1802,2IFC,2,DIAN07,
2IFC,47,0,47,0,16.9,-1,correct answer,0.200435800012,False,True,stimulusDIAN07_2IFC_2019_Jun_13_1802_95,stimulusDIAN07_2IFC_2019_Jun_13_1802_96,False,2019_Jun_13_1802,2IFC,2,DIAN07,
2IFC,48,0,48,0,16.9,-1,correct answer,0.0998623999767,True,False,stimulusDIAN07_2IFC_2019_Jun_13_1802_97,stimulusDIAN07_2IFC_2019_Jun_13_1802_98,False,2019_Jun_13_1802,2IFC,2,DIAN07,
2IFC,49,0,49,0,16.9,-1,correct answer,0.300756700104,False,True,stimulusDIAN07_2IFC_2019_Jun_13_1802_99,stimulusDIAN07_2IFC_2019_Jun_13_1802_100,False,2019_Jun_13_1802,2IFC,2,DIAN07,
2IFC,50,0,50,0,16.9,-1,correct answer,0.267505800119,True,False,stimulusDIAN07_2IFC_2019_Jun_13_1802_101,stimulusDIAN07_2IFC_2019_Jun_13_1802_102,False,2019_Jun_13_1802,2IFC,2,DIAN07,
2IFC,51,0,51,0,16.9,-1,correct answer,0.167025299976,True,False,stimulusDIAN07_2IFC_2019_Jun_13_1802_103,stimulusDIAN07_2IFC_2019_Jun_13_1802_104,False,2019_Jun_13_1802,2IFC,2,DIAN07,
2IFC,52,0,52,0,16.9,-1,correct answer,0.267261500005,False,True,stimulusDIAN07_2IFC_2019_Jun_13_1802_105,stimulusDIAN07_2IFC_2019_Jun_13_1802_106,False,2019_Jun_13_1802,2IFC,2,DIAN07,
2IFC,53,0,53,0,16.9,-1,correct answer,0.23388439999,True,False,stimulusDIAN07_2IFC_2019_Jun_13_1802_107,stimulusDIAN07_2IFC_2019_Jun_13_1802_108,False,2019_Jun_13_1802,2IFC,2,DIAN07,
2IFC,54,0,54,0,16.9,-1,correct answer,0.26677899994,False,True,stimulusDIAN07_2IFC_2019_Jun_13_1802_109,stimulusDIAN07_2IFC_2019_Jun_13_1802_110,False,2019_Jun_13_1802,2IFC,2,DIAN07,
2IFC,55,0,55,0,16.9,-1,correct answer,0.267265900038,False,True,stimulusDIAN07_2IFC_2019_Jun_13_1802_111,stimulusDIAN07_2IFC_2019_Jun_13_1802_112,False,2019_Jun_13_1802,2IFC,2,DIAN07,
2IFC,56,0,56,0,16.9,-1,correct answer,0.166707499884,True,False,stimulusDIAN07_2IFC_2019_Jun_13_1802_113,stimulusDIAN07_2IFC_2019_Jun_13_1802_114,False,2019_Jun_13_1802,2IFC,2,DIAN07,
2IFC,57,0,57,0,16.9,-1,correct answer,0.267206399934,True,False,stimulusDIAN07_2IFC_2019_Jun_13_1802_115,stimulusDIAN07_2IFC_2019_Jun_13_1802_116,False,2019_Jun_13_1802,2IFC,2,DIAN07,
2IFC,58,0,58,0,16.9,-1,correct answer,0.26613870007,True,False,stimulusDIAN07_2IFC_2019_Jun_13_1802_117,stimulusDIAN07_2IFC_2019_Jun_13_1802_118,False,2019_Jun_13_1802,2IFC,2,DIAN07,
2IFC,59,0,59,0,16.9,-1,correct answer,0.163721599849,True,False,stimulusDIAN07_2IFC_2019_Jun_13_1802_119,stimulusDIAN07_2IFC_2019_Jun_13_1802_120,False,2019_Jun_13_1802,2IFC,2,DIAN07,
2IFC,60,0,60,0,16.9,-1,correct answer,0.133659699932,False,True,stimulusDIAN07_2IFC_2019_Jun_13_1802_121,stimulusDIAN07_2IFC_2019_Jun_13_1802_122,False,2019_Jun_13_1802,2IFC,2,DIAN07,
2IFC,61,0,61,0,16.9,-1,correct answer,0.131683199899,True,False,stimulusDIAN07_2IFC_2019_Jun_13_1802_123,stimulusDIAN07_2IFC_2019_Jun_13_1802_124,False,2019_Jun_13_1802,2IFC,2,DIAN07,
2IFC,62,0,62,0,16.9,-1,correct answer,0.200455300044,True,False,stimulusDIAN07_2IFC_2019_Jun_13_1802_125,stimulusDIAN07_2IFC_2019_Jun_13_1802_126,False,2019_Jun_13_1802,2IFC,2,DIAN07,
2IFC,63,0,63,0,16.9,-1,correct answer,0.267050399911,False,True,stimulusDIAN07_2IFC_2019_Jun_13_1802_127,stimulusDIAN07_2IFC_2019_Jun_13_1802_128,False,2019_Jun_13_1802,2IFC,2,DIAN07,
2IFC,64,0,64,0,16.9,-1,correct answer,0.134169200202,False,True,stimulusDIAN07_2IFC_2019_Jun_13_1802_129,stimulusDIAN07_2IFC_2019_Jun_13_1802_130,False,2019_Jun_13_1802,2IFC,2,DIAN07,
2IFC,65,0,65,0,16.9,-1,correct answer,0.26769239991,False,True,stimulusDIAN07_2IFC_2019_Jun_13_1802_131,stimulusDIAN07_2IFC_2019_Jun_13_1802_132,False,2019_Jun_13_1802,2IFC,2,DIAN07,
2IFC,66,0,66,0,16.9,-1,correct answer,0.266721599968,True,False,stimulusDIAN07_2IFC_2019_Jun_13_1802_133,stimulusDIAN07_2IFC_2019_Jun_13_1802_134,False,2019_Jun_13_1802,2IFC,2,DIAN07,
2IFC,67,0,67,0,16.9,-1,correct answer,0.367205300136,False,True,stimulusDIAN07_2IFC_2019_Jun_13_1802_135,stimulusDIAN07_2IFC_2019_Jun_13_1802_136,False,2019_Jun_13_1802,2IFC,2,DIAN07,
2IFC,68,0,68,0,16.9,-1,correct answer,0.4667756001,False,True,stimulusDIAN07_2IFC_2019_Jun_13_1802_137,stimulusDIAN07_2IFC_2019_Jun_13_1802_138,False,2019_Jun_13_1802,2IFC,2,DIAN07,
2IFC,69,0,69,0,16.9,-1,correct answer,0.56670609978,False,True,stimulusDIAN07_2IFC_2019_Jun_13_1802_139,stimulusDIAN07_2IFC_2019_Jun_13_1802_140,False,2019_Jun_13_1802,2IFC,2,DIAN07,
2IFC,70,0,70,0,16.9,-1,correct answer,0.367665499914,False,True,stimulusDIAN07_2IFC_2019_Jun_13_1802_141,stimulusDIAN07_2IFC_2019_Jun_13_1802_142,False,2019_Jun_13_1802,2IFC,2,DIAN07,
2IFC,71,0,71,0,16.9,-1,correct answer,0.367877399782,False,True,stimulusDIAN07_2IFC_2019_Jun_13_1802_143,stimulusDIAN07_2IFC_2019_Jun_13_1802_144,False,2019_Jun_13_1802,2IFC,2,DIAN07,
2IFC,72,0,72,0,16.9,-1,correct answer,0.167666600086,True,False,stimulusDIAN07_2IFC_2019_Jun_13_1802_145,stimulusDIAN07_2IFC_2019_Jun_13_1802_146,False,2019_Jun_13_1802,2IFC,2,DIAN07,
2IFC,73,0,73,0,16.9,-1,correct answer,0.300637800014,True,False,stimulusDIAN07_2IFC_2019_Jun_13_1802_147,stimulusDIAN07_2IFC_2019_Jun_13_1802_148,False,2019_Jun_13_1802,2IFC,2,DIAN07,
2IFC,74,0,74,0,16.9,-1,correct answer,0.300961100031,True,False,stimulusDIAN07_2IFC_2019_Jun_13_1802_149,stimulusDIAN07_2IFC_2019_Jun_13_1802_150,False,2019_Jun_13_1802,2IFC,2,DIAN07,
2IFC,0,0,0,0,15.3,-1,correct answer,0.167114200071,True,False,stimulusDIAN07_2IFC_2019_Jun_13_1802_151,stimulusDIAN07_2IFC_2019_Jun_13_1802_152,False,2019_Jun_13_1802,2IFC,2,DIAN07,
2IFC,1,0,1,0,15.3,-1,correct answer,0.230765199987,False,True,stimulusDIAN07_2IFC_2019_Jun_13_1802_153,stimulusDIAN07_2IFC_2019_Jun_13_1802_154,False,2019_Jun_13_1802,2IFC,2,DIAN07,
2IFC,2,0,2,0,15.3,-1,correct answer,0.267166099977,True,False,stimulusDIAN07_2IFC_2019_Jun_13_1802_155,stimulusDIAN07_2IFC_2019_Jun_13_1802_156,False,2019_Jun_13_1802,2IFC,2,DIAN07,
2IFC,3,0,3,0,15.3,-1,correct answer,0.43412390002,False,True,stimulusDIAN07_2IFC_2019_Jun_13_1802_157,stimulusDIAN07_2IFC_2019_Jun_13_1802_158,False,2019_Jun_13_1802,2IFC,2,DIAN07,
2IFC,4,0,4,0,15.3,-1,correct answer,0.167450499954,False,True,stimulusDIAN07_2IFC_2019_Jun_13_1802_159,stimulusDIAN07_2IFC_2019_Jun_13_1802_160,False,2019_Jun_13_1802,2IFC,2,DIAN07,
2IFC,5,0,5,0,15.3,-1,correct answer,0.200612999965,True,False,stimulusDIAN07_2IFC_2019_Jun_13_1802_161,stimulusDIAN07_2IFC_2019_Jun_13_1802_162,False,2019_Jun_13_1802,2IFC,2,DIAN07,
2IFC,6,0,6,0,15.3,-1,correct answer,0.267143900041,False,True,stimulusDIAN07_2IFC_2019_Jun_13_1802_163,stimulusDIAN07_2IFC_2019_Jun_13_1802_164,False,2019_Jun_13_1802,2IFC,2,DIAN07,
2IFC,7,0,7,0,15.3,-1,correct answer,0.234085600125,False,True,stimulusDIAN07_2IFC_2019_Jun_13_1802_165,stimulusDIAN07_2IFC_2019_Jun_13_1802_166,False,2019_Jun_13_1802,2IFC,2,DIAN07,
2IFC,8,0,8,0,15.3,-1,wrong answer,0.167800800176,False,True,stimulusDIAN07_2IFC_2019_Jun_13_1802_167,stimulusDIAN07_2IFC_2019_Jun_13_1802_168,False,2019_Jun_13_1802,2IFC,2,DIAN07,
2IFC,9,0,9,0,15.3,-1,correct answer,0.401152400067,True,False,stimulusDIAN07_2IFC_2019_Jun_13_1802_169,stimulusDIAN07_2IFC_2019_Jun_13_1802_170,False,2019_Jun_13_1802,2IFC,2,DIAN07,
2IFC,10,0,10,0,15.3,-1,correct answer,0.200611299835,False,True,stimulusDIAN07_2IFC_2019_Jun_13_1802_171,stimulusDIAN07_2IFC_2019_Jun_13_1802_172,False,2019_Jun_13_1802,2IFC,2,DIAN07,
2IFC,11,0,11,0,15.3,-1,correct answer,0.500101399841,False,True,stimulusDIAN07_2IFC_2019_Jun_13_1802_173,stimulusDIAN07_2IFC_2019_Jun_13_1802_174,False,2019_Jun_13_1802,2IFC,2,DIAN07,
2IFC,12,0,12,0,15.3,-1,correct answer,0.133630299941,True,False,stimulusDIAN07_2IFC_2019_Jun_13_1802_175,stimulusDIAN07_2IFC_2019_Jun_13_1802_176,False,2019_Jun_13_1802,2IFC,2,DIAN07,
2IFC,13,0,13,0,15.3,-1,correct answer,0.166759700049,True,False,stimulusDIAN07_2IFC_2019_Jun_13_1802_177,stimulusDIAN07_2IFC_2019_Jun_13_1802_178,False,2019_Jun_13_1802,2IFC,2,DIAN07,
2IFC,14,0,14,0,15.3,-1,correct answer,0.134146900149,False,True,stimulusDIAN07_2IFC_2019_Jun_13_1802_179,stimulusDIAN07_2IFC_2019_Jun_13_1802_180,False,2019_Jun_13_1802,2IFC,2,DIAN07,
2IFC,15,0,15,0,15.3,-1,correct answer,0.133846299956,True,False,stimulusDIAN07_2IFC_2019_Jun_13_1802_181,stimulusDIAN07_2IFC_2019_Jun_13_1802_182,False,2019_Jun_13_1802,2IFC,2,DIAN07,
2IFC,16,0,16,0,15.3,-1,correct answer,0.233655699994,True,False,stimulusDIAN07_2IFC_2019_Jun_13_1802_183,stimulusDIAN07_2IFC_2019_Jun_13_1802_184,False,2019_Jun_13_1802,2IFC,2,DIAN07,
2IFC,17,0,17,0,15.3,-1,correct answer,0.133304199902,False,True,stimulusDIAN07_2IFC_2019_Jun_13_1802_185,stimulusDIAN07_2IFC_2019_Jun_13_1802_186,False,2019_Jun_13_1802,2IFC,2,DIAN07,
2IFC,18,0,18,0,15.3,-1,correct answer,0.266337299952,False,True,stimulusDIAN07_2IFC_2019_Jun_13_1802_187,stimulusDIAN07_2IFC_2019_Jun_13_1802_188,False,2019_Jun_13_1802,2IFC,2,DIAN07,
2IFC,19,0,19,0,15.3,-1,correct answer,0.300397000043,False,True,stimulusDIAN07_2IFC_2019_Jun_13_1802_189,stimulusDIAN07_2IFC_2019_Jun_13_1802_190,False,2019_Jun_13_1802,2IFC,2,DIAN07,
2IFC,20,0,20,0,15.3,-1,correct answer,0.166864400031,True,False,stimulusDIAN07_2IFC_2019_Jun_13_1802_191,stimulusDIAN07_2IFC_2019_Jun_13_1802_192,False,2019_Jun_13_1802,2IFC,2,DIAN07,
2IFC,21,0,21,0,15.3,-1,correct answer,0.234064099845,True,False,stimulusDIAN07_2IFC_2019_Jun_13_1802_193,stimulusDIAN07_2IFC_2019_Jun_13_1802_194,False,2019_Jun_13_1802,2IFC,2,DIAN07,
2IFC,22,0,22,0,15.3,-1,correct answer,0.233904600143,True,False,stimulusDIAN07_2IFC_2019_Jun_13_1802_195,stimulusDIAN07_2IFC_2019_Jun_13_1802_196,False,2019_Jun_13_1802,2IFC,2,DIAN07,
2IFC,23,0,23,0,15.3,-1,correct answer,0.269913000055,True,False,stimulusDIAN07_2IFC_2019_Jun_13_1802_197,stimulusDIAN07_2IFC_2019_Jun_13_1802_198,False,2019_Jun_13_1802,2IFC,2,DIAN07,
2IFC,24,0,24,0,15.3,-1,correct answer,0.100198500091,False,True,stimulusDIAN07_2IFC_2019_Jun_13_1802_199,stimulusDIAN07_2IFC_2019_Jun_13_1802_200,False,2019_Jun_13_1802,2IFC,2,DIAN07,
2IFC,25,0,25,0,15.3,-1,correct answer,0.133867700119,True,False,stimulusDIAN07_2IFC_2019_Jun_13_1802_201,stimulusDIAN07_2IFC_2019_Jun_13_1802_202,False,2019_Jun_13_1802,2IFC,2,DIAN07,
2IFC,26,0,26,0,15.3,-1,no answer,-1,False,True,stimulusDIAN07_2IFC_2019_Jun_13_1802_203,stimulusDIAN07_2IFC_2019_Jun_13_1802_204,False,2019_Jun_13_1802,2IFC,2,DIAN07,
2IFC,27,0,27,0,15.3,-1,correct answer,0.068530799821,True,False,stimulusDIAN07_2IFC_2019_Jun_13_1802_205,stimulusDIAN07_2IFC_2019_Jun_13_1802_206,False,2019_Jun_13_1802,2IFC,2,DIAN07,
2IFC,28,0,28,0,15.3,-1,wrong answer,0.634160999907,False,True,stimulusDIAN07_2IFC_2019_Jun_13_1802_207,stimulusDIAN07_2IFC_2019_Jun_13_1802_208,False,2019_Jun_13_1802,2IFC,2,DIAN07,
2IFC,29,0,29,0,15.3,-1,correct answer,0.534083500039,True,False,stimulusDIAN07_2IFC_2019_Jun_13_1802_209,stimulusDIAN07_2IFC_2019_Jun_13_1802_210,False,2019_Jun_13_1802,2IFC,2,DIAN07,
2IFC,30,0,30,0,15.3,-1,correct answer,0.26516900002,False,True,stimulusDIAN07_2IFC_2019_Jun_13_1802_211,stimulusDIAN07_2IFC_2019_Jun_13_1802_212,False,2019_Jun_13_1802,2IFC,2,DIAN07,
2IFC,31,0,31,0,15.3,-1,correct answer,0.233744100202,True,False,stimulusDIAN07_2IFC_2019_Jun_13_1802_213,stimulusDIAN07_2IFC_2019_Jun_13_1802_214,False,2019_Jun_13_1802,2IFC,2,DIAN07,
2IFC,32,0,32,0,15.3,-1,correct answer,0.100460499991,False,True,stimulusDIAN07_2IFC_2019_Jun_13_1802_215,stimulusDIAN07_2IFC_2019_Jun_13_1802_216,False,2019_Jun_13_1802,2IFC,2,DIAN07,
2IFC,33,0,33,0,15.3,-1,correct answer,0.633676399942,True,False,stimulusDIAN07_2IFC_2019_Jun_13_1802_217,stimulusDIAN07_2IFC_2019_Jun_13_1802_218,False,2019_Jun_13_1802,2IFC,2,DIAN07,
2IFC,34,0,34,0,15.3,-1,correct answer,0.367120299954,False,True,stimulusDIAN07_2IFC_2019_Jun_13_1802_219,stimulusDIAN07_2IFC_2019_Jun_13_1802_220,False,2019_Jun_13_1802,2IFC,2,DIAN07,
2IFC,35,0,35,0,15.3,-1,correct answer,0.233823599992,False,True,stimulusDIAN07_2IFC_2019_Jun_13_1802_221,stimulusDIAN07_2IFC_2019_Jun_13_1802_222,False,2019_Jun_13_1802,2IFC,2,DIAN07,
2IFC,36,0,36,0,15.3,-1,correct answer,0.467346499907,False,True,stimulusDIAN07_2IFC_2019_Jun_13_1802_223,stimulusDIAN07_2IFC_2019_Jun_13_1802_224,False,2019_Jun_13_1802,2IFC,2,DIAN07,
2IFC,37,0,37,0,15.3,-1,correct answer,0.169904199895,True,False,stimulusDIAN07_2IFC_2019_Jun_13_1802_225,stimulusDIAN07_2IFC_2019_Jun_13_1802_226,False,2019_Jun_13_1802,2IFC,2,DIAN07,
2IFC,38,0,38,0,15.3,-1,correct answer,0.43399489997,True,False,stimulusDIAN07_2IFC_2019_Jun_13_1802_227,stimulusDIAN07_2IFC_2019_Jun_13_1802_228,False,2019_Jun_13_1802,2IFC,2,DIAN07,
2IFC,39,0,39,0,15.3,-1,correct answer,0.268647500081,True,False,stimulusDIAN07_2IFC_2019_Jun_13_1802_229,stimulusDIAN07_2IFC_2019_Jun_13_1802_230,False,2019_Jun_13_1802,2IFC,2,DIAN07,
2IFC,40,0,40,0,15.3,-1,correct answer,0.200738399988,True,False,stimulusDIAN07_2IFC_2019_Jun_13_1802_231,stimulusDIAN07_2IFC_2019_Jun_13_1802_232,False,2019_Jun_13_1802,2IFC,2,DIAN07,
2IFC,41,0,41,0,15.3,-1,correct answer,0.0321031999774,False,True,stimulusDIAN07_2IFC_2019_Jun_13_1802_233,stimulusDIAN07_2IFC_2019_Jun_13_1802_234,False,2019_Jun_13_1802,2IFC,2,DIAN07,
2IFC,42,0,42,0,15.3,-1,correct answer,0.499972499907,False,True,stimulusDIAN07_2IFC_2019_Jun_13_1802_235,stimulusDIAN07_2IFC_2019_Jun_13_1802_236,False,2019_Jun_13_1802,2IFC,2,DIAN07,
2IFC,43,0,43,0,15.3,-1,correct answer,0.266309899976,False,True,stimulusDIAN07_2IFC_2019_Jun_13_1802_237,stimulusDIAN07_2IFC_2019_Jun_13_1802_238,False,2019_Jun_13_1802,2IFC,2,DIAN07,
2IFC,44,0,44,0,15.3,-1,correct answer,0.30063650012,False,True,stimulusDIAN07_2IFC_2019_Jun_13_1802_239,stimulusDIAN07_2IFC_2019_Jun_13_1802_240,False,2019_Jun_13_1802,2IFC,2,DIAN07,
2IFC,45,0,45,0,15.3,-1,correct answer,0.400766599923,False,True,stimulusDIAN07_2IFC_2019_Jun_13_1802_241,stimulusDIAN07_2IFC_2019_Jun_13_1802_242,False,2019_Jun_13_1802,2IFC,2,DIAN07,
2IFC,46,0,46,0,15.3,-1,correct answer,0.434102100087,False,True,stimulusDIAN07_2IFC_2019_Jun_13_1802_243,stimulusDIAN07_2IFC_2019_Jun_13_1802_244,False,2019_Jun_13_1802,2IFC,2,DIAN07,
2IFC,47,0,47,0,15.3,-1,correct answer,0.534157299902,False,True,stimulusDIAN07_2IFC_2019_Jun_13_1802_245,stimulusDIAN07_2IFC_2019_Jun_13_1802_246,False,2019_Jun_13_1802,2IFC,2,DIAN07,
2IFC,48,0,48,0,15.3,-1,correct answer,0.366716600023,False,True,stimulusDIAN07_2IFC_2019_Jun_13_1802_247,stimulusDIAN07_2IFC_2019_Jun_13_1802_248,False,2019_Jun_13_1802,2IFC,2,DIAN07,
2IFC,49,0,49,0,15.3,-1,correct answer,0.367361700162,False,True,stimulusDIAN07_2IFC_2019_Jun_13_1802_249,stimulusDIAN07_2IFC_2019_Jun_13_1802_250,False,2019_Jun_13_1802,2IFC,2,DIAN07,
2IFC,50,0,50,0,15.3,-1,correct answer,0.267738099908,True,False,stimulusDIAN07_2IFC_2019_Jun_13_1802_251,stimulusDIAN07_2IFC_2019_Jun_13_1802_252,False,2019_Jun_13_1802,2IFC,2,DIAN07,
2IFC,51,0,51,0,15.3,-1,correct answer,0.199992700014,True,False,stimulusDIAN07_2IFC_2019_Jun_13_1802_253,stimulusDIAN07_2IFC_2019_Jun_13_1802_254,False,2019_Jun_13_1802,2IFC,2,DIAN07,
2IFC,52,0,52,0,15.3,-1,correct answer,0.366384200053,False,True,stimulusDIAN07_2IFC_2019_Jun_13_1802_255,stimulusDIAN07_2IFC_2019_Jun_13_1802_256,False,2019_Jun_13_1802,2IFC,2,DIAN07,
2IFC,53,0,53,0,15.3,-1,correct answer,0.166902099969,True,False,stimulusDIAN07_2IFC_2019_Jun_13_1802_257,stimulusDIAN07_2IFC_2019_Jun_13_1802_258,False,2019_Jun_13_1802,2IFC,2,DIAN07,
2IFC,54,0,54,0,15.3,-1,correct answer,0.0667765999679,True,False,stimulusDIAN07_2IFC_2019_Jun_13_1802_259,stimulusDIAN07_2IFC_2019_Jun_13_1802_260,False,2019_Jun_13_1802,2IFC,2,DIAN07,
2IFC,55,0,55,0,15.3,-1,correct answer,0.467425700044,True,False,stimulusDIAN07_2IFC_2019_Jun_13_1802_261,stimulusDIAN07_2IFC_2019_Jun_13_1802_262,False,2019_Jun_13_1802,2IFC,2,DIAN07,
2IFC,56,0,56,0,15.3,-1,correct answer,0.333868799964,False,True,stimulusDIAN07_2IFC_2019_Jun_13_1802_263,stimulusDIAN07_2IFC_2019_Jun_13_1802_264,False,2019_Jun_13_1802,2IFC,2,DIAN07,
2IFC,57,0,57,0,15.3,-1,correct answer,0.200576700037,True,False,stimulusDIAN07_2IFC_2019_Jun_13_1802_265,stimulusDIAN07_2IFC_2019_Jun_13_1802_266,False,2019_Jun_13_1802,2IFC,2,DIAN07,
2IFC,58,0,58,0,15.3,-1,correct answer,0.233975100098,False,True,stimulusDIAN07_2IFC_2019_Jun_13_1802_267,stimulusDIAN07_2IFC_2019_Jun_13_1802_268,False,2019_Jun_13_1802,2IFC,2,DIAN07,
2IFC,59,0,59,0,15.3,-1,correct answer,0.334421700099,True,False,stimulusDIAN07_2IFC_2019_Jun_13_1802_269,stimulusDIAN07_2IFC_2019_Jun_13_1802_270,False,2019_Jun_13_1802,2IFC,2,DIAN07,
2IFC,60,0,60,0,15.3,-1,correct answer,0.300759000005,False,True,stimulusDIAN07_2IFC_2019_Jun_13_1802_271,stimulusDIAN07_2IFC_2019_Jun_13_1802_272,False,2019_Jun_13_1802,2IFC,2,DIAN07,
2IFC,61,0,61,0,15.3,-1,correct answer,0.367560599931,False,True,stimulusDIAN07_2IFC_2019_Jun_13_1802_273,stimulusDIAN07_2IFC_2019_Jun_13_1802_274,False,2019_Jun_13_1802,2IFC,2,DIAN07,
2IFC,62,0,62,0,15.3,-1,correct answer,0.367184999865,False,True,stimulusDIAN07_2IFC_2019_Jun_13_1802_275,stimulusDIAN07_2IFC_2019_Jun_13_1802_276,False,2019_Jun_13_1802,2IFC,2,DIAN07,
2IFC,63,0,63,0,15.3,-1,correct answer,0.200382899959,True,False,stimulusDIAN07_2IFC_2019_Jun_13_1802_277,stimulusDIAN07_2IFC_2019_Jun_13_1802_278,False,2019_Jun_13_1802,2IFC,2,DIAN07,
2IFC,64,0,64,0,15.3,-1,correct answer,0.30072469986,True,False,stimulusDIAN07_2IFC_2019_Jun_13_1802_279,stimulusDIAN07_2IFC_2019_Jun_13_1802_280,False,2019_Jun_13_1802,2IFC,2,DIAN07,
2IFC,65,0,65,0,15.3,-1,correct answer,0.367355099879,True,False,stimulusDIAN07_2IFC_2019_Jun_13_1802_281,stimulusDIAN07_2IFC_2019_Jun_13_1802_282,False,2019_Jun_13_1802,2IFC,2,DIAN07,
2IFC,66,0,66,0,15.3,-1,correct answer,0.263284600107,False,True,stimulusDIAN07_2IFC_2019_Jun_13_1802_283,stimulusDIAN07_2IFC_2019_Jun_13_1802_284,False,2019_Jun_13_1802,2IFC,2,DIAN07,
2IFC,67,0,67,0,15.3,-1,correct answer,0.400742099853,False,True,stimulusDIAN07_2IFC_2019_Jun_13_1802_285,stimulusDIAN07_2IFC_2019_Jun_13_1802_286,False,2019_Jun_13_1802,2IFC,2,DIAN07,
2IFC,68,0,68,0,15.3,-1,correct answer,0.367464300012,True,False,stimulusDIAN07_2IFC_2019_Jun_13_1802_287,stimulusDIAN07_2IFC_2019_Jun_13_1802_288,False,2019_Jun_13_1802,2IFC,2,DIAN07,
2IFC,69,0,69,0,15.3,-1,correct answer,0.233039799845,True,False,stimulusDIAN07_2IFC_2019_Jun_13_1802_289,stimulusDIAN07_2IFC_2019_Jun_13_1802_290,False,2019_Jun_13_1802,2IFC,2,DIAN07,
2IFC,70,0,70,0,15.3,-1,correct answer,0.233852199977,True,False,stimulusDIAN07_2IFC_2019_Jun_13_1802_291,stimulusDIAN07_2IFC_2019_Jun_13_1802_292,False,2019_Jun_13_1802,2IFC,2,DIAN07,
2IFC,71,0,71,0,15.3,-1,correct answer,0.33403610019,False,True,stimulusDIAN07_2IFC_2019_Jun_13_1802_293,stimulusDIAN07_2IFC_2019_Jun_13_1802_294,False,2019_Jun_13_1802,2IFC,2,DIAN07,
2IFC,72,0,72,0,15.3,-1,correct answer,0.402052400168,False,True,stimulusDIAN07_2IFC_2019_Jun_13_1802_295,stimulusDIAN07_2IFC_2019_Jun_13_1802_296,False,2019_Jun_13_1802,2IFC,2,DIAN07,
2IFC,73,0,73,0,15.3,-1,correct answer,0.366199200042,False,True,stimulusDIAN07_2IFC_2019_Jun_13_1802_297,stimulusDIAN07_2IFC_2019_Jun_13_1802_298,False,2019_Jun_13_1802,2IFC,2,DIAN07,
2IFC,74,0,74,0,15.3,-1,correct answer,0.400689900154,False,True,stimulusDIAN07_2IFC_2019_Jun_13_1802_299,stimulusDIAN07_2IFC_2019_Jun_13_1802_300,False,2019_Jun_13_1802,2IFC,2,DIAN07,
2IFC,0,0,0,0,11.2,-1,correct answer,0.534113899805,True,False,stimulusDIAN07_2IFC_2019_Jun_13_1802_301,stimulusDIAN07_2IFC_2019_Jun_13_1802_302,False,2019_Jun_13_1802,2IFC,2,DIAN07,
2IFC,1,0,1,0,11.2,-1,correct answer,0.533941299887,True,False,stimulusDIAN07_2IFC_2019_Jun_13_1802_303,stimulusDIAN07_2IFC_2019_Jun_13_1802_304,False,2019_Jun_13_1802,2IFC,2,DIAN07,
2IFC,2,0,2,0,11.2,-1,correct answer,0.435730299912,False,True,stimulusDIAN07_2IFC_2019_Jun_13_1802_305,stimulusDIAN07_2IFC_2019_Jun_13_1802_306,False,2019_Jun_13_1802,2IFC,2,DIAN07,
2IFC,3,0,3,0,11.2,-1,correct answer,0.366493300069,False,True,stimulusDIAN07_2IFC_2019_Jun_13_1802_307,stimulusDIAN07_2IFC_2019_Jun_13_1802_308,False,2019_Jun_13_1802,2IFC,2,DIAN07,
2IFC,4,0,4,0,11.2,-1,correct answer,0.300714800134,True,False,stimulusDIAN07_2IFC_2019_Jun_13_1802_309,stimulusDIAN07_2IFC_2019_Jun_13_1802_310,False,2019_Jun_13_1802,2IFC,2,DIAN07,
2IFC,5,0,5,0,11.2,-1,correct answer,0.500728100073,True,False,stimulusDIAN07_2IFC_2019_Jun_13_1802_311,stimulusDIAN07_2IFC_2019_Jun_13_1802_312,False,2019_Jun_13_1802,2IFC,2,DIAN07,
2IFC,6,0,6,0,11.2,-1,correct answer,0.467954699881,True,False,stimulusDIAN07_2IFC_2019_Jun_13_1802_313,stimulusDIAN07_2IFC_2019_Jun_13_1802_314,False,2019_Jun_13_1802,2IFC,2,DIAN07,
2IFC,7,0,7,0,11.2,-1,correct answer,0.332896000007,False,True,stimulusDIAN07_2IFC_2019_Jun_13_1802_315,stimulusDIAN07_2IFC_2019_Jun_13_1802_316,False,2019_Jun_13_1802,2IFC,2,DIAN07,
2IFC,8,0,8,0,11.2,-1,correct answer,0.566949600121,False,True,stimulusDIAN07_2IFC_2019_Jun_13_1802_317,stimulusDIAN07_2IFC_2019_Jun_13_1802_318,False,2019_Jun_13_1802,2IFC,2,DIAN07,
2IFC,9,0,9,0,11.2,-1,correct answer,0.367737099994,True,False,stimulusDIAN07_2IFC_2019_Jun_13_1802_319,stimulusDIAN07_2IFC_2019_Jun_13_1802_320,False,2019_Jun_13_1802,2IFC,2,DIAN07,
2IFC,10,0,10,0,11.2,-1,correct answer,0.367507499876,True,False,stimulusDIAN07_2IFC_2019_Jun_13_1802_321,stimulusDIAN07_2IFC_2019_Jun_13_1802_322,False,2019_Jun_13_1802,2IFC,2,DIAN07,
2IFC,11,0,11,0,11.2,-1,correct answer,0.466817600187,True,False,stimulusDIAN07_2IFC_2019_Jun_13_1802_323,stimulusDIAN07_2IFC_2019_Jun_13_1802_324,False,2019_Jun_13_1802,2IFC,2,DIAN07,
2IFC,12,0,12,0,11.2,-1,correct answer,0.334319300018,False,True,stimulusDIAN07_2IFC_2019_Jun_13_1802_325,stimulusDIAN07_2IFC_2019_Jun_13_1802_326,False,2019_Jun_13_1802,2IFC,2,DIAN07,
2IFC,13,0,13,0,11.2,-1,correct answer,0.333801300032,True,False,stimulusDIAN07_2IFC_2019_Jun_13_1802_327,stimulusDIAN07_2IFC_2019_Jun_13_1802_328,False,2019_Jun_13_1802,2IFC,2,DIAN07,
2IFC,14,0,14,0,11.2,-1,correct answer,0.333984399913,False,True,stimulusDIAN07_2IFC_2019_Jun_13_1802_329,stimulusDIAN07_2IFC_2019_Jun_13_1802_330,False,2019_Jun_13_1802,2IFC,2,DIAN07,
2IFC,15,0,15,0,11.2,-1,correct answer,0.300116299884,True,False,stimulusDIAN07_2IFC_2019_Jun_13_1802_331,stimulusDIAN07_2IFC_2019_Jun_13_1802_332,False,2019_Jun_13_1802,2IFC,2,DIAN07,
2IFC,16,0,16,0,11.2,-1,correct answer,0.301296700025,False,True,stimulusDIAN07_2IFC_2019_Jun_13_1802_333,stimulusDIAN07_2IFC_2019_Jun_13_1802_334,False,2019_Jun_13_1802,2IFC,2,DIAN07,
2IFC,17,0,17,0,11.2,-1,correct answer,0.203047099989,True,False,stimulusDIAN07_2IFC_2019_Jun_13_1802_335,stimulusDIAN07_2IFC_2019_Jun_13_1802_336,False,2019_Jun_13_1802,2IFC,2,DIAN07,
2IFC,18,0,18,0,11.2,-1,correct answer,0.334031599807,False,True,stimulusDIAN07_2IFC_2019_Jun_13_1802_337,stimulusDIAN07_2IFC_2019_Jun_13_1802_338,False,2019_Jun_13_1802,2IFC,2,DIAN07,
2IFC,19,0,19,0,11.2,-1,correct answer,0.200701100053,True,False,stimulusDIAN07_2IFC_2019_Jun_13_1802_339,stimulusDIAN07_2IFC_2019_Jun_13_1802_340,False,2019_Jun_13_1802,2IFC,2,DIAN07,
2IFC,20,0,20,0,11.2,-1,correct answer,0.3005944998,False,True,stimulusDIAN07_2IFC_2019_Jun_13_1802_341,stimulusDIAN07_2IFC_2019_Jun_13_1802_342,False,2019_Jun_13_1802,2IFC,2,DIAN07,
2IFC,21,0,21,0,11.2,-1,correct answer,0.236354400171,False,True,stimulusDIAN07_2IFC_2019_Jun_13_1802_343,stimulusDIAN07_2IFC_2019_Jun_13_1802_344,False,2019_Jun_13_1802,2IFC,2,DIAN07,
2IFC,22,0,22,0,11.2,-1,correct answer,0.467096999986,False,True,stimulusDIAN07_2IFC_2019_Jun_13_1802_345,stimulusDIAN07_2IFC_2019_Jun_13_1802_346,False,2019_Jun_13_1802,2IFC,2,DIAN07,
2IFC,23,0,23,0,11.2,-1,correct answer,0.367968000006,True,False,stimulusDIAN07_2IFC_2019_Jun_13_1802_347,stimulusDIAN07_2IFC_2019_Jun_13_1802_348,False,2019_Jun_13_1802,2IFC,2,DIAN07,
2IFC,24,0,24,0,11.2,-1,correct answer,0.333691200009,True,False,stimulusDIAN07_2IFC_2019_Jun_13_1802_349,stimulusDIAN07_2IFC_2019_Jun_13_1802_350,False,2019_Jun_13_1802,2IFC,2,DIAN07,
2IFC,25,0,25,0,11.2,-1,correct answer,0.433948399965,True,False,stimulusDIAN07_2IFC_2019_Jun_13_1802_351,stimulusDIAN07_2IFC_2019_Jun_13_1802_352,False,2019_Jun_13_1802,2IFC,2,DIAN07,
2IFC,26,0,26,0,11.2,-1,correct answer,0.301383599872,False,True,stimulusDIAN07_2IFC_2019_Jun_13_1802_353,stimulusDIAN07_2IFC_2019_Jun_13_1802_354,False,2019_Jun_13_1802,2IFC,2,DIAN07,
2IFC,27,0,27,0,11.2,-1,correct answer,0.534014200093,True,False,stimulusDIAN07_2IFC_2019_Jun_13_1802_355,stimulusDIAN07_2IFC_2019_Jun_13_1802_356,False,2019_Jun_13_1802,2IFC,2,DIAN07,
2IFC,28,0,28,0,11.2,-1,correct answer,0.333898099838,False,True,stimulusDIAN07_2IFC_2019_Jun_13_1802_357,stimulusDIAN07_2IFC_2019_Jun_13_1802_358,False,2019_Jun_13_1802,2IFC,2,DIAN07,
2IFC,29,0,29,0,11.2,-1,correct answer,0.534064600011,False,True,stimulusDIAN07_2IFC_2019_Jun_13_1802_359,stimulusDIAN07_2IFC_2019_Jun_13_1802_360,False,2019_Jun_13_1802,2IFC,2,DIAN07,
2IFC,30,0,30,0,11.2,-1,correct answer,0.50071279984,False,True,stimulusDIAN07_2IFC_2019_Jun_13_1802_361,stimulusDIAN07_2IFC_2019_Jun_13_1802_362,False,2019_Jun_13_1802,2IFC,2,DIAN07,
2IFC,31,0,31,0,11.2,-1,correct answer,0.434190399945,False,True,stimulusDIAN07_2IFC_2019_Jun_13_1802_363,stimulusDIAN07_2IFC_2019_Jun_13_1802_364,False,2019_Jun_13_1802,2IFC,2,DIAN07,
2IFC,32,0,32,0,11.2,-1,correct answer,0.467580500059,False,True,stimulusDIAN07_2IFC_2019_Jun_13_1802_365,stimulusDIAN07_2IFC_2019_Jun_13_1802_366,False,2019_Jun_13_1802,2IFC,2,DIAN07,
2IFC,33,0,33,0,11.2,-1,wrong answer,0.366642900044,True,False,stimulusDIAN07_2IFC_2019_Jun_13_1802_367,stimulusDIAN07_2IFC_2019_Jun_13_1802_368,False,2019_Jun_13_1802,2IFC,2,DIAN07,
2IFC,34,0,34,0,11.2,-1,correct answer,0.299920800142,True,False,stimulusDIAN07_2IFC_2019_Jun_13_1802_369,stimulusDIAN07_2IFC_2019_Jun_13_1802_370,False,2019_Jun_13_1802,2IFC,2,DIAN07,
2IFC,35,0,35,0,11.2,-1,correct answer,0.201760200085,False,True,stimulusDIAN07_2IFC_2019_Jun_13_1802_371,stimulusDIAN07_2IFC_2019_Jun_13_1802_372,False,2019_Jun_13_1802,2IFC,2,DIAN07,
2IFC,36,0,36,0,11.2,-1,correct answer,0.433551600203,False,True,stimulusDIAN07_2IFC_2019_Jun_13_1802_373,stimulusDIAN07_2IFC_2019_Jun_13_1802_374,False,2019_Jun_13_1802,2IFC,2,DIAN07,
2IFC,37,0,37,0,11.2,-1,wrong answer,0.202101300005,False,True,stimulusDIAN07_2IFC_2019_Jun_13_1802_375,stimulusDIAN07_2IFC_2019_Jun_13_1802_376,False,2019_Jun_13_1802,2IFC,2,DIAN07,
2IFC,38,0,38,0,11.2,-1,correct answer,0.300482999999,True,False,stimulusDIAN07_2IFC_2019_Jun_13_1802_377,stimulusDIAN07_2IFC_2019_Jun_13_1802_378,False,2019_Jun_13_1802,2IFC,2,DIAN07,
2IFC,39,0,39,0,11.2,-1,correct answer,0.267389999935,False,True,stimulusDIAN07_2IFC_2019_Jun_13_1802_379,stimulusDIAN07_2IFC_2019_Jun_13_1802_380,False,2019_Jun_13_1802,2IFC,2,DIAN07,
2IFC,40,0,40,0,11.2,-1,correct answer,0.134385700105,True,False,stimulusDIAN07_2IFC_2019_Jun_13_1802_381,stimulusDIAN07_2IFC_2019_Jun_13_1802_382,False,2019_Jun_13_1802,2IFC,2,DIAN07,
2IFC,41,0,41,0,11.2,-1,correct answer,0.300643800059,False,True,stimulusDIAN07_2IFC_2019_Jun_13_1802_383,stimulusDIAN07_2IFC_2019_Jun_13_1802_384,False,2019_Jun_13_1802,2IFC,2,DIAN07,
2IFC,42,0,42,0,11.2,-1,correct answer,0.166739500128,True,False,stimulusDIAN07_2IFC_2019_Jun_13_1802_385,stimulusDIAN07_2IFC_2019_Jun_13_1802_386,False,2019_Jun_13_1802,2IFC,2,DIAN07,
2IFC,43,0,43,0,11.2,-1,correct answer,0.267591799842,False,True,stimulusDIAN07_2IFC_2019_Jun_13_1802_387,stimulusDIAN07_2IFC_2019_Jun_13_1802_388,False,2019_Jun_13_1802,2IFC,2,DIAN07,
2IFC,44,0,44,0,11.2,-1,wrong answer,0.267418800155,False,True,stimulusDIAN07_2IFC_2019_Jun_13_1802_389,stimulusDIAN07_2IFC_2019_Jun_13_1802_390,False,2019_Jun_13_1802,2IFC,2,DIAN07,
2IFC,45,0,45,0,11.2,-1,correct answer,0.401093800087,False,True,stimulusDIAN07_2IFC_2019_Jun_13_1802_391,stimulusDIAN07_2IFC_2019_Jun_13_1802_392,False,2019_Jun_13_1802,2IFC,2,DIAN07,
2IFC,46,0,46,0,11.2,-1,correct answer,0.466085300082,False,True,stimulusDIAN07_2IFC_2019_Jun_13_1802_393,stimulusDIAN07_2IFC_2019_Jun_13_1802_394,False,2019_Jun_13_1802,2IFC,2,DIAN07,
2IFC,47,0,47,0,11.2,-1,correct answer,0.200590800028,True,False,stimulusDIAN07_2IFC_2019_Jun_13_1802_395,stimulusDIAN07_2IFC_2019_Jun_13_1802_396,False,2019_Jun_13_1802,2IFC,2,DIAN07,
2IFC,48,0,48,0,11.2,-1,correct answer,0.13383159996,False,True,stimulusDIAN07_2IFC_2019_Jun_13_1802_397,stimulusDIAN07_2IFC_2019_Jun_13_1802_398,False,2019_Jun_13_1802,2IFC,2,DIAN07,
2IFC,49,0,49,0,11.2,-1,correct answer,0.367242699955,False,True,stimulusDIAN07_2IFC_2019_Jun_13_1802_399,stimulusDIAN07_2IFC_2019_Jun_13_1802_400,False,2019_Jun_13_1802,2IFC,2,DIAN07,
2IFC,50,0,50,0,11.2,-1,correct answer,0.300518500153,True,False,stimulusDIAN07_2IFC_2019_Jun_13_1802_401,stimulusDIAN07_2IFC_2019_Jun_13_1802_402,False,2019_Jun_13_1802,2IFC,2,DIAN07,
2IFC,51,0,51,0,11.2,-1,correct answer,0.434005900053,False,True,stimulusDIAN07_2IFC_2019_Jun_13_1802_403,stimulusDIAN07_2IFC_2019_Jun_13_1802_404,False,2019_Jun_13_1802,2IFC,2,DIAN07,
2IFC,52,0,52,0,11.2,-1,correct answer,0.366174600087,False,True,stimulusDIAN07_2IFC_2019_Jun_13_1802_405,stimulusDIAN07_2IFC_2019_Jun_13_1802_406,False,2019_Jun_13_1802,2IFC,2,DIAN07,
2IFC,53,0,53,0,11.2,-1,correct answer,0.200475400081,True,False,stimulusDIAN07_2IFC_2019_Jun_13_1802_407,stimulusDIAN07_2IFC_2019_Jun_13_1802_408,False,2019_Jun_13_1802,2IFC,2,DIAN07,
2IFC,54,0,54,0,11.2,-1,correct answer,0.167015500134,True,False,stimulusDIAN07_2IFC_2019_Jun_13_1802_409,stimulusDIAN07_2IFC_2019_Jun_13_1802_410,False,2019_Jun_13_1802,2IFC,2,DIAN07,
2IFC,55,0,55,0,11.2,-1,correct answer,0.434135999996,False,True,stimulusDIAN07_2IFC_2019_Jun_13_1802_411,stimulusDIAN07_2IFC_2019_Jun_13_1802_412,False,2019_Jun_13_1802,2IFC,2,DIAN07,
2IFC,56,0,56,0,11.2,-1,correct answer,0.46722240001,False,True,stimulusDIAN07_2IFC_2019_Jun_13_1802_413,stimulusDIAN07_2IFC_2019_Jun_13_1802_414,False,2019_Jun_13_1802,2IFC,2,DIAN07,
2IFC,57,0,57,0,11.2,-1,correct answer,0.40066659986,False,True,stimulusDIAN07_2IFC_2019_Jun_13_1802_415,stimulusDIAN07_2IFC_2019_Jun_13_1802_416,False,2019_Jun_13_1802,2IFC,2,DIAN07,
2IFC,58,0,58,0,11.2,-1,correct answer,0.133763100021,True,False,stimulusDIAN07_2IFC_2019_Jun_13_1802_417,stimulusDIAN07_2IFC_2019_Jun_13_1802_418,False,2019_Jun_13_1802,2IFC,2,DIAN07,
2IFC,59,0,59,0,11.2,-1,correct answer,0.50041320012,False,True,stimulusDIAN07_2IFC_2019_Jun_13_1802_419,stimulusDIAN07_2IFC_2019_Jun_13_1802_420,False,2019_Jun_13_1802,2IFC,2,DIAN07,
2IFC,60,0,60,0,11.2,-1,correct answer,0.266883000033,True,False,stimulusDIAN07_2IFC_2019_Jun_13_1802_421,stimulusDIAN07_2IFC_2019_Jun_13_1802_422,False,2019_Jun_13_1802,2IFC,2,DIAN07,
2IFC,61,0,61,0,11.2,-1,correct answer,0.567309799837,True,False,stimulusDIAN07_2IFC_2019_Jun_13_1802_423,stimulusDIAN07_2IFC_2019_Jun_13_1802_424,False,2019_Jun_13_1802,2IFC,2,DIAN07,
2IFC,62,0,62,0,11.2,-1,correct answer,0.434340200154,False,True,stimulusDIAN07_2IFC_2019_Jun_13_1802_425,stimulusDIAN07_2IFC_2019_Jun_13_1802_426,False,2019_Jun_13_1802,2IFC,2,DIAN07,
2IFC,63,0,63,0,11.2,-1,correct answer,0.400458900025,False,True,stimulusDIAN07_2IFC_2019_Jun_13_1802_427,stimulusDIAN07_2IFC_2019_Jun_13_1802_428,False,2019_Jun_13_1802,2IFC,2,DIAN07,
2IFC,64,0,64,0,11.2,-1,correct answer,0.333997400012,False,True,stimulusDIAN07_2IFC_2019_Jun_13_1802_429,stimulusDIAN07_2IFC_2019_Jun_13_1802_430,False,2019_Jun_13_1802,2IFC,2,DIAN07,
2IFC,65,0,65,0,11.2,-1,correct answer,0.234459900064,True,False,stimulusDIAN07_2IFC_2019_Jun_13_1802_431,stimulusDIAN07_2IFC_2019_Jun_13_1802_432,False,2019_Jun_13_1802,2IFC,2,DIAN07,
2IFC,66,0,66,0,11.2,-1,correct answer,0.232403199887,True,False,stimulusDIAN07_2IFC_2019_Jun_13_1802_433,stimulusDIAN07_2IFC_2019_Jun_13_1802_434,False,2019_Jun_13_1802,2IFC,2,DIAN07,
2IFC,67,0,67,0,11.2,-1,correct answer,0.367222399916,True,False,stimulusDIAN07_2IFC_2019_Jun_13_1802_435,stimulusDIAN07_2IFC_2019_Jun_13_1802_436,False,2019_Jun_13_1802,2IFC,2,DIAN07,
2IFC,68,0,68,0,11.2,-1,correct answer,0.500818100059,True,False,stimulusDIAN07_2IFC_2019_Jun_13_1802_437,stimulusDIAN07_2IFC_2019_Jun_13_1802_438,False,2019_Jun_13_1802,2IFC,2,DIAN07,
2IFC,69,0,69,0,11.2,-1,correct answer,0.43416579999,True,False,stimulusDIAN07_2IFC_2019_Jun_13_1802_439,stimulusDIAN07_2IFC_2019_Jun_13_1802_440,False,2019_Jun_13_1802,2IFC,2,DIAN07,
2IFC,70,0,70,0,11.2,-1,correct answer,0.266422300134,True,False,stimulusDIAN07_2IFC_2019_Jun_13_1802_441,stimulusDIAN07_2IFC_2019_Jun_13_1802_442,False,2019_Jun_13_1802,2IFC,2,DIAN07,
2IFC,71,0,71,0,11.2,-1,correct answer,0.433871799847,False,True,stimulusDIAN07_2IFC_2019_Jun_13_1802_443,stimulusDIAN07_2IFC_2019_Jun_13_1802_444,False,2019_Jun_13_1802,2IFC,2,DIAN07,
2IFC,72,0,72,0,11.2,-1,correct answer,0.400163600221,True,False,stimulusDIAN07_2IFC_2019_Jun_13_1802_445,stimulusDIAN07_2IFC_2019_Jun_13_1802_446,False,2019_Jun_13_1802,2IFC,2,DIAN07,
2IFC,73,0,73,0,11.2,-1,wrong answer,0.233688799897,False,True,stimulusDIAN07_2IFC_2019_Jun_13_1802_447,stimulusDIAN07_2IFC_2019_Jun_13_1802_448,False,2019_Jun_13_1802,2IFC,2,DIAN07,
2IFC,74,0,74,0,11.2,-1,correct answer,0.400684300112,True,False,stimulusDIAN07_2IFC_2019_Jun_13_1802_449,stimulusDIAN07_2IFC_2019_Jun_13_1802_450,False,2019_Jun_13_1802,2IFC,2,DIAN07,
2IFC,0,0,0,0,5.8,-1,correct answer,0.467547700042,True,False,stimulusDIAN07_2IFC_2019_Jun_13_1802_451,stimulusDIAN07_2IFC_2019_Jun_13_1802_452,False,2019_Jun_13_1802,2IFC,2,DIAN07,
2IFC,1,0,1,0,5.8,-1,wrong answer,0.502070399933,False,True,stimulusDIAN07_2IFC_2019_Jun_13_1802_453,stimulusDIAN07_2IFC_2019_Jun_13_1802_454,False,2019_Jun_13_1802,2IFC,2,DIAN07,
2IFC,2,0,2,0,5.8,-1,wrong answer,0.46716469992,True,False,stimulusDIAN07_2IFC_2019_Jun_13_1802_455,stimulusDIAN07_2IFC_2019_Jun_13_1802_456,False,2019_Jun_13_1802,2IFC,2,DIAN07,
2IFC,3,0,3,0,5.8,-1,correct answer,0.36752300011,False,True,stimulusDIAN07_2IFC_2019_Jun_13_1802_457,stimulusDIAN07_2IFC_2019_Jun_13_1802_458,False,2019_Jun_13_1802,2IFC,2,DIAN07,
2IFC,4,0,4,0,5.8,-1,correct answer,0.402357500046,False,True,stimulusDIAN07_2IFC_2019_Jun_13_1802_459,stimulusDIAN07_2IFC_2019_Jun_13_1802_460,False,2019_Jun_13_1802,2IFC,2,DIAN07,
2IFC,5,0,5,0,5.8,-1,correct answer,0.470689499984,False,True,stimulusDIAN07_2IFC_2019_Jun_13_1802_461,stimulusDIAN07_2IFC_2019_Jun_13_1802_462,False,2019_Jun_13_1802,2IFC,2,DIAN07,
2IFC,6,0,6,0,5.8,-1,wrong answer,0.501850600122,True,False,stimulusDIAN07_2IFC_2019_Jun_13_1802_463,stimulusDIAN07_2IFC_2019_Jun_13_1802_464,False,2019_Jun_13_1802,2IFC,2,DIAN07,
2IFC,7,0,7,0,5.8,-1,correct answer,0.500854700105,False,True,stimulusDIAN07_2IFC_2019_Jun_13_1802_465,stimulusDIAN07_2IFC_2019_Jun_13_1802_466,False,2019_Jun_13_1802,2IFC,2,DIAN07,
2IFC,8,0,8,0,5.8,-1,wrong answer,0.333795200102,False,True,stimulusDIAN07_2IFC_2019_Jun_13_1802_467,stimulusDIAN07_2IFC_2019_Jun_13_1802_468,False,2019_Jun_13_1802,2IFC,2,DIAN07,
2IFC,9,0,9,0,5.8,-1,correct answer,0.43403559993,False,True,stimulusDIAN07_2IFC_2019_Jun_13_1802_469,stimulusDIAN07_2IFC_2019_Jun_13_1802_470,False,2019_Jun_13_1802,2IFC,2,DIAN07,
2IFC,10,0,10,0,5.8,-1,correct answer,0.46727699996,False,True,stimulusDIAN07_2IFC_2019_Jun_13_1802_471,stimulusDIAN07_2IFC_2019_Jun_13_1802_472,False,2019_Jun_13_1802,2IFC,2,DIAN07,
2IFC,11,0,11,0,5.8,-1,wrong answer,0.535289000021,True,False,stimulusDIAN07_2IFC_2019_Jun_13_1802_473,stimulusDIAN07_2IFC_2019_Jun_13_1802_474,False,2019_Jun_13_1802,2IFC,2,DIAN07,
2IFC,12,0,12,0,5.8,-1,correct answer,0.500627300004,False,True,stimulusDIAN07_2IFC_2019_Jun_13_1802_475,stimulusDIAN07_2IFC_2019_Jun_13_1802_476,False,2019_Jun_13_1802,2IFC,2,DIAN07,
2IFC,13,0,13,0,5.8,-1,correct answer,0.56742210011,True,False,stimulusDIAN07_2IFC_2019_Jun_13_1802_477,stimulusDIAN07_2IFC_2019_Jun_13_1802_478,False,2019_Jun_13_1802,2IFC,2,DIAN07,
2IFC,14,0,14,0,5.8,-1,correct answer,0.533885499928,True,False,stimulusDIAN07_2IFC_2019_Jun_13_1802_479,stimulusDIAN07_2IFC_2019_Jun_13_1802_480,False,2019_Jun_13_1802,2IFC,2,DIAN07,
2IFC,15,0,15,0,5.8,-1,wrong answer,0.533644899959,False,True,stimulusDIAN07_2IFC_2019_Jun_13_1802_481,stimulusDIAN07_2IFC_2019_Jun_13_1802_482,False,2019_Jun_13_1802,2IFC,2,DIAN07,
2IFC,16,0,16,0,5.8,-1,correct answer,0.534216400003,False,True,stimulusDIAN07_2IFC_2019_Jun_13_1802_483,stimulusDIAN07_2IFC_2019_Jun_13_1802_484,False,2019_Jun_13_1802,2IFC,2,DIAN07,
2IFC,17,0,17,0,5.8,-1,correct answer,0.567249000072,False,True,stimulusDIAN07_2IFC_2019_Jun_13_1802_485,stimulusDIAN07_2IFC_2019_Jun_13_1802_486,False,2019_Jun_13_1802,2IFC,2,DIAN07,
2IFC,18,0,18,0,5.8,-1,wrong answer,0.23369140015,False,True,stimulusDIAN07_2IFC_2019_Jun_13_1802_487,stimulusDIAN07_2IFC_2019_Jun_13_1802_488,False,2019_Jun_13_1802,2IFC,2,DIAN07,
2IFC,19,0,19,0,5.8,-1,correct answer,0.400693200063,False,True,stimulusDIAN07_2IFC_2019_Jun_13_1802_489,stimulusDIAN07_2IFC_2019_Jun_13_1802_490,False,2019_Jun_13_1802,2IFC,2,DIAN07,
2IFC,20,0,20,0,5.8,-1,correct answer,0.400701100007,False,True,stimulusDIAN07_2IFC_2019_Jun_13_1802_491,stimulusDIAN07_2IFC_2019_Jun_13_1802_492,False,2019_Jun_13_1802,2IFC,2,DIAN07,
2IFC,21,0,21,0,5.8,-1,correct answer,0.434223099845,True,False,stimulusDIAN07_2IFC_2019_Jun_13_1802_493,stimulusDIAN07_2IFC_2019_Jun_13_1802_494,False,2019_Jun_13_1802,2IFC,2,DIAN07,
2IFC,22,0,22,0,5.8,-1,correct answer,0.333062000107,False,True,stimulusDIAN07_2IFC_2019_Jun_13_1802_495,stimulusDIAN07_2IFC_2019_Jun_13_1802_496,False,2019_Jun_13_1802,2IFC,2,DIAN07,
2IFC,23,0,23,0,5.8,-1,correct answer,0.400548500009,True,False,stimulusDIAN07_2IFC_2019_Jun_13_1802_497,stimulusDIAN07_2IFC_2019_Jun_13_1802_498,False,2019_Jun_13_1802,2IFC,2,DIAN07,
2IFC,24,0,24,0,5.8,-1,correct answer,0.300567399943,True,False,stimulusDIAN07_2IFC_2019_Jun_13_1802_499,stimulusDIAN07_2IFC_2019_Jun_13_1802_500,False,2019_Jun_13_1802,2IFC,2,DIAN07,
2IFC,25,0,25,0,5.8,-1,wrong answer,0.400709299836,False,True,stimulusDIAN07_2IFC_2019_Jun_13_1802_501,stimulusDIAN07_2IFC_2019_Jun_13_1802_502,False,2019_Jun_13_1802,2IFC,2,DIAN07,
2IFC,26,0,26,0,5.8,-1,wrong answer,0.267752200132,True,False,stimulusDIAN07_2IFC_2019_Jun_13_1802_503,stimulusDIAN07_2IFC_2019_Jun_13_1802_504,False,2019_Jun_13_1802,2IFC,2,DIAN07,
2IFC,27,0,27,0,5.8,-1,correct answer,0.700910700019,True,False,stimulusDIAN07_2IFC_2019_Jun_13_1802_505,stimulusDIAN07_2IFC_2019_Jun_13_1802_506,False,2019_Jun_13_1802,2IFC,2,DIAN07,
2IFC,28,0,28,0,5.8,-1,wrong answer,0.434196199989,False,True,stimulusDIAN07_2IFC_2019_Jun_13_1802_507,stimulusDIAN07_2IFC_2019_Jun_13_1802_508,False,2019_Jun_13_1802,2IFC,2,DIAN07,
2IFC,29,0,29,0,5.8,-1,correct answer,0.567467299988,False,True,stimulusDIAN07_2IFC_2019_Jun_13_1802_509,stimulusDIAN07_2IFC_2019_Jun_13_1802_510,False,2019_Jun_13_1802,2IFC,2,DIAN07,
2IFC,30,0,30,0,5.8,-1,wrong answer,0.501278300071,False,True,stimulusDIAN07_2IFC_2019_Jun_13_1802_511,stimulusDIAN07_2IFC_2019_Jun_13_1802_512,False,2019_Jun_13_1802,2IFC,2,DIAN07,
2IFC,31,0,31,0,5.8,-1,correct answer,0.666569499997,True,False,stimulusDIAN07_2IFC_2019_Jun_13_1802_513,stimulusDIAN07_2IFC_2019_Jun_13_1802_514,False,2019_Jun_13_1802,2IFC,2,DIAN07,
2IFC,32,0,32,0,5.8,-1,wrong answer,0.467629500199,False,True,stimulusDIAN07_2IFC_2019_Jun_13_1802_515,stimulusDIAN07_2IFC_2019_Jun_13_1802_516,False,2019_Jun_13_1802,2IFC,2,DIAN07,
2IFC,33,0,33,0,5.8,-1,wrong answer,0.433984900126,True,False,stimulusDIAN07_2IFC_2019_Jun_13_1802_517,stimulusDIAN07_2IFC_2019_Jun_13_1802_518,False,2019_Jun_13_1802,2IFC,2,DIAN07,
2IFC,34,0,34,0,5.8,-1,correct answer,0.433570200112,False,True,stimulusDIAN07_2IFC_2019_Jun_13_1802_519,stimulusDIAN07_2IFC_2019_Jun_13_1802_520,False,2019_Jun_13_1802,2IFC,2,DIAN07,
2IFC,35,0,35,0,5.8,-1,correct answer,0.467528000008,False,True,stimulusDIAN07_2IFC_2019_Jun_13_1802_521,stimulusDIAN07_2IFC_2019_Jun_13_1802_522,False,2019_Jun_13_1802,2IFC,2,DIAN07,
2IFC,36,0,36,0,5.8,-1,correct answer,0.367381100077,False,True,stimulusDIAN07_2IFC_2019_Jun_13_1802_523,stimulusDIAN07_2IFC_2019_Jun_13_1802_524,False,2019_Jun_13_1802,2IFC,2,DIAN07,
2IFC,37,0,37,0,5.8,-1,wrong answer,0.401453499915,True,False,stimulusDIAN07_2IFC_2019_Jun_13_1802_525,stimulusDIAN07_2IFC_2019_Jun_13_1802_526,False,2019_Jun_13_1802,2IFC,2,DIAN07,
2IFC,38,0,38,0,5.8,-1,correct answer,0.468147199834,False,True,stimulusDIAN07_2IFC_2019_Jun_13_1802_527,stimulusDIAN07_2IFC_2019_Jun_13_1802_528,False,2019_Jun_13_1802,2IFC,2,DIAN07,
2IFC,39,0,39,0,5.8,-1,correct answer,0.26769690006,True,False,stimulusDIAN07_2IFC_2019_Jun_13_1802_529,stimulusDIAN07_2IFC_2019_Jun_13_1802_530,False,2019_Jun_13_1802,2IFC,2,DIAN07,
2IFC,40,0,40,0,5.8,-1,correct answer,0.3340743999,False,True,stimulusDIAN07_2IFC_2019_Jun_13_1802_531,stimulusDIAN07_2IFC_2019_Jun_13_1802_532,False,2019_Jun_13_1802,2IFC,2,DIAN07,
2IFC,41,0,41,0,5.8,-1,correct answer,0.534485900076,False,True,stimulusDIAN07_2IFC_2019_Jun_13_1802_533,stimulusDIAN07_2IFC_2019_Jun_13_1802_534,False,2019_Jun_13_1802,2IFC,2,DIAN07,
2IFC,42,0,42,0,5.8,-1,correct answer,0.166449199896,True,False,stimulusDIAN07_2IFC_2019_Jun_13_1802_535,stimulusDIAN07_2IFC_2019_Jun_13_1802_536,False,2019_Jun_13_1802,2IFC,2,DIAN07,
2IFC,43,0,43,0,5.8,-1,correct answer,0.467009699903,True,False,stimulusDIAN07_2IFC_2019_Jun_13_1802_537,stimulusDIAN07_2IFC_2019_Jun_13_1802_538,False,2019_Jun_13_1802,2IFC,2,DIAN07,
2IFC,44,0,44,0,5.8,-1,correct answer,0.300539700082,False,True,stimulusDIAN07_2IFC_2019_Jun_13_1802_539,stimulusDIAN07_2IFC_2019_Jun_13_1802_540,False,2019_Jun_13_1802,2IFC,2,DIAN07,
2IFC,45,0,45,0,5.8,-1,correct answer,0.300244699931,False,True,stimulusDIAN07_2IFC_2019_Jun_13_1802_541,stimulusDIAN07_2IFC_2019_Jun_13_1802_542,False,2019_Jun_13_1802,2IFC,2,DIAN07,
2IFC,46,0,46,0,5.8,-1,correct answer,0.266973699909,False,True,stimulusDIAN07_2IFC_2019_Jun_13_1802_543,stimulusDIAN07_2IFC_2019_Jun_13_1802_544,False,2019_Jun_13_1802,2IFC,2,DIAN07,
2IFC,47,0,47,0,5.8,-1,wrong answer,0.366808099905,True,False,stimulusDIAN07_2IFC_2019_Jun_13_1802_545,stimulusDIAN07_2IFC_2019_Jun_13_1802_546,False,2019_Jun_13_1802,2IFC,2,DIAN07,
2IFC,48,0,48,0,5.8,-1,correct answer,0.433908999898,True,False,stimulusDIAN07_2IFC_2019_Jun_13_1802_547,stimulusDIAN07_2IFC_2019_Jun_13_1802_548,False,2019_Jun_13_1802,2IFC,2,DIAN07,
2IFC,49,0,49,0,5.8,-1,correct answer,0.300567700062,False,True,stimulusDIAN07_2IFC_2019_Jun_13_1802_549,stimulusDIAN07_2IFC_2019_Jun_13_1802_550,False,2019_Jun_13_1802,2IFC,2,DIAN07,
2IFC,50,0,50,0,5.8,-1,correct answer,0.300648200093,False,True,stimulusDIAN07_2IFC_2019_Jun_13_1802_551,stimulusDIAN07_2IFC_2019_Jun_13_1802_552,False,2019_Jun_13_1802,2IFC,2,DIAN07,
2IFC,51,0,51,0,5.8,-1,correct answer,0.268207799876,False,True,stimulusDIAN07_2IFC_2019_Jun_13_1802_553,stimulusDIAN07_2IFC_2019_Jun_13_1802_554,False,2019_Jun_13_1802,2IFC,2,DIAN07,
2IFC,52,0,52,0,5.8,-1,wrong answer,0.366904200055,True,False,stimulusDIAN07_2IFC_2019_Jun_13_1802_555,stimulusDIAN07_2IFC_2019_Jun_13_1802_556,False,2019_Jun_13_1802,2IFC,2,DIAN07,
2IFC,53,0,53,0,5.8,-1,correct answer,0.600750199985,False,True,stimulusDIAN07_2IFC_2019_Jun_13_1802_557,stimulusDIAN07_2IFC_2019_Jun_13_1802_558,False,2019_Jun_13_1802,2IFC,2,DIAN07,
2IFC,54,0,54,0,5.8,-1,correct answer,0.333373000147,False,True,stimulusDIAN07_2IFC_2019_Jun_13_1802_559,stimulusDIAN07_2IFC_2019_Jun_13_1802_560,False,2019_Jun_13_1802,2IFC,2,DIAN07,
2IFC,55,0,55,0,5.8,-1,wrong answer,0.400220799958,True,False,stimulusDIAN07_2IFC_2019_Jun_13_1802_561,stimulusDIAN07_2IFC_2019_Jun_13_1802_562,False,2019_Jun_13_1802,2IFC,2,DIAN07,
2IFC,56,0,56,0,5.8,-1,correct answer,0.434034799924,False,True,stimulusDIAN07_2IFC_2019_Jun_13_1802_563,stimulusDIAN07_2IFC_2019_Jun_13_1802_564,False,2019_Jun_13_1802,2IFC,2,DIAN07,
2IFC,57,0,57,0,5.8,-1,correct answer,0.433957200032,True,False,stimulusDIAN07_2IFC_2019_Jun_13_1802_565,stimulusDIAN07_2IFC_2019_Jun_13_1802_566,False,2019_Jun_13_1802,2IFC,2,DIAN07,
2IFC,58,0,58,0,5.8,-1,wrong answer,0.500579300104,False,True,stimulusDIAN07_2IFC_2019_Jun_13_1802_567,stimulusDIAN07_2IFC_2019_Jun_13_1802_568,False,2019_Jun_13_1802,2IFC,2,DIAN07,
2IFC,59,0,59,0,5.8,-1,correct answer,0.265221699839,False,True,stimulusDIAN07_2IFC_2019_Jun_13_1802_569,stimulusDIAN07_2IFC_2019_Jun_13_1802_570,False,2019_Jun_13_1802,2IFC,2,DIAN07,
2IFC,60,0,60,0,5.8,-1,wrong answer,0.433727600146,True,False,stimulusDIAN07_2IFC_2019_Jun_13_1802_571,stimulusDIAN07_2IFC_2019_Jun_13_1802_572,False,2019_Jun_13_1802,2IFC,2,DIAN07,
2IFC,61,0,61,0,5.8,-1,correct answer,0.367200399982,True,False,stimulusDIAN07_2IFC_2019_Jun_13_1802_573,stimulusDIAN07_2IFC_2019_Jun_13_1802_574,False,2019_Jun_13_1802,2IFC,2,DIAN07,
2IFC,62,0,62,0,5.8,-1,correct answer,0.199994599912,False,True,stimulusDIAN07_2IFC_2019_Jun_13_1802_575,stimulusDIAN07_2IFC_2019_Jun_13_1802_576,False,2019_Jun_13_1802,2IFC,2,DIAN07,
2IFC,63,0,63,0,5.8,-1,wrong answer,0.534127700143,False,True,stimulusDIAN07_2IFC_2019_Jun_13_1802_577,stimulusDIAN07_2IFC_2019_Jun_13_1802_578,False,2019_Jun_13_1802,2IFC,2,DIAN07,
2IFC,64,0,64,0,5.8,-1,correct answer,0.300567300059,False,True,stimulusDIAN07_2IFC_2019_Jun_13_1802_579,stimulusDIAN07_2IFC_2019_Jun_13_1802_580,False,2019_Jun_13_1802,2IFC,2,DIAN07,
2IFC,65,0,65,0,5.8,-1,wrong answer,0.534170500003,True,False,stimulusDIAN07_2IFC_2019_Jun_13_1802_581,stimulusDIAN07_2IFC_2019_Jun_13_1802_582,False,2019_Jun_13_1802,2IFC,2,DIAN07,
2IFC,66,0,66,0,5.8,-1,correct answer,0.46747100004,False,True,stimulusDIAN07_2IFC_2019_Jun_13_1802_583,stimulusDIAN07_2IFC_2019_Jun_13_1802_584,False,2019_Jun_13_1802,2IFC,2,DIAN07,
2IFC,67,0,67,0,5.8,-1,correct answer,0.333687999984,False,True,stimulusDIAN07_2IFC_2019_Jun_13_1802_585,stimulusDIAN07_2IFC_2019_Jun_13_1802_586,False,2019_Jun_13_1802,2IFC,2,DIAN07,
2IFC,68,0,68,0,5.8,-1,correct answer,0.334010899998,False,True,stimulusDIAN07_2IFC_2019_Jun_13_1802_587,stimulusDIAN07_2IFC_2019_Jun_13_1802_588,False,2019_Jun_13_1802,2IFC,2,DIAN07,
2IFC,69,0,69,0,5.8,-1,correct answer,0.133592699887,False,True,stimulusDIAN07_2IFC_2019_Jun_13_1802_589,stimulusDIAN07_2IFC_2019_Jun_13_1802_590,False,2019_Jun_13_1802,2IFC,2,DIAN07,
2IFC,70,0,70,0,5.8,-1,correct answer,0.234003100079,False,True,stimulusDIAN07_2IFC_2019_Jun_13_1802_591,stimulusDIAN07_2IFC_2019_Jun_13_1802_592,False,2019_Jun_13_1802,2IFC,2,DIAN07,
2IFC,71,0,71,0,5.8,-1,correct answer,0.333918800112,False,True,stimulusDIAN07_2IFC_2019_Jun_13_1802_593,stimulusDIAN07_2IFC_2019_Jun_13_1802_594,False,2019_Jun_13_1802,2IFC,2,DIAN07,
2IFC,72,0,72,0,5.8,-1,correct answer,0.332900599809,False,True,stimulusDIAN07_2IFC_2019_Jun_13_1802_595,stimulusDIAN07_2IFC_2019_Jun_13_1802_596,False,2019_Jun_13_1802,2IFC,2,DIAN07,
2IFC,73,0,73,0,5.8,-1,wrong answer,0.467028099811,True,False,stimulusDIAN07_2IFC_2019_Jun_13_1802_597,stimulusDIAN07_2IFC_2019_Jun_13_1802_598,False,2019_Jun_13_1802,2IFC,2,DIAN07,
2IFC,74,0,74,0,5.8,-1,wrong answer,0.367723000003,True,False,stimulusDIAN07_2IFC_2019_Jun_13_1802_599,stimulusDIAN07_2IFC_2019_Jun_13_1802_600,False,2019_Jun_13_1802,2IFC,2,DIAN07,
2IFC,0,0,0,0,12.5,-1,correct answer,0.533991699805,False,True,stimulusDIAN07_2IFC_2019_Jun_13_1802_601,stimulusDIAN07_2IFC_2019_Jun_13_1802_602,False,2019_Jun_13_1802,2IFC,2,DIAN07,
2IFC,1,0,1,0,12.5,-1,wrong answer,0.466933799908,False,True,stimulusDIAN07_2IFC_2019_Jun_13_1802_603,stimulusDIAN07_2IFC_2019_Jun_13_1802_604,False,2019_Jun_13_1802,2IFC,2,DIAN07,
2IFC,2,0,2,0,12.5,-1,correct answer,0.434126999928,False,True,stimulusDIAN07_2IFC_2019_Jun_13_1802_605,stimulusDIAN07_2IFC_2019_Jun_13_1802_606,False,2019_Jun_13_1802,2IFC,2,DIAN07,
2IFC,3,0,3,0,12.5,-1,correct answer,0.40021490003,False,True,stimulusDIAN07_2IFC_2019_Jun_13_1802_607,stimulusDIAN07_2IFC_2019_Jun_13_1802_608,False,2019_Jun_13_1802,2IFC,2,DIAN07,
2IFC,4,0,4,0,12.5,-1,correct answer,0.333993999986,False,True,stimulusDIAN07_2IFC_2019_Jun_13_1802_609,stimulusDIAN07_2IFC_2019_Jun_13_1802_610,False,2019_Jun_13_1802,2IFC,2,DIAN07,
2IFC,5,0,5,0,12.5,-1,correct answer,0.300469500013,False,True,stimulusDIAN07_2IFC_2019_Jun_13_1802_611,stimulusDIAN07_2IFC_2019_Jun_13_1802_612,False,2019_Jun_13_1802,2IFC,2,DIAN07,
2IFC,6,0,6,0,12.5,-1,correct answer,0.467418899992,False,True,stimulusDIAN07_2IFC_2019_Jun_13_1802_613,stimulusDIAN07_2IFC_2019_Jun_13_1802_614,False,2019_Jun_13_1802,2IFC,2,DIAN07,
2IFC,7,0,7,0,12.5,-1,correct answer,0.333929199958,False,True,stimulusDIAN07_2IFC_2019_Jun_13_1802_615,stimulusDIAN07_2IFC_2019_Jun_13_1802_616,False,2019_Jun_13_1802,2IFC,2,DIAN07,
2IFC,8,0,8,0,12.5,-1,wrong answer,0.266992199933,False,True,stimulusDIAN07_2IFC_2019_Jun_13_1802_617,stimulusDIAN07_2IFC_2019_Jun_13_1802_618,False,2019_Jun_13_1802,2IFC,2,DIAN07,
2IFC,9,0,9,0,12.5,-1,correct answer,0.467378699919,False,True,stimulusDIAN07_2IFC_2019_Jun_13_1802_619,stimulusDIAN07_2IFC_2019_Jun_13_1802_620,False,2019_Jun_13_1802,2IFC,2,DIAN07,
2IFC,10,0,10,0,12.5,-1,correct answer,0.0346981000621,True,False,stimulusDIAN07_2IFC_2019_Jun_13_1802_621,stimulusDIAN07_2IFC_2019_Jun_13_1802_622,False,2019_Jun_13_1802,2IFC,2,DIAN07,
2IFC,11,0,11,0,12.5,-1,correct answer,0.370745100081,False,True,stimulusDIAN07_2IFC_2019_Jun_13_1802_623,stimulusDIAN07_2IFC_2019_Jun_13_1802_624,False,2019_Jun_13_1802,2IFC,2,DIAN07,
2IFC,12,0,12,0,12.5,-1,correct answer,0.0674368999898,True,False,stimulusDIAN07_2IFC_2019_Jun_13_1802_625,stimulusDIAN07_2IFC_2019_Jun_13_1802_626,False,2019_Jun_13_1802,2IFC,2,DIAN07,
2IFC,13,0,13,0,12.5,-1,correct answer,0.434950600145,False,True,stimulusDIAN07_2IFC_2019_Jun_13_1802_627,stimulusDIAN07_2IFC_2019_Jun_13_1802_628,False,2019_Jun_13_1802,2IFC,2,DIAN07,
2IFC,14,0,14,0,12.5,-1,correct answer,0.268433700083,True,False,stimulusDIAN07_2IFC_2019_Jun_13_1802_629,stimulusDIAN07_2IFC_2019_Jun_13_1802_630,False,2019_Jun_13_1802,2IFC,2,DIAN07,
2IFC,15,0,15,0,12.5,-1,correct answer,0.13451519981,False,True,stimulusDIAN07_2IFC_2019_Jun_13_1802_631,stimulusDIAN07_2IFC_2019_Jun_13_1802_632,False,2019_Jun_13_1802,2IFC,2,DIAN07,
2IFC,16,0,16,0,12.5,-1,correct answer,0.0668830000795,True,False,stimulusDIAN07_2IFC_2019_Jun_13_1802_633,stimulusDIAN07_2IFC_2019_Jun_13_1802_634,False,2019_Jun_13_1802,2IFC,2,DIAN07,
2IFC,17,0,17,0,12.5,-1,correct answer,0.36855480005,True,False,stimulusDIAN07_2IFC_2019_Jun_13_1802_635,stimulusDIAN07_2IFC_2019_Jun_13_1802_636,False,2019_Jun_13_1802,2IFC,2,DIAN07,
2IFC,18,0,18,0,12.5,-1,correct answer,0.466406400083,True,False,stimulusDIAN07_2IFC_2019_Jun_13_1802_637,stimulusDIAN07_2IFC_2019_Jun_13_1802_638,False,2019_Jun_13_1802,2IFC,2,DIAN07,
2IFC,19,0,19,0,12.5,-1,wrong answer,0.466713899979,False,True,stimulusDIAN07_2IFC_2019_Jun_13_1802_639,stimulusDIAN07_2IFC_2019_Jun_13_1802_640,False,2019_Jun_13_1802,2IFC,2,DIAN07,
2IFC,20,0,20,0,12.5,-1,correct answer,0.233232199913,False,True,stimulusDIAN07_2IFC_2019_Jun_13_1802_641,stimulusDIAN07_2IFC_2019_Jun_13_1802_642,False,2019_Jun_13_1802,2IFC,2,DIAN07,
2IFC,21,0,21,0,12.5,-1,correct answer,0.500555899926,True,False,stimulusDIAN07_2IFC_2019_Jun_13_1802_643,stimulusDIAN07_2IFC_2019_Jun_13_1802_644,False,2019_Jun_13_1802,2IFC,2,DIAN07,
2IFC,22,0,22,0,12.5,-1,correct answer,0.500767400023,False,True,stimulusDIAN07_2IFC_2019_Jun_13_1802_645,stimulusDIAN07_2IFC_2019_Jun_13_1802_646,False,2019_Jun_13_1802,2IFC,2,DIAN07,
2IFC,23,0,23,0,12.5,-1,correct answer,0.233754799934,False,True,stimulusDIAN07_2IFC_2019_Jun_13_1802_647,stimulusDIAN07_2IFC_2019_Jun_13_1802_648,False,2019_Jun_13_1802,2IFC,2,DIAN07,
2IFC,24,0,24,0,12.5,-1,correct answer,0.534176100045,True,False,stimulusDIAN07_2IFC_2019_Jun_13_1802_649,stimulusDIAN07_2IFC_2019_Jun_13_1802_650,False,2019_Jun_13_1802,2IFC,2,DIAN07,
2IFC,25,0,25,0,12.5,-1,correct answer,0.434493700042,True,False,stimulusDIAN07_2IFC_2019_Jun_13_1802_651,stimulusDIAN07_2IFC_2019_Jun_13_1802_652,False,2019_Jun_13_1802,2IFC,2,DIAN07,
2IFC,26,0,26,0,12.5,-1,correct answer,0.400541400071,True,False,stimulusDIAN07_2IFC_2019_Jun_13_1802_653,stimulusDIAN07_2IFC_2019_Jun_13_1802_654,False,2019_Jun_13_1802,2IFC,2,DIAN07,
2IFC,27,0,27,0,12.5,-1,correct answer,0.333970499923,False,True,stimulusDIAN07_2IFC_2019_Jun_13_1802_655,stimulusDIAN07_2IFC_2019_Jun_13_1802_656,False,2019_Jun_13_1802,2IFC,2,DIAN07,
2IFC,28,0,28,0,12.5,-1,wrong answer,0.401634400012,True,False,stimulusDIAN07_2IFC_2019_Jun_13_1802_657,stimulusDIAN07_2IFC_2019_Jun_13_1802_658,False,2019_Jun_13_1802,2IFC,2,DIAN07,
2IFC,29,0,29,0,12.5,-1,correct answer,0.201059499988,False,True,stimulusDIAN07_2IFC_2019_Jun_13_1802_659,stimulusDIAN07_2IFC_2019_Jun_13_1802_660,False,2019_Jun_13_1802,2IFC,2,DIAN07,
2IFC,30,0,30,0,12.5,-1,correct answer,0.267162400065,False,True,stimulusDIAN07_2IFC_2019_Jun_13_1802_661,stimulusDIAN07_2IFC_2019_Jun_13_1802_662,False,2019_Jun_13_1802,2IFC,2,DIAN07,
2IFC,31,0,31,0,12.5,-1,correct answer,0.434148999862,True,False,stimulusDIAN07_2IFC_2019_Jun_13_1802_663,stimulusDIAN07_2IFC_2019_Jun_13_1802_664,False,2019_Jun_13_1802,2IFC,2,DIAN07,
2IFC,32,0,32,0,12.5,-1,correct answer,0.267305199988,True,False,stimulusDIAN07_2IFC_2019_Jun_13_1802_665,stimulusDIAN07_2IFC_2019_Jun_13_1802_666,False,2019_Jun_13_1802,2IFC,2,DIAN07,
2IFC,33,0,33,0,12.5,-1,correct answer,0.400423200103,True,False,stimulusDIAN07_2IFC_2019_Jun_13_1802_667,stimulusDIAN07_2IFC_2019_Jun_13_1802_668,False,2019_Jun_13_1802,2IFC,2,DIAN07,
2IFC,34,0,34,0,12.5,-1,correct answer,0.133159599965,False,True,stimulusDIAN07_2IFC_2019_Jun_13_1802_669,stimulusDIAN07_2IFC_2019_Jun_13_1802_670,False,2019_Jun_13_1802,2IFC,2,DIAN07,
2IFC,35,0,35,0,12.5,-1,correct answer,0.233844599919,True,False,stimulusDIAN07_2IFC_2019_Jun_13_1802_671,stimulusDIAN07_2IFC_2019_Jun_13_1802_672,False,2019_Jun_13_1802,2IFC,2,DIAN07,
2IFC,36,0,36,0,12.5,-1,correct answer,0.267347699963,True,False,stimulusDIAN07_2IFC_2019_Jun_13_1802_673,stimulusDIAN07_2IFC_2019_Jun_13_1802_674,False,2019_Jun_13_1802,2IFC,2,DIAN07,
2IFC,37,0,37,0,12.5,-1,correct answer,0.333782800008,True,False,stimulusDIAN07_2IFC_2019_Jun_13_1802_675,stimulusDIAN07_2IFC_2019_Jun_13_1802_676,False,2019_Jun_13_1802,2IFC,2,DIAN07,
2IFC,38,0,38,0,12.5,-1,correct answer,0.434740999946,False,True,stimulusDIAN07_2IFC_2019_Jun_13_1802_677,stimulusDIAN07_2IFC_2019_Jun_13_1802_678,False,2019_Jun_13_1802,2IFC,2,DIAN07,
2IFC,39,0,39,0,12.5,-1,correct answer,0.267193799838,True,False,stimulusDIAN07_2IFC_2019_Jun_13_1802_679,stimulusDIAN07_2IFC_2019_Jun_13_1802_680,False,2019_Jun_13_1802,2IFC,2,DIAN07,
2IFC,40,0,40,0,12.5,-1,correct answer,0.333812199999,False,True,stimulusDIAN07_2IFC_2019_Jun_13_1802_681,stimulusDIAN07_2IFC_2019_Jun_13_1802_682,False,2019_Jun_13_1802,2IFC,2,DIAN07,
2IFC,41,0,41,0,12.5,-1,correct answer,0.400517400121,True,False,stimulusDIAN07_2IFC_2019_Jun_13_1802_683,stimulusDIAN07_2IFC_2019_Jun_13_1802_684,False,2019_Jun_13_1802,2IFC,2,DIAN07,
2IFC,42,0,42,0,12.5,-1,wrong answer,0.533903999953,False,True,stimulusDIAN07_2IFC_2019_Jun_13_1802_685,stimulusDIAN07_2IFC_2019_Jun_13_1802_686,False,2019_Jun_13_1802,2IFC,2,DIAN07,
2IFC,43,0,43,0,12.5,-1,wrong answer,0.600775000174,False,True,stimulusDIAN07_2IFC_2019_Jun_13_1802_687,stimulusDIAN07_2IFC_2019_Jun_13_1802_688,False,2019_Jun_13_1802,2IFC,2,DIAN07,
2IFC,44,0,44,0,12.5,-1,correct answer,0.366987799993,False,True,stimulusDIAN07_2IFC_2019_Jun_13_1802_689,stimulusDIAN07_2IFC_2019_Jun_13_1802_690,False,2019_Jun_13_1802,2IFC,2,DIAN07,
2IFC,45,0,45,0,12.5,-1,correct answer,0.300262399949,True,False,stimulusDIAN07_2IFC_2019_Jun_13_1802_691,stimulusDIAN07_2IFC_2019_Jun_13_1802_692,False,2019_Jun_13_1802,2IFC,2,DIAN07,
2IFC,46,0,46,0,12.5,-1,correct answer,0.333608000074,False,True,stimulusDIAN07_2IFC_2019_Jun_13_1802_693,stimulusDIAN07_2IFC_2019_Jun_13_1802_694,False,2019_Jun_13_1802,2IFC,2,DIAN07,
2IFC,47,0,47,0,12.5,-1,correct answer,0.400423000101,False,True,stimulusDIAN07_2IFC_2019_Jun_13_1802_695,stimulusDIAN07_2IFC_2019_Jun_13_1802_696,False,2019_Jun_13_1802,2IFC,2,DIAN07,
2IFC,48,0,48,0,12.5,-1,correct answer,0.400664099958,False,True,stimulusDIAN07_2IFC_2019_Jun_13_1802_697,stimulusDIAN07_2IFC_2019_Jun_13_1802_698,False,2019_Jun_13_1802,2IFC,2,DIAN07,
2IFC,49,0,49,0,12.5,-1,correct answer,0.733024100075,False,True,stimulusDIAN07_2IFC_2019_Jun_13_1802_699,stimulusDIAN07_2IFC_2019_Jun_13_1802_700,False,2019_Jun_13_1802,2IFC,2,DIAN07,
2IFC,50,0,50,0,12.5,-1,correct answer,0.500726799946,True,False,stimulusDIAN07_2IFC_2019_Jun_13_1802_701,stimulusDIAN07_2IFC_2019_Jun_13_1802_702,False,2019_Jun_13_1802,2IFC,2,DIAN07,
2IFC,51,0,51,0,12.5,-1,correct answer,0.233893900178,False,True,stimulusDIAN07_2IFC_2019_Jun_13_1802_703,stimulusDIAN07_2IFC_2019_Jun_13_1802_704,False,2019_Jun_13_1802,2IFC,2,DIAN07,
2IFC,52,0,52,0,12.5,-1,correct answer,0.266890899977,True,False,stimulusDIAN07_2IFC_2019_Jun_13_1802_705,stimulusDIAN07_2IFC_2019_Jun_13_1802_706,False,2019_Jun_13_1802,2IFC,2,DIAN07,
2IFC,53,0,53,0,12.5,-1,correct answer,0.698720300104,True,False,stimulusDIAN07_2IFC_2019_Jun_13_1802_707,stimulusDIAN07_2IFC_2019_Jun_13_1802_708,False,2019_Jun_13_1802,2IFC,2,DIAN07,
2IFC,54,0,54,0,12.5,-1,correct answer,0.534121299861,True,False,stimulusDIAN07_2IFC_2019_Jun_13_1802_709,stimulusDIAN07_2IFC_2019_Jun_13_1802_710,False,2019_Jun_13_1802,2IFC,2,DIAN07,
2IFC,55,0,55,0,12.5,-1,correct answer,0.500897699967,False,True,stimulusDIAN07_2IFC_2019_Jun_13_1802_711,stimulusDIAN07_2IFC_2019_Jun_13_1802_712,False,2019_Jun_13_1802,2IFC,2,DIAN07,
2IFC,56,0,56,0,12.5,-1,correct answer,0.0353087999392,True,False,stimulusDIAN07_2IFC_2019_Jun_13_1802_713,stimulusDIAN07_2IFC_2019_Jun_13_1802_714,False,2019_Jun_13_1802,2IFC,2,DIAN07,
2IFC,57,0,57,0,12.5,-1,correct answer,0.333574800054,True,False,stimulusDIAN07_2IFC_2019_Jun_13_1802_715,stimulusDIAN07_2IFC_2019_Jun_13_1802_716,False,2019_Jun_13_1802,2IFC,2,DIAN07,
2IFC,58,0,58,0,12.5,-1,correct answer,0.234722400084,False,True,stimulusDIAN07_2IFC_2019_Jun_13_1802_717,stimulusDIAN07_2IFC_2019_Jun_13_1802_718,False,2019_Jun_13_1802,2IFC,2,DIAN07,
2IFC,59,0,59,0,12.5,-1,correct answer,0.666962000076,False,True,stimulusDIAN07_2IFC_2019_Jun_13_1802_719,stimulusDIAN07_2IFC_2019_Jun_13_1802_720,False,2019_Jun_13_1802,2IFC,2,DIAN07,
2IFC,60,0,60,0,12.5,-1,wrong answer,0.50152759999,True,False,stimulusDIAN07_2IFC_2019_Jun_13_1802_721,stimulusDIAN07_2IFC_2019_Jun_13_1802_722,False,2019_Jun_13_1802,2IFC,2,DIAN07,
2IFC,61,0,61,0,12.5,-1,correct answer,0.400221599964,False,True,stimulusDIAN07_2IFC_2019_Jun_13_1802_723,stimulusDIAN07_2IFC_2019_Jun_13_1802_724,False,2019_Jun_13_1802,2IFC,2,DIAN07,
2IFC,62,0,62,0,12.5,-1,correct answer,0.367200700101,False,True,stimulusDIAN07_2IFC_2019_Jun_13_1802_725,stimulusDIAN07_2IFC_2019_Jun_13_1802_726,False,2019_Jun_13_1802,2IFC,2,DIAN07,
2IFC,63,0,63,0,12.5,-1,correct answer,0.400621999986,True,False,stimulusDIAN07_2IFC_2019_Jun_13_1802_727,stimulusDIAN07_2IFC_2019_Jun_13_1802_728,False,2019_Jun_13_1802,2IFC,2,DIAN07,
2IFC,64,0,64,0,12.5,-1,correct answer,0.266918200068,True,False,stimulusDIAN07_2IFC_2019_Jun_13_1802_729,stimulusDIAN07_2IFC_2019_Jun_13_1802_730,False,2019_Jun_13_1802,2IFC,2,DIAN07,
2IFC,65,0,65,0,12.5,-1,correct answer,0.266301100142,True,False,stimulusDIAN07_2IFC_2019_Jun_13_1802_731,stimulusDIAN07_2IFC_2019_Jun_13_1802_732,False,2019_Jun_13_1802,2IFC,2,DIAN07,
2IFC,66,0,66,0,12.5,-1,correct answer,0.266912099905,False,True,stimulusDIAN07_2IFC_2019_Jun_13_1802_733,stimulusDIAN07_2IFC_2019_Jun_13_1802_734,False,2019_Jun_13_1802,2IFC,2,DIAN07,
2IFC,67,0,67,0,12.5,-1,correct answer,0.233507599914,False,True,stimulusDIAN07_2IFC_2019_Jun_13_1802_735,stimulusDIAN07_2IFC_2019_Jun_13_1802_736,False,2019_Jun_13_1802,2IFC,2,DIAN07,
2IFC,68,0,68,0,12.5,-1,correct answer,0.367310399888,False,True,stimulusDIAN07_2IFC_2019_Jun_13_1802_737,stimulusDIAN07_2IFC_2019_Jun_13_1802_738,False,2019_Jun_13_1802,2IFC,2,DIAN07,
2IFC,69,0,69,0,12.5,-1,correct answer,0.200181299821,True,False,stimulusDIAN07_2IFC_2019_Jun_13_1802_739,stimulusDIAN07_2IFC_2019_Jun_13_1802_740,False,2019_Jun_13_1802,2IFC,2,DIAN07,
2IFC,70,0,70,0,12.5,-1,correct answer,0.233236300061,True,False,stimulusDIAN07_2IFC_2019_Jun_13_1802_741,stimulusDIAN07_2IFC_2019_Jun_13_1802_742,False,2019_Jun_13_1802,2IFC,2,DIAN07,
2IFC,71,0,71,0,12.5,-1,correct answer,0.366981200175,False,True,stimulusDIAN07_2IFC_2019_Jun_13_1802_743,stimulusDIAN07_2IFC_2019_Jun_13_1802_744,False,2019_Jun_13_1802,2IFC,2,DIAN07,
2IFC,72,0,72,0,12.5,-1,correct answer,0.467031399952,False,True,stimulusDIAN07_2IFC_2019_Jun_13_1802_745,stimulusDIAN07_2IFC_2019_Jun_13_1802_746,False,2019_Jun_13_1802,2IFC,2,DIAN07,
2IFC,73,0,73,0,12.5,-1,correct answer,0.100600200007,True,False,stimulusDIAN07_2IFC_2019_Jun_13_1802_747,stimulusDIAN07_2IFC_2019_Jun_13_1802_748,False,2019_Jun_13_1802,2IFC,2,DIAN07,
2IFC,74,0,74,0,12.5,-1,correct answer,0.333668200066,False,True,stimulusDIAN07_2IFC_2019_Jun_13_1802_749,stimulusDIAN07_2IFC_2019_Jun_13_1802_750,False,2019_Jun_13_1802,2IFC,2,DIAN07,
2IFC,0,0,0,0,9.8,-1,wrong answer,0.567378100008,True,False,stimulusDIAN07_2IFC_2019_Jun_13_1802_751,stimulusDIAN07_2IFC_2019_Jun_13_1802_752,False,2019_Jun_13_1802,2IFC,2,DIAN07,
2IFC,1,0,1,0,9.8,-1,correct answer,0.472265399992,False,True,stimulusDIAN07_2IFC_2019_Jun_13_1802_753,stimulusDIAN07_2IFC_2019_Jun_13_1802_754,False,2019_Jun_13_1802,2IFC,2,DIAN07,
2IFC,2,0,2,0,9.8,-1,correct answer,0.568885699846,False,True,stimulusDIAN07_2IFC_2019_Jun_13_1802_755,stimulusDIAN07_2IFC_2019_Jun_13_1802_756,False,2019_Jun_13_1802,2IFC,2,DIAN07,
2IFC,3,0,3,0,9.8,-1,correct answer,0.40142540005,False,True,stimulusDIAN07_2IFC_2019_Jun_13_1802_757,stimulusDIAN07_2IFC_2019_Jun_13_1802_758,False,2019_Jun_13_1802,2IFC,2,DIAN07,
2IFC,4,0,4,0,9.8,-1,correct answer,0.400593400002,False,True,stimulusDIAN07_2IFC_2019_Jun_13_1802_759,stimulusDIAN07_2IFC_2019_Jun_13_1802_760,False,2019_Jun_13_1802,2IFC,2,DIAN07,
2IFC,5,0,5,0,9.8,-1,wrong answer,0.567583400058,True,False,stimulusDIAN07_2IFC_2019_Jun_13_1802_761,stimulusDIAN07_2IFC_2019_Jun_13_1802_762,False,2019_Jun_13_1802,2IFC,2,DIAN07,
2IFC,6,0,6,0,9.8,-1,correct answer,0.367844699882,True,False,stimulusDIAN07_2IFC_2019_Jun_13_1802_763,stimulusDIAN07_2IFC_2019_Jun_13_1802_764,False,2019_Jun_13_1802,2IFC,2,DIAN07,
2IFC,7,0,7,0,9.8,-1,wrong answer,0.300538899843,False,True,stimulusDIAN07_2IFC_2019_Jun_13_1802_765,stimulusDIAN07_2IFC_2019_Jun_13_1802_766,False,2019_Jun_13_1802,2IFC,2,DIAN07,
2IFC,8,0,8,0,9.8,-1,correct answer,0.402430199785,False,True,stimulusDIAN07_2IFC_2019_Jun_13_1802_767,stimulusDIAN07_2IFC_2019_Jun_13_1802_768,False,2019_Jun_13_1802,2IFC,2,DIAN07,
2IFC,9,0,9,0,9.8,-1,correct answer,0.468104099855,True,False,stimulusDIAN07_2IFC_2019_Jun_13_1802_769,stimulusDIAN07_2IFC_2019_Jun_13_1802_770,False,2019_Jun_13_1802,2IFC,2,DIAN07,
2IFC,10,0,10,0,9.8,-1,wrong answer,0.500490000006,False,True,stimulusDIAN07_2IFC_2019_Jun_13_1802_771,stimulusDIAN07_2IFC_2019_Jun_13_1802_772,False,2019_Jun_13_1802,2IFC,2,DIAN07,
2IFC,11,0,11,0,9.8,-1,correct answer,0.601318300003,True,False,stimulusDIAN07_2IFC_2019_Jun_13_1802_773,stimulusDIAN07_2IFC_2019_Jun_13_1802_774,False,2019_Jun_13_1802,2IFC,2,DIAN07,
2IFC,12,0,12,0,9.8,-1,correct answer,0.634326599771,False,True,stimulusDIAN07_2IFC_2019_Jun_13_1802_775,stimulusDIAN07_2IFC_2019_Jun_13_1802_776,False,2019_Jun_13_1802,2IFC,2,DIAN07,
2IFC,13,0,13,0,9.8,-1,correct answer,0.500660600141,False,True,stimulusDIAN07_2IFC_2019_Jun_13_1802_777,stimulusDIAN07_2IFC_2019_Jun_13_1802_778,False,2019_Jun_13_1802,2IFC,2,DIAN07,
2IFC,14,0,14,0,9.8,-1,correct answer,0.334137900034,True,False,stimulusDIAN07_2IFC_2019_Jun_13_1802_779,stimulusDIAN07_2IFC_2019_Jun_13_1802_780,False,2019_Jun_13_1802,2IFC,2,DIAN07,
2IFC,15,0,15,0,9.8,-1,correct answer,0.467281699879,False,True,stimulusDIAN07_2IFC_2019_Jun_13_1802_781,stimulusDIAN07_2IFC_2019_Jun_13_1802_782,False,2019_Jun_13_1802,2IFC,2,DIAN07,
2IFC,16,0,16,0,9.8,-1,correct answer,0.867109399987,True,False,stimulusDIAN07_2IFC_2019_Jun_13_1802_783,stimulusDIAN07_2IFC_2019_Jun_13_1802_784,False,2019_Jun_13_1802,2IFC,2,DIAN07,
2IFC,17,0,17,0,9.8,-1,correct answer,0.267328000162,True,False,stimulusDIAN07_2IFC_2019_Jun_13_1802_785,stimulusDIAN07_2IFC_2019_Jun_13_1802_786,False,2019_Jun_13_1802,2IFC,2,DIAN07,
2IFC,18,0,18,0,9.8,-1,correct answer,0.26694539981,True,False,stimulusDIAN07_2IFC_2019_Jun_13_1802_787,stimulusDIAN07_2IFC_2019_Jun_13_1802_788,False,2019_Jun_13_1802,2IFC,2,DIAN07,
2IFC,19,0,19,0,9.8,-1,correct answer,0.166840499965,True,False,stimulusDIAN07_2IFC_2019_Jun_13_1802_789,stimulusDIAN07_2IFC_2019_Jun_13_1802_790,False,2019_Jun_13_1802,2IFC,2,DIAN07,
2IFC,20,0,20,0,9.8,-1,correct answer,0.333844499895,True,False,stimulusDIAN07_2IFC_2019_Jun_13_1802_791,stimulusDIAN07_2IFC_2019_Jun_13_1802_792,False,2019_Jun_13_1802,2IFC,2,DIAN07,
2IFC,21,0,21,0,9.8,-1,correct answer,0.333806399954,False,True,stimulusDIAN07_2IFC_2019_Jun_13_1802_793,stimulusDIAN07_2IFC_2019_Jun_13_1802_794,False,2019_Jun_13_1802,2IFC,2,DIAN07,
2IFC,22,0,22,0,9.8,-1,correct answer,0.132918999996,True,False,stimulusDIAN07_2IFC_2019_Jun_13_1802_795,stimulusDIAN07_2IFC_2019_Jun_13_1802_796,False,2019_Jun_13_1802,2IFC,2,DIAN07,
2IFC,23,0,23,0,9.8,-1,wrong answer,0.433282200014,False,True,stimulusDIAN07_2IFC_2019_Jun_13_1802_797,stimulusDIAN07_2IFC_2019_Jun_13_1802_798,False,2019_Jun_13_1802,2IFC,2,DIAN07,
2IFC,24,0,24,0,9.8,-1,correct answer,0.534259899985,False,True,stimulusDIAN07_2IFC_2019_Jun_13_1802_799,stimulusDIAN07_2IFC_2019_Jun_13_1802_800,False,2019_Jun_13_1802,2IFC,2,DIAN07,
2IFC,25,0,25,0,9.8,-1,correct answer,0.70117200003,False,True,stimulusDIAN07_2IFC_2019_Jun_13_1802_801,stimulusDIAN07_2IFC_2019_Jun_13_1802_802,False,2019_Jun_13_1802,2IFC,2,DIAN07,
2IFC,26,0,26,0,9.8,-1,correct answer,0.53392950003,False,True,stimulusDIAN07_2IFC_2019_Jun_13_1802_803,stimulusDIAN07_2IFC_2019_Jun_13_1802_804,False,2019_Jun_13_1802,2IFC,2,DIAN07,
2IFC,27,0,27,0,9.8,-1,correct answer,0.734277100069,False,True,stimulusDIAN07_2IFC_2019_Jun_13_1802_805,stimulusDIAN07_2IFC_2019_Jun_13_1802_806,False,2019_Jun_13_1802,2IFC,2,DIAN07,
2IFC,28,0,28,0,9.8,-1,correct answer,0.734128700104,False,True,stimulusDIAN07_2IFC_2019_Jun_13_1802_807,stimulusDIAN07_2IFC_2019_Jun_13_1802_808,False,2019_Jun_13_1802,2IFC,2,DIAN07,
2IFC,29,0,29,0,9.8,-1,correct answer,0.235085200053,False,True,stimulusDIAN07_2IFC_2019_Jun_13_1802_809,stimulusDIAN07_2IFC_2019_Jun_13_1802_810,False,2019_Jun_13_1802,2IFC,2,DIAN07,
2IFC,30,0,30,0,9.8,-1,correct answer,0.433863000013,False,True,stimulusDIAN07_2IFC_2019_Jun_13_1802_811,stimulusDIAN07_2IFC_2019_Jun_13_1802_812,False,2019_Jun_13_1802,2IFC,2,DIAN07,
2IFC,31,0,31,0,9.8,-1,correct answer,0.367289299844,False,True,stimulusDIAN07_2IFC_2019_Jun_13_1802_813,stimulusDIAN07_2IFC_2019_Jun_13_1802_814,False,2019_Jun_13_1802,2IFC,2,DIAN07,
2IFC,32,0,32,0,9.8,-1,correct answer,0.400341700064,False,True,stimulusDIAN07_2IFC_2019_Jun_13_1802_815,stimulusDIAN07_2IFC_2019_Jun_13_1802_816,False,2019_Jun_13_1802,2IFC,2,DIAN07,
2IFC,33,0,33,0,9.8,-1,correct answer,0.133714900119,True,False,stimulusDIAN07_2IFC_2019_Jun_13_1802_817,stimulusDIAN07_2IFC_2019_Jun_13_1802_818,False,2019_Jun_13_1802,2IFC,2,DIAN07,
2IFC,34,0,34,0,9.8,-1,correct answer,0.133324200055,False,True,stimulusDIAN07_2IFC_2019_Jun_13_1802_819,stimulusDIAN07_2IFC_2019_Jun_13_1802_820,False,2019_Jun_13_1802,2IFC,2,DIAN07,
2IFC,35,0,35,0,9.8,-1,correct answer,0.434378399979,True,False,stimulusDIAN07_2IFC_2019_Jun_13_1802_821,stimulusDIAN07_2IFC_2019_Jun_13_1802_822,False,2019_Jun_13_1802,2IFC,2,DIAN07,
2IFC,36,0,36,0,9.8,-1,correct answer,0.435218299972,False,True,stimulusDIAN07_2IFC_2019_Jun_13_1802_823,stimulusDIAN07_2IFC_2019_Jun_13_1802_824,False,2019_Jun_13_1802,2IFC,2,DIAN07,
2IFC,37,0,37,0,9.8,-1,correct answer,0.300362300128,False,True,stimulusDIAN07_2IFC_2019_Jun_13_1802_825,stimulusDIAN07_2IFC_2019_Jun_13_1802_826,False,2019_Jun_13_1802,2IFC,2,DIAN07,
2IFC,38,0,38,0,9.8,-1,correct answer,0.400576099986,True,False,stimulusDIAN07_2IFC_2019_Jun_13_1802_827,stimulusDIAN07_2IFC_2019_Jun_13_1802_828,False,2019_Jun_13_1802,2IFC,2,DIAN07,
2IFC,39,0,39,0,9.8,-1,correct answer,0.267821900081,False,True,stimulusDIAN07_2IFC_2019_Jun_13_1802_829,stimulusDIAN07_2IFC_2019_Jun_13_1802_830,False,2019_Jun_13_1802,2IFC,2,DIAN07,
2IFC,40,0,40,0,9.8,-1,correct answer,0.400373199955,False,True,stimulusDIAN07_2IFC_2019_Jun_13_1802_831,stimulusDIAN07_2IFC_2019_Jun_13_1802_832,False,2019_Jun_13_1802,2IFC,2,DIAN07,
2IFC,41,0,41,0,9.8,-1,correct answer,0.200564699946,True,False,stimulusDIAN07_2IFC_2019_Jun_13_1802_833,stimulusDIAN07_2IFC_2019_Jun_13_1802_834,False,2019_Jun_13_1802,2IFC,2,DIAN07,
2IFC,42,0,42,0,9.8,-1,correct answer,0.266680900007,True,False,stimulusDIAN07_2IFC_2019_Jun_13_1802_835,stimulusDIAN07_2IFC_2019_Jun_13_1802_836,False,2019_Jun_13_1802,2IFC,2,DIAN07,
2IFC,43,0,43,0,9.8,-1,correct answer,0.433829099871,False,True,stimulusDIAN07_2IFC_2019_Jun_13_1802_837,stimulusDIAN07_2IFC_2019_Jun_13_1802_838,False,2019_Jun_13_1802,2IFC,2,DIAN07,
2IFC,44,0,44,0,9.8,-1,correct answer,0.700876899995,False,True,stimulusDIAN07_2IFC_2019_Jun_13_1802_839,stimulusDIAN07_2IFC_2019_Jun_13_1802_840,False,2019_Jun_13_1802,2IFC,2,DIAN07,
2IFC,45,0,45,0,9.8,-1,wrong answer,0.600451099919,True,False,stimulusDIAN07_2IFC_2019_Jun_13_1802_841,stimulusDIAN07_2IFC_2019_Jun_13_1802_842,False,2019_Jun_13_1802,2IFC,2,DIAN07,
2IFC,46,0,46,0,9.8,-1,correct answer,0.200377100147,True,False,stimulusDIAN07_2IFC_2019_Jun_13_1802_843,stimulusDIAN07_2IFC_2019_Jun_13_1802_844,False,2019_Jun_13_1802,2IFC,2,DIAN07,
2IFC,47,0,47,0,9.8,-1,correct answer,0.367334299954,False,True,stimulusDIAN07_2IFC_2019_Jun_13_1802_845,stimulusDIAN07_2IFC_2019_Jun_13_1802_846,False,2019_Jun_13_1802,2IFC,2,DIAN07,
2IFC,48,0,48,0,9.8,-1,wrong answer,0.467769199982,True,False,stimulusDIAN07_2IFC_2019_Jun_13_1802_847,stimulusDIAN07_2IFC_2019_Jun_13_1802_848,False,2019_Jun_13_1802,2IFC,2,DIAN07,
2IFC,49,0,49,0,9.8,-1,correct answer,0.467683499912,False,True,stimulusDIAN07_2IFC_2019_Jun_13_1802_849,stimulusDIAN07_2IFC_2019_Jun_13_1802_850,False,2019_Jun_13_1802,2IFC,2,DIAN07,
2IFC,50,0,50,0,9.8,-1,correct answer,0.200909199892,True,False,stimulusDIAN07_2IFC_2019_Jun_13_1802_851,stimulusDIAN07_2IFC_2019_Jun_13_1802_852,False,2019_Jun_13_1802,2IFC,2,DIAN07,
2IFC,51,0,51,0,9.8,-1,correct answer,0.534116099821,False,True,stimulusDIAN07_2IFC_2019_Jun_13_1802_853,stimulusDIAN07_2IFC_2019_Jun_13_1802_854,False,2019_Jun_13_1802,2IFC,2,DIAN07,
2IFC,52,0,52,0,9.8,-1,correct answer,0.56774009997,False,True,stimulusDIAN07_2IFC_2019_Jun_13_1802_855,stimulusDIAN07_2IFC_2019_Jun_13_1802_856,False,2019_Jun_13_1802,2IFC,2,DIAN07,
2IFC,53,0,53,0,9.8,-1,correct answer,0.400605599862,False,True,stimulusDIAN07_2IFC_2019_Jun_13_1802_857,stimulusDIAN07_2IFC_2019_Jun_13_1802_858,False,2019_Jun_13_1802,2IFC,2,DIAN07,
2IFC,54,0,54,0,9.8,-1,wrong answer,0.300748500042,False,True,stimulusDIAN07_2IFC_2019_Jun_13_1802_859,stimulusDIAN07_2IFC_2019_Jun_13_1802_860,False,2019_Jun_13_1802,2IFC,2,DIAN07,
2IFC,55,0,55,0,9.8,-1,correct answer,0.533763400046,True,False,stimulusDIAN07_2IFC_2019_Jun_13_1802_861,stimulusDIAN07_2IFC_2019_Jun_13_1802_862,False,2019_Jun_13_1802,2IFC,2,DIAN07,
2IFC,56,0,56,0,9.8,-1,correct answer,0.500445399899,False,True,stimulusDIAN07_2IFC_2019_Jun_13_1802_863,stimulusDIAN07_2IFC_2019_Jun_13_1802_864,False,2019_Jun_13_1802,2IFC,2,DIAN07,
2IFC,57,0,57,0,9.8,-1,correct answer,0.500007800059,False,True,stimulusDIAN07_2IFC_2019_Jun_13_1802_865,stimulusDIAN07_2IFC_2019_Jun_13_1802_866,False,2019_Jun_13_1802,2IFC,2,DIAN07,
2IFC,58,0,58,0,9.8,-1,correct answer,0.46731940005,False,True,stimulusDIAN07_2IFC_2019_Jun_13_1802_867,stimulusDIAN07_2IFC_2019_Jun_13_1802_868,False,2019_Jun_13_1802,2IFC,2,DIAN07,
2IFC,59,0,59,0,9.8,-1,correct answer,0.567744399887,False,True,stimulusDIAN07_2IFC_2019_Jun_13_1802_869,stimulusDIAN07_2IFC_2019_Jun_13_1802_870,False,2019_Jun_13_1802,2IFC,2,DIAN07,
2IFC,60,0,60,0,9.8,-1,correct answer,0.467366500059,False,True,stimulusDIAN07_2IFC_2019_Jun_13_1802_871,stimulusDIAN07_2IFC_2019_Jun_13_1802_872,False,2019_Jun_13_1802,2IFC,2,DIAN07,
2IFC,61,0,61,0,9.8,-1,correct answer,0.401046100073,True,False,stimulusDIAN07_2IFC_2019_Jun_13_1802_873,stimulusDIAN07_2IFC_2019_Jun_13_1802_874,False,2019_Jun_13_1802,2IFC,2,DIAN07,
2IFC,62,0,62,0,9.8,-1,correct answer,0.834066999843,False,True,stimulusDIAN07_2IFC_2019_Jun_13_1802_875,stimulusDIAN07_2IFC_2019_Jun_13_1802_876,False,2019_Jun_13_1802,2IFC,2,DIAN07,
2IFC,63,0,63,0,9.8,-1,correct answer,0.368473700015,False,True,stimulusDIAN07_2IFC_2019_Jun_13_1802_877,stimulusDIAN07_2IFC_2019_Jun_13_1802_878,False,2019_Jun_13_1802,2IFC,2,DIAN07,
2IFC,64,0,64,0,9.8,-1,correct answer,0.234122900059,True,False,stimulusDIAN07_2IFC_2019_Jun_13_1802_879,stimulusDIAN07_2IFC_2019_Jun_13_1802_880,False,2019_Jun_13_1802,2IFC,2,DIAN07,
2IFC,65,0,65,0,9.8,-1,correct answer,0.0672681001015,False,True,stimulusDIAN07_2IFC_2019_Jun_13_1802_881,stimulusDIAN07_2IFC_2019_Jun_13_1802_882,False,2019_Jun_13_1802,2IFC,2,DIAN07,
2IFC,66,0,66,0,9.8,-1,wrong answer,0.467462700093,True,False,stimulusDIAN07_2IFC_2019_Jun_13_1802_883,stimulusDIAN07_2IFC_2019_Jun_13_1802_884,False,2019_Jun_13_1802,2IFC,2,DIAN07,
2IFC,67,0,67,0,9.8,-1,correct answer,0.299891999923,False,True,stimulusDIAN07_2IFC_2019_Jun_13_1802_885,stimulusDIAN07_2IFC_2019_Jun_13_1802_886,False,2019_Jun_13_1802,2IFC,2,DIAN07,
2IFC,68,0,68,0,9.8,-1,correct answer,0.366893799976,False,True,stimulusDIAN07_2IFC_2019_Jun_13_1802_887,stimulusDIAN07_2IFC_2019_Jun_13_1802_888,False,2019_Jun_13_1802,2IFC,2,DIAN07,
2IFC,69,0,69,0,9.8,-1,correct answer,0.400913299993,False,True,stimulusDIAN07_2IFC_2019_Jun_13_1802_889,stimulusDIAN07_2IFC_2019_Jun_13_1802_890,False,2019_Jun_13_1802,2IFC,2,DIAN07,
2IFC,70,0,70,0,9.8,-1,correct answer,0.568373500137,False,True,stimulusDIAN07_2IFC_2019_Jun_13_1802_891,stimulusDIAN07_2IFC_2019_Jun_13_1802_892,False,2019_Jun_13_1802,2IFC,2,DIAN07,
2IFC,71,0,71,0,9.8,-1,correct answer,0.533939099871,True,False,stimulusDIAN07_2IFC_2019_Jun_13_1802_893,stimulusDIAN07_2IFC_2019_Jun_13_1802_894,False,2019_Jun_13_1802,2IFC,2,DIAN07,
2IFC,72,0,72,0,9.8,-1,correct answer,0.434427200118,True,False,stimulusDIAN07_2IFC_2019_Jun_13_1802_895,stimulusDIAN07_2IFC_2019_Jun_13_1802_896,False,2019_Jun_13_1802,2IFC,2,DIAN07,
2IFC,73,0,73,0,9.8,-1,correct answer,0.433971900027,True,False,stimulusDIAN07_2IFC_2019_Jun_13_1802_897,stimulusDIAN07_2IFC_2019_Jun_13_1802_898,False,2019_Jun_13_1802,2IFC,2,DIAN07,
2IFC,74,0,74,0,9.8,-1,correct answer,0.333858999889,False,True,stimulusDIAN07_2IFC_2019_Jun_13_1802_899,stimulusDIAN07_2IFC_2019_Jun_13_1802_900,False,2019_Jun_13_1802,2IFC,2,DIAN07,
2IFC,0,0,0,0,13.9,-1,correct answer,0.301145700039,False,True,stimulusDIAN07_2IFC_2019_Jun_13_1802_901,stimulusDIAN07_2IFC_2019_Jun_13_1802_902,False,2019_Jun_13_1802,2IFC,2,DIAN07,
2IFC,1,0,1,0,13.9,-1,correct answer,0.367186899995,False,True,stimulusDIAN07_2IFC_2019_Jun_13_1802_903,stimulusDIAN07_2IFC_2019_Jun_13_1802_904,False,2019_Jun_13_1802,2IFC,2,DIAN07,
2IFC,2,0,2,0,13.9,-1,correct answer,0.334427400026,False,True,stimulusDIAN07_2IFC_2019_Jun_13_1802_905,stimulusDIAN07_2IFC_2019_Jun_13_1802_906,False,2019_Jun_13_1802,2IFC,2,DIAN07,
2IFC,3,0,3,0,13.9,-1,correct answer,0.334484700114,False,True,stimulusDIAN07_2IFC_2019_Jun_13_1802_907,stimulusDIAN07_2IFC_2019_Jun_13_1802_908,False,2019_Jun_13_1802,2IFC,2,DIAN07,
2IFC,4,0,4,0,13.9,-1,correct answer,0.0648560000118,True,False,stimulusDIAN07_2IFC_2019_Jun_13_1802_909,stimulusDIAN07_2IFC_2019_Jun_13_1802_910,False,2019_Jun_13_1802,2IFC,2,DIAN07,
2IFC,5,0,5,0,13.9,-1,correct answer,0.0713400000241,False,True,stimulusDIAN07_2IFC_2019_Jun_13_1802_911,stimulusDIAN07_2IFC_2019_Jun_13_1802_912,False,2019_Jun_13_1802,2IFC,2,DIAN07,
2IFC,6,0,6,0,13.9,-1,correct answer,0.267083300045,False,True,stimulusDIAN07_2IFC_2019_Jun_13_1802_913,stimulusDIAN07_2IFC_2019_Jun_13_1802_914,False,2019_Jun_13_1802,2IFC,2,DIAN07,
2IFC,7,0,7,0,13.9,-1,correct answer,0.233669199981,True,False,stimulusDIAN07_2IFC_2019_Jun_13_1802_915,stimulusDIAN07_2IFC_2019_Jun_13_1802_916,False,2019_Jun_13_1802,2IFC,2,DIAN07,
2IFC,8,0,8,0,13.9,-1,correct answer,0.26731149992,True,False,stimulusDIAN07_2IFC_2019_Jun_13_1802_917,stimulusDIAN07_2IFC_2019_Jun_13_1802_918,False,2019_Jun_13_1802,2IFC,2,DIAN07,
2IFC,9,0,9,0,13.9,-1,correct answer,0.400658399798,False,True,stimulusDIAN07_2IFC_2019_Jun_13_1802_919,stimulusDIAN07_2IFC_2019_Jun_13_1802_920,False,2019_Jun_13_1802,2IFC,2,DIAN07,
2IFC,10,0,10,0,13.9,-1,correct answer,0.367149599828,False,True,stimulusDIAN07_2IFC_2019_Jun_13_1802_921,stimulusDIAN07_2IFC_2019_Jun_13_1802_922,False,2019_Jun_13_1802,2IFC,2,DIAN07,
2IFC,11,0,11,0,13.9,-1,correct answer,0.0667443000712,True,False,stimulusDIAN07_2IFC_2019_Jun_13_1802_923,stimulusDIAN07_2IFC_2019_Jun_13_1802_924,False,2019_Jun_13_1802,2IFC,2,DIAN07,
2IFC,12,0,12,0,13.9,-1,correct answer,0.067221299978,False,True,stimulusDIAN07_2IFC_2019_Jun_13_1802_925,stimulusDIAN07_2IFC_2019_Jun_13_1802_926,False,2019_Jun_13_1802,2IFC,2,DIAN07,
2IFC,13,0,13,0,13.9,-1,correct answer,0.432417100063,False,True,stimulusDIAN07_2IFC_2019_Jun_13_1802_927,stimulusDIAN07_2IFC_2019_Jun_13_1802_928,False,2019_Jun_13_1802,2IFC,2,DIAN07,
2IFC,14,0,14,0,13.9,-1,correct answer,0.133680599974,True,False,stimulusDIAN07_2IFC_2019_Jun_13_1802_929,stimulusDIAN07_2IFC_2019_Jun_13_1802_930,False,2019_Jun_13_1802,2IFC,2,DIAN07,
2IFC,15,0,15,0,13.9,-1,correct answer,0.300498099998,False,True,stimulusDIAN07_2IFC_2019_Jun_13_1802_931,stimulusDIAN07_2IFC_2019_Jun_13_1802_932,False,2019_Jun_13_1802,2IFC,2,DIAN07,
2IFC,16,0,16,0,13.9,-1,correct answer,0.199981800048,True,False,stimulusDIAN07_2IFC_2019_Jun_13_1802_933,stimulusDIAN07_2IFC_2019_Jun_13_1802_934,False,2019_Jun_13_1802,2IFC,2,DIAN07,
2IFC,17,0,17,0,13.9,-1,correct answer,0.133388699964,True,False,stimulusDIAN07_2IFC_2019_Jun_13_1802_935,stimulusDIAN07_2IFC_2019_Jun_13_1802_936,False,2019_Jun_13_1802,2IFC,2,DIAN07,
2IFC,18,0,18,0,13.9,-1,correct answer,0.36726050009,False,True,stimulusDIAN07_2IFC_2019_Jun_13_1802_937,stimulusDIAN07_2IFC_2019_Jun_13_1802_938,False,2019_Jun_13_1802,2IFC,2,DIAN07,
2IFC,19,0,19,0,13.9,-1,correct answer,0.332619399996,False,True,stimulusDIAN07_2IFC_2019_Jun_13_1802_939,stimulusDIAN07_2IFC_2019_Jun_13_1802_940,False,2019_Jun_13_1802,2IFC,2,DIAN07,
2IFC,20,0,20,0,13.9,-1,correct answer,0.301384899998,False,True,stimulusDIAN07_2IFC_2019_Jun_13_1802_941,stimulusDIAN07_2IFC_2019_Jun_13_1802_942,False,2019_Jun_13_1802,2IFC,2,DIAN07,
2IFC,21,0,21,0,13.9,-1,correct answer,0.0338483001105,True,False,stimulusDIAN07_2IFC_2019_Jun_13_1802_943,stimulusDIAN07_2IFC_2019_Jun_13_1802_944,False,2019_Jun_13_1802,2IFC,2,DIAN07,
2IFC,22,0,22,0,13.9,-1,correct answer,0.100244199857,False,True,stimulusDIAN07_2IFC_2019_Jun_13_1802_945,stimulusDIAN07_2IFC_2019_Jun_13_1802_946,False,2019_Jun_13_1802,2IFC,2,DIAN07,
2IFC,23,0,23,0,13.9,-1,correct answer,0.367340299999,False,True,stimulusDIAN07_2IFC_2019_Jun_13_1802_947,stimulusDIAN07_2IFC_2019_Jun_13_1802_948,False,2019_Jun_13_1802,2IFC,2,DIAN07,
2IFC,24,0,24,0,13.9,-1,correct answer,0.133752799826,True,False,stimulusDIAN07_2IFC_2019_Jun_13_1802_949,stimulusDIAN07_2IFC_2019_Jun_13_1802_950,False,2019_Jun_13_1802,2IFC,2,DIAN07,
2IFC,25,0,25,0,13.9,-1,correct answer,0.0672092998866,True,False,stimulusDIAN07_2IFC_2019_Jun_13_1802_951,stimulusDIAN07_2IFC_2019_Jun_13_1802_952,False,2019_Jun_13_1802,2IFC,2,DIAN07,
2IFC,26,0,26,0,13.9,-1,correct answer,0.265983199934,False,True,stimulusDIAN07_2IFC_2019_Jun_13_1802_953,stimulusDIAN07_2IFC_2019_Jun_13_1802_954,False,2019_Jun_13_1802,2IFC,2,DIAN07,
2IFC,27,0,27,0,13.9,-1,correct answer,0.0671616999898,True,False,stimulusDIAN07_2IFC_2019_Jun_13_1802_955,stimulusDIAN07_2IFC_2019_Jun_13_1802_956,False,2019_Jun_13_1802,2IFC,2,DIAN07,
2IFC,28,0,28,0,13.9,-1,correct answer,0.333602699917,False,True,stimulusDIAN07_2IFC_2019_Jun_13_1802_957,stimulusDIAN07_2IFC_2019_Jun_13_1802_958,False,2019_Jun_13_1802,2IFC,2,DIAN07,
2IFC,29,0,29,0,13.9,-1,correct answer,0.499847200001,False,True,stimulusDIAN07_2IFC_2019_Jun_13_1802_959,stimulusDIAN07_2IFC_2019_Jun_13_1802_960,False,2019_Jun_13_1802,2IFC,2,DIAN07,
2IFC,30,0,30,0,13.9,-1,correct answer,0.133777499897,True,False,stimulusDIAN07_2IFC_2019_Jun_13_1802_961,stimulusDIAN07_2IFC_2019_Jun_13_1802_962,False,2019_Jun_13_1802,2IFC,2,DIAN07,
2IFC,31,0,31,0,13.9,-1,correct answer,0.333488899982,False,True,stimulusDIAN07_2IFC_2019_Jun_13_1802_963,stimulusDIAN07_2IFC_2019_Jun_13_1802_964,False,2019_Jun_13_1802,2IFC,2,DIAN07,
2IFC,32,0,32,0,13.9,-1,correct answer,0.0670032000635,True,False,stimulusDIAN07_2IFC_2019_Jun_13_1802_965,stimulusDIAN07_2IFC_2019_Jun_13_1802_966,False,2019_Jun_13_1802,2IFC,2,DIAN07,
2IFC,33,0,33,0,13.9,-1,correct answer,0.267122699879,False,True,stimulusDIAN07_2IFC_2019_Jun_13_1802_967,stimulusDIAN07_2IFC_2019_Jun_13_1802_968,False,2019_Jun_13_1802,2IFC,2,DIAN07,
2IFC,34,0,34,0,13.9,-1,correct answer,0.400746800005,False,True,stimulusDIAN07_2IFC_2019_Jun_13_1802_969,stimulusDIAN07_2IFC_2019_Jun_13_1802_970,False,2019_Jun_13_1802,2IFC,2,DIAN07,
2IFC,35,0,35,0,13.9,-1,correct answer,0.301106099971,False,True,stimulusDIAN07_2IFC_2019_Jun_13_1802_971,stimulusDIAN07_2IFC_2019_Jun_13_1802_972,False,2019_Jun_13_1802,2IFC,2,DIAN07,
2IFC,36,0,36,0,13.9,-1,correct answer,0.367254199926,False,True,stimulusDIAN07_2IFC_2019_Jun_13_1802_973,stimulusDIAN07_2IFC_2019_Jun_13_1802_974,False,2019_Jun_13_1802,2IFC,2,DIAN07,
2IFC,37,0,37,0,13.9,-1,correct answer,0.334180700127,False,True,stimulusDIAN07_2IFC_2019_Jun_13_1802_975,stimulusDIAN07_2IFC_2019_Jun_13_1802_976,False,2019_Jun_13_1802,2IFC,2,DIAN07,
2IFC,38,0,38,0,13.9,-1,correct answer,0.366976200137,False,True,stimulusDIAN07_2IFC_2019_Jun_13_1802_977,stimulusDIAN07_2IFC_2019_Jun_13_1802_978,False,2019_Jun_13_1802,2IFC,2,DIAN07,
2IFC,39,0,39,0,13.9,-1,correct answer,0.268758299993,False,True,stimulusDIAN07_2IFC_2019_Jun_13_1802_979,stimulusDIAN07_2IFC_2019_Jun_13_1802_980,False,2019_Jun_13_1802,2IFC,2,DIAN07,
2IFC,40,0,40,0,13.9,-1,correct answer,0.267148400191,False,True,stimulusDIAN07_2IFC_2019_Jun_13_1802_981,stimulusDIAN07_2IFC_2019_Jun_13_1802_982,False,2019_Jun_13_1802,2IFC,2,DIAN07,
2IFC,41,0,41,0,13.9,-1,correct answer,0.164834799943,False,True,stimulusDIAN07_2IFC_2019_Jun_13_1802_983,stimulusDIAN07_2IFC_2019_Jun_13_1802_984,False,2019_Jun_13_1802,2IFC,2,DIAN07,
2IFC,42,0,42,0,13.9,-1,correct answer,0.266959700035,False,True,stimulusDIAN07_2IFC_2019_Jun_13_1802_985,stimulusDIAN07_2IFC_2019_Jun_13_1802_986,False,2019_Jun_13_1802,2IFC,2,DIAN07,
2IFC,43,0,43,0,13.9,-1,correct answer,0.367074599955,False,True,stimulusDIAN07_2IFC_2019_Jun_13_1802_987,stimulusDIAN07_2IFC_2019_Jun_13_1802_988,False,2019_Jun_13_1802,2IFC,2,DIAN07,
2IFC,44,0,44,0,13.9,-1,correct answer,0.200425699819,True,False,stimulusDIAN07_2IFC_2019_Jun_13_1802_989,stimulusDIAN07_2IFC_2019_Jun_13_1802_990,False,2019_Jun_13_1802,2IFC,2,DIAN07,
2IFC,45,0,45,0,13.9,-1,correct answer,0.0669675001409,False,True,stimulusDIAN07_2IFC_2019_Jun_13_1802_991,stimulusDIAN07_2IFC_2019_Jun_13_1802_992,False,2019_Jun_13_1802,2IFC,2,DIAN07,
2IFC,46,0,46,0,13.9,-1,correct answer,0.267019000137,False,True,stimulusDIAN07_2IFC_2019_Jun_13_1802_993,stimulusDIAN07_2IFC_2019_Jun_13_1802_994,False,2019_Jun_13_1802,2IFC,2,DIAN07,
2IFC,47,0,47,0,13.9,-1,correct answer,0.166039000032,False,True,stimulusDIAN07_2IFC_2019_Jun_13_1802_995,stimulusDIAN07_2IFC_2019_Jun_13_1802_996,False,2019_Jun_13_1802,2IFC,2,DIAN07,
2IFC,48,0,48,0,13.9,-1,correct answer,0.333910800051,False,True,stimulusDIAN07_2IFC_2019_Jun_13_1802_997,stimulusDIAN07_2IFC_2019_Jun_13_1802_998,False,2019_Jun_13_1802,2IFC,2,DIAN07,
2IFC,49,0,49,0,13.9,-1,correct answer,0.200468200026,False,True,stimulusDIAN07_2IFC_2019_Jun_13_1802_999,stimulusDIAN07_2IFC_2019_Jun_13_1802_1000,False,2019_Jun_13_1802,2IFC,2,DIAN07,
2IFC,50,0,50,0,13.9,-1,correct answer,0.533988900017,True,False,stimulusDIAN07_2IFC_2019_Jun_13_1802_1001,stimulusDIAN07_2IFC_2019_Jun_13_1802_1002,False,2019_Jun_13_1802,2IFC,2,DIAN07,
2IFC,51,0,51,0,13.9,-1,correct answer,0.333520899992,False,True,stimulusDIAN07_2IFC_2019_Jun_13_1802_1003,stimulusDIAN07_2IFC_2019_Jun_13_1802_1004,False,2019_Jun_13_1802,2IFC,2,DIAN07,
2IFC,52,0,52,0,13.9,-1,correct answer,0.367193400161,True,False,stimulusDIAN07_2IFC_2019_Jun_13_1802_1005,stimulusDIAN07_2IFC_2019_Jun_13_1802_1006,False,2019_Jun_13_1802,2IFC,2,DIAN07,
2IFC,53,0,53,0,13.9,-1,correct answer,0.434115000069,False,True,stimulusDIAN07_2IFC_2019_Jun_13_1802_1007,stimulusDIAN07_2IFC_2019_Jun_13_1802_1008,False,2019_Jun_13_1802,2IFC,2,DIAN07,
2IFC,54,0,54,0,13.9,-1,correct answer,0.434354800032,False,True,stimulusDIAN07_2IFC_2019_Jun_13_1802_1009,stimulusDIAN07_2IFC_2019_Jun_13_1802_1010,False,2019_Jun_13_1802,2IFC,2,DIAN07,
2IFC,55,0,55,0,13.9,-1,correct answer,0.434041399974,False,True,stimulusDIAN07_2IFC_2019_Jun_13_1802_1011,stimulusDIAN07_2IFC_2019_Jun_13_1802_1012,False,2019_Jun_13_1802,2IFC,2,DIAN07,
2IFC,56,0,56,0,13.9,-1,correct answer,0.367320700083,False,True,stimulusDIAN07_2IFC_2019_Jun_13_1802_1013,stimulusDIAN07_2IFC_2019_Jun_13_1802_1014,False,2019_Jun_13_1802,2IFC,2,DIAN07,
2IFC,57,0,57,0,13.9,-1,correct answer,0.333741900045,False,True,stimulusDIAN07_2IFC_2019_Jun_13_1802_1015,stimulusDIAN07_2IFC_2019_Jun_13_1802_1016,False,2019_Jun_13_1802,2IFC,2,DIAN07,
2IFC,58,0,58,0,13.9,-1,correct answer,0.267394999973,True,False,stimulusDIAN07_2IFC_2019_Jun_13_1802_1017,stimulusDIAN07_2IFC_2019_Jun_13_1802_1018,False,2019_Jun_13_1802,2IFC,2,DIAN07,
2IFC,59,0,59,0,13.9,-1,correct answer,0.367447100114,False,True,stimulusDIAN07_2IFC_2019_Jun_13_1802_1019,stimulusDIAN07_2IFC_2019_Jun_13_1802_1020,False,2019_Jun_13_1802,2IFC,2,DIAN07,
2IFC,60,0,60,0,13.9,-1,correct answer,0.30065479991,False,True,stimulusDIAN07_2IFC_2019_Jun_13_1802_1021,stimulusDIAN07_2IFC_2019_Jun_13_1802_1022,False,2019_Jun_13_1802,2IFC,2,DIAN07,
2IFC,61,0,61,0,13.9,-1,correct answer,0.500528399833,False,True,stimulusDIAN07_2IFC_2019_Jun_13_1802_1023,stimulusDIAN07_2IFC_2019_Jun_13_1802_1024,False,2019_Jun_13_1802,2IFC,2,DIAN07,
2IFC,62,0,62,0,13.9,-1,correct answer,0.233779500006,True,False,stimulusDIAN07_2IFC_2019_Jun_13_1802_1025,stimulusDIAN07_2IFC_2019_Jun_13_1802_1026,False,2019_Jun_13_1802,2IFC,2,DIAN07,
2IFC,63,0,63,0,13.9,-1,correct answer,0.234009600012,True,False,stimulusDIAN07_2IFC_2019_Jun_13_1802_1027,stimulusDIAN07_2IFC_2019_Jun_13_1802_1028,False,2019_Jun_13_1802,2IFC,2,DIAN07,
2IFC,64,0,64,0,13.9,-1,correct answer,0.0338429000694,True,False,stimulusDIAN07_2IFC_2019_Jun_13_1802_1029,stimulusDIAN07_2IFC_2019_Jun_13_1802_1030,False,2019_Jun_13_1802,2IFC,2,DIAN07,
2IFC,65,0,65,0,13.9,-1,correct answer,0.367039599922,False,True,stimulusDIAN07_2IFC_2019_Jun_13_1802_1031,stimulusDIAN07_2IFC_2019_Jun_13_1802_1032,False,2019_Jun_13_1802,2IFC,2,DIAN07,
2IFC,66,0,66,0,13.9,-1,correct answer,0.134196299827,True,False,stimulusDIAN07_2IFC_2019_Jun_13_1802_1033,stimulusDIAN07_2IFC_2019_Jun_13_1802_1034,False,2019_Jun_13_1802,2IFC,2,DIAN07,
2IFC,67,0,67,0,13.9,-1,correct answer,0.233590799849,False,True,stimulusDIAN07_2IFC_2019_Jun_13_1802_1035,stimulusDIAN07_2IFC_2019_Jun_13_1802_1036,False,2019_Jun_13_1802,2IFC,2,DIAN07,
2IFC,68,0,68,0,13.9,-1,correct answer,0.200205900008,True,False,stimulusDIAN07_2IFC_2019_Jun_13_1802_1037,stimulusDIAN07_2IFC_2019_Jun_13_1802_1038,False,2019_Jun_13_1802,2IFC,2,DIAN07,
2IFC,69,0,69,0,13.9,-1,correct answer,0.335260299966,False,True,stimulusDIAN07_2IFC_2019_Jun_13_1802_1039,stimulusDIAN07_2IFC_2019_Jun_13_1802_1040,False,2019_Jun_13_1802,2IFC,2,DIAN07,
2IFC,70,0,70,0,13.9,-1,correct answer,0.267291299999,True,False,stimulusDIAN07_2IFC_2019_Jun_13_1802_1041,stimulusDIAN07_2IFC_2019_Jun_13_1802_1042,False,2019_Jun_13_1802,2IFC,2,DIAN07,
2IFC,71,0,71,0,13.9,-1,correct answer,0.300127500203,True,False,stimulusDIAN07_2IFC_2019_Jun_13_1802_1043,stimulusDIAN07_2IFC_2019_Jun_13_1802_1044,False,2019_Jun_13_1802,2IFC,2,DIAN07,
2IFC,72,0,72,0,13.9,-1,correct answer,0.333617199911,True,False,stimulusDIAN07_2IFC_2019_Jun_13_1802_1045,stimulusDIAN07_2IFC_2019_Jun_13_1802_1046,False,2019_Jun_13_1802,2IFC,2,DIAN07,
2IFC,73,0,73,0,13.9,-1,correct answer,0.300967800198,True,False,stimulusDIAN07_2IFC_2019_Jun_13_1802_1047,stimulusDIAN07_2IFC_2019_Jun_13_1802_1048,False,2019_Jun_13_1802,2IFC,2,DIAN07,
2IFC,74,0,74,0,13.9,-1,correct answer,0.301239100052,True,False,stimulusDIAN07_2IFC_2019_Jun_13_1802_1049,stimulusDIAN07_2IFC_2019_Jun_13_1802_1050,False,2019_Jun_13_1802,2IFC,2,DIAN07,
2IFC,0,0,0,0,8.1,-1,correct answer,0.534010000061,False,True,stimulusDIAN07_2IFC_2019_Jun_13_1802_1051,stimulusDIAN07_2IFC_2019_Jun_13_1802_1052,False,2019_Jun_13_1802,2IFC,2,DIAN07,
2IFC,1,0,1,0,8.1,-1,correct answer,0.234168299939,False,True,stimulusDIAN07_2IFC_2019_Jun_13_1802_1053,stimulusDIAN07_2IFC_2019_Jun_13_1802_1054,False,2019_Jun_13_1802,2IFC,2,DIAN07,
2IFC,2,0,2,0,8.1,-1,correct answer,0.300623900024,False,True,stimulusDIAN07_2IFC_2019_Jun_13_1802_1055,stimulusDIAN07_2IFC_2019_Jun_13_1802_1056,False,2019_Jun_13_1802,2IFC,2,DIAN07,
2IFC,3,0,3,0,8.1,-1,correct answer,0.434334899997,True,False,stimulusDIAN07_2IFC_2019_Jun_13_1802_1057,stimulusDIAN07_2IFC_2019_Jun_13_1802_1058,False,2019_Jun_13_1802,2IFC,2,DIAN07,
2IFC,4,0,4,0,8.1,-1,correct answer,0.367170199985,False,True,stimulusDIAN07_2IFC_2019_Jun_13_1802_1059,stimulusDIAN07_2IFC_2019_Jun_13_1802_1060,False,2019_Jun_13_1802,2IFC,2,DIAN07,
2IFC,5,0,5,0,8.1,-1,correct answer,0.400900600012,False,True,stimulusDIAN07_2IFC_2019_Jun_13_1802_1061,stimulusDIAN07_2IFC_2019_Jun_13_1802_1062,False,2019_Jun_13_1802,2IFC,2,DIAN07,
2IFC,6,0,6,0,8.1,-1,wrong answer,0.467392100021,False,True,stimulusDIAN07_2IFC_2019_Jun_13_1802_1063,stimulusDIAN07_2IFC_2019_Jun_13_1802_1064,False,2019_Jun_13_1802,2IFC,2,DIAN07,
2IFC,7,0,7,0,8.1,-1,correct answer,0.433899499942,False,True,stimulusDIAN07_2IFC_2019_Jun_13_1802_1065,stimulusDIAN07_2IFC_2019_Jun_13_1802_1066,False,2019_Jun_13_1802,2IFC,2,DIAN07,
2IFC,8,0,8,0,8.1,-1,wrong answer,0.332251799991,False,True,stimulusDIAN07_2IFC_2019_Jun_13_1802_1067,stimulusDIAN07_2IFC_2019_Jun_13_1802_1068,False,2019_Jun_13_1802,2IFC,2,DIAN07,
2IFC,9,0,9,0,8.1,-1,correct answer,0.500229599886,False,True,stimulusDIAN07_2IFC_2019_Jun_13_1802_1069,stimulusDIAN07_2IFC_2019_Jun_13_1802_1070,False,2019_Jun_13_1802,2IFC,2,DIAN07,
2IFC,10,0,10,0,8.1,-1,wrong answer,0.200341899879,False,True,stimulusDIAN07_2IFC_2019_Jun_13_1802_1071,stimulusDIAN07_2IFC_2019_Jun_13_1802_1072,False,2019_Jun_13_1802,2IFC,2,DIAN07,
2IFC,11,0,11,0,8.1,-1,correct answer,0.467057600152,False,True,stimulusDIAN07_2IFC_2019_Jun_13_1802_1073,stimulusDIAN07_2IFC_2019_Jun_13_1802_1074,False,2019_Jun_13_1802,2IFC,2,DIAN07,
2IFC,12,0,12,0,8.1,-1,correct answer,0.13378360006,True,False,stimulusDIAN07_2IFC_2019_Jun_13_1802_1075,stimulusDIAN07_2IFC_2019_Jun_13_1802_1076,False,2019_Jun_13_1802,2IFC,2,DIAN07,
2IFC,13,0,13,0,8.1,-1,correct answer,0.567296999972,True,False,stimulusDIAN07_2IFC_2019_Jun_13_1802_1077,stimulusDIAN07_2IFC_2019_Jun_13_1802_1078,False,2019_Jun_13_1802,2IFC,2,DIAN07,
2IFC,14,0,14,0,8.1,-1,correct answer,0.233855500119,True,False,stimulusDIAN07_2IFC_2019_Jun_13_1802_1079,stimulusDIAN07_2IFC_2019_Jun_13_1802_1080,False,2019_Jun_13_1802,2IFC,2,DIAN07,
2IFC,15,0,15,0,8.1,-1,correct answer,0.232729100157,True,False,stimulusDIAN07_2IFC_2019_Jun_13_1802_1081,stimulusDIAN07_2IFC_2019_Jun_13_1802_1082,False,2019_Jun_13_1802,2IFC,2,DIAN07,
2IFC,16,0,16,0,8.1,-1,correct answer,0.200671300059,True,False,stimulusDIAN07_2IFC_2019_Jun_13_1802_1083,stimulusDIAN07_2IFC_2019_Jun_13_1802_1084,False,2019_Jun_13_1802,2IFC,2,DIAN07,
2IFC,17,0,17,0,8.1,-1,correct answer,0.567420099862,False,True,stimulusDIAN07_2IFC_2019_Jun_13_1802_1085,stimulusDIAN07_2IFC_2019_Jun_13_1802_1086,False,2019_Jun_13_1802,2IFC,2,DIAN07,
2IFC,18,0,18,0,8.1,-1,correct answer,0.465731000062,True,False,stimulusDIAN07_2IFC_2019_Jun_13_1802_1087,stimulusDIAN07_2IFC_2019_Jun_13_1802_1088,False,2019_Jun_13_1802,2IFC,2,DIAN07,
