Task,trials.thisRepN,trials.thisTrialN,trials.thisN,trials.thisIndex,time_response_second,response_2IFCnew,response_key2Interval_2IFCnew,signal_intensity,constant Value,response,time_response,signal_on_stimuluspos1,signal_on_stimuluspos2,stimulus_name_pos1,stimulus_name_pos2,random_intensity,date,expName,session,participant,
2IFCnew,0,0,0,0,0.334968799958,3,No,11.1,-1,False Alarm,0.567396999802,False,True,stimulusHACA03_2IFCnew_2019_Jul_03_1432_1,stimulusHACA03_2IFCnew_2019_Jul_03_1432_2,False,2019_Jul_03_1432,2IFCnew,3,HACA03,
2IFCnew,1,0,1,0,0.235884100199,1,No,11.1,-1,Hit,0.533728699898,True,False,stimulusHACA03_2IFCnew_2019_Jul_03_1432_3,stimulusHACA03_2IFCnew_2019_Jul_03_1432_4,False,2019_Jul_03_1432,2IFCnew,3,HACA03,
2IFCnew,2,0,2,0,0.134442700073,1,No,11.1,-1,Hit,0.500917500118,True,False,stimulusHACA03_2IFCnew_2019_Jul_03_1432_5,stimulusHACA03_2IFCnew_2019_Jul_03_1432_6,False,2019_Jul_03_1432,2IFCnew,3,HACA03,
2IFCnew,3,0,3,0,0.534046800109,2,Yes,11.1,-1,Correct Rejection,0.900334500009,False,True,stimulusHACA03_2IFCnew_2019_Jul_03_1432_7,stimulusHACA03_2IFCnew_2019_Jul_03_1432_8,False,2019_Jul_03_1432,2IFCnew,3,HACA03,
2IFCnew,4,0,4,0,0.0986583000049,1,No,11.1,-1,Hit,0.467208799906,True,False,stimulusHACA03_2IFCnew_2019_Jul_03_1432_9,stimulusHACA03_2IFCnew_2019_Jul_03_1432_10,False,2019_Jul_03_1432,2IFCnew,3,HACA03,
2IFCnew,5,0,5,0,0.336356699932,5,Yes,11.1,-1,False Alarm,0.435718500055,False,True,stimulusHACA03_2IFCnew_2019_Jul_03_1432_11,stimulusHACA03_2IFCnew_2019_Jul_03_1432_12,False,2019_Jul_03_1432,2IFCnew,3,HACA03,
2IFCnew,6,0,6,0,0.267009999836,1,No,11.1,-1,Hit,0.467783899978,True,False,stimulusHACA03_2IFCnew_2019_Jul_03_1432_13,stimulusHACA03_2IFCnew_2019_Jul_03_1432_14,False,2019_Jul_03_1432,2IFCnew,3,HACA03,
2IFCnew,7,0,7,0,0.500386800151,1,No,11.1,-1,Hit,0.568454199936,True,False,stimulusHACA03_2IFCnew_2019_Jul_03_1432_15,stimulusHACA03_2IFCnew_2019_Jul_03_1432_16,False,2019_Jul_03_1432,2IFCnew,3,HACA03,
2IFCnew,8,0,8,0,0.200815499993,1,No,11.1,-1,Hit,0.467975999927,True,False,stimulusHACA03_2IFCnew_2019_Jul_03_1432_17,stimulusHACA03_2IFCnew_2019_Jul_03_1432_18,False,2019_Jul_03_1432,2IFCnew,3,HACA03,
2IFCnew,9,0,9,0,0.302537299925,2,Yes,11.1,-1,Correct Rejection,0.56769419997,False,True,stimulusHACA03_2IFCnew_2019_Jul_03_1432_19,stimulusHACA03_2IFCnew_2019_Jul_03_1432_20,False,2019_Jul_03_1432,2IFCnew,3,HACA03,
2IFCnew,10,0,10,0,0.10101299989,1,No,11.1,-1,Hit,0.500872100005,True,False,stimulusHACA03_2IFCnew_2019_Jul_03_1432_21,stimulusHACA03_2IFCnew_2019_Jul_03_1432_22,False,2019_Jul_03_1432,2IFCnew,3,HACA03,
2IFCnew,11,0,11,0,0.134065000108,1,No,11.1,-1,Hit,0.469026299892,True,False,stimulusHACA03_2IFCnew_2019_Jul_03_1432_23,stimulusHACA03_2IFCnew_2019_Jul_03_1432_24,False,2019_Jul_03_1432,2IFCnew,3,HACA03,
2IFCnew,12,0,12,0,0.299055400072,2,Yes,11.1,-1,Correct Rejection,0.566421099938,False,True,stimulusHACA03_2IFCnew_2019_Jul_03_1432_25,stimulusHACA03_2IFCnew_2019_Jul_03_1432_26,False,2019_Jul_03_1432,2IFCnew,3,HACA03,
2IFCnew,13,0,13,0,0.433055600151,2,Yes,11.1,-1,Correct Rejection,0.467181300046,False,True,stimulusHACA03_2IFCnew_2019_Jul_03_1432_27,stimulusHACA03_2IFCnew_2019_Jul_03_1432_28,False,2019_Jul_03_1432,2IFCnew,3,HACA03,
2IFCnew,14,0,14,0,0.0672577000223,1,No,11.1,-1,Hit,0.467133599799,True,False,stimulusHACA03_2IFCnew_2019_Jul_03_1432_29,stimulusHACA03_2IFCnew_2019_Jul_03_1432_30,False,2019_Jul_03_1432,2IFCnew,3,HACA03,
2IFCnew,15,0,15,0,0.334306299919,2,Yes,11.1,-1,Correct Rejection,0.534207799938,False,True,stimulusHACA03_2IFCnew_2019_Jul_03_1432_31,stimulusHACA03_2IFCnew_2019_Jul_03_1432_32,False,2019_Jul_03_1432,2IFCnew,3,HACA03,
2IFCnew,16,0,16,0,0.434295200044,2,Yes,11.1,-1,Correct Rejection,0.568040999817,False,True,stimulusHACA03_2IFCnew_2019_Jul_03_1432_33,stimulusHACA03_2IFCnew_2019_Jul_03_1432_34,False,2019_Jul_03_1432,2IFCnew,3,HACA03,
2IFCnew,17,0,17,0,0.268309400184,2,Yes,11.1,-1,Correct Rejection,0.467055100016,False,True,stimulusHACA03_2IFCnew_2019_Jul_03_1432_35,stimulusHACA03_2IFCnew_2019_Jul_03_1432_36,False,2019_Jul_03_1432,2IFCnew,3,HACA03,
2IFCnew,18,0,18,0,0.100547999842,1,No,11.1,-1,Hit,0.49889869988,True,False,stimulusHACA03_2IFCnew_2019_Jul_03_1432_37,stimulusHACA03_2IFCnew_2019_Jul_03_1432_38,False,2019_Jul_03_1432,2IFCnew,3,HACA03,
2IFCnew,19,0,19,0,0.367110099876,2,Yes,11.1,-1,Correct Rejection,0.566344900057,False,True,stimulusHACA03_2IFCnew_2019_Jul_03_1432_39,stimulusHACA03_2IFCnew_2019_Jul_03_1432_40,False,2019_Jul_03_1432,2IFCnew,3,HACA03,
2IFCnew,20,0,20,0,0.434473000001,2,Yes,11.1,-1,Correct Rejection,0.534410499968,False,True,stimulusHACA03_2IFCnew_2019_Jul_03_1432_41,stimulusHACA03_2IFCnew_2019_Jul_03_1432_42,False,2019_Jul_03_1432,2IFCnew,3,HACA03,
2IFCnew,21,0,21,0,0.0670087998733,1,No,11.1,-1,Hit,0.467533000046,True,False,stimulusHACA03_2IFCnew_2019_Jul_03_1432_43,stimulusHACA03_2IFCnew_2019_Jul_03_1432_44,False,2019_Jul_03_1432,2IFCnew,3,HACA03,
2IFCnew,22,0,22,0,0.0330364999827,1,No,11.1,-1,Hit,0.467387000099,True,False,stimulusHACA03_2IFCnew_2019_Jul_03_1432_45,stimulusHACA03_2IFCnew_2019_Jul_03_1432_46,False,2019_Jul_03_1432,2IFCnew,3,HACA03,
2IFCnew,23,0,23,0,-1,1,No,11.1,-1,Hit,0.400380200008,True,False,stimulusHACA03_2IFCnew_2019_Jul_03_1432_47,stimulusHACA03_2IFCnew_2019_Jul_03_1432_48,False,2019_Jul_03_1432,2IFCnew,3,HACA03,
2IFCnew,24,0,24,0,0.467623000033,2,Yes,11.1,-1,Correct Rejection,0.73498570011,False,True,stimulusHACA03_2IFCnew_2019_Jul_03_1432_49,stimulusHACA03_2IFCnew_2019_Jul_03_1432_50,False,2019_Jul_03_1432,2IFCnew,3,HACA03,
2IFCnew,25,0,25,0,0.433988200035,2,Yes,11.1,-1,Correct Rejection,0.533613699954,False,True,stimulusHACA03_2IFCnew_2019_Jul_03_1432_51,stimulusHACA03_2IFCnew_2019_Jul_03_1432_52,False,2019_Jul_03_1432,2IFCnew,3,HACA03,
2IFCnew,26,0,26,0,0.467142299982,2,Yes,11.1,-1,Correct Rejection,0.60002100002,False,True,stimulusHACA03_2IFCnew_2019_Jul_03_1432_53,stimulusHACA03_2IFCnew_2019_Jul_03_1432_54,False,2019_Jul_03_1432,2IFCnew,3,HACA03,
2IFCnew,27,0,27,0,0.167908999836,1,No,11.1,-1,Hit,0.49986370001,True,False,stimulusHACA03_2IFCnew_2019_Jul_03_1432_55,stimulusHACA03_2IFCnew_2019_Jul_03_1432_56,False,2019_Jul_03_1432,2IFCnew,3,HACA03,
2IFCnew,28,0,28,0,0.100294600008,1,No,11.1,-1,Hit,0.467596699949,True,False,stimulusHACA03_2IFCnew_2019_Jul_03_1432_57,stimulusHACA03_2IFCnew_2019_Jul_03_1432_58,False,2019_Jul_03_1432,2IFCnew,3,HACA03,
2IFCnew,29,0,29,0,0.133764500031,2,Yes,11.1,-1,Correct Rejection,0.467395700049,False,True,stimulusHACA03_2IFCnew_2019_Jul_03_1432_59,stimulusHACA03_2IFCnew_2019_Jul_03_1432_60,False,2019_Jul_03_1432,2IFCnew,3,HACA03,
2IFCnew,30,0,30,0,0.40009949985,2,Yes,11.1,-1,Correct Rejection,0.466255500214,False,True,stimulusHACA03_2IFCnew_2019_Jul_03_1432_61,stimulusHACA03_2IFCnew_2019_Jul_03_1432_62,False,2019_Jul_03_1432,2IFCnew,3,HACA03,
2IFCnew,31,0,31,0,0.0669112000614,1,No,11.1,-1,Hit,0.501503499923,True,False,stimulusHACA03_2IFCnew_2019_Jul_03_1432_63,stimulusHACA03_2IFCnew_2019_Jul_03_1432_64,False,2019_Jul_03_1432,2IFCnew,3,HACA03,
2IFCnew,32,0,32,0,0.4009143,2,Yes,11.1,-1,Correct Rejection,0.533458200051,False,True,stimulusHACA03_2IFCnew_2019_Jul_03_1432_65,stimulusHACA03_2IFCnew_2019_Jul_03_1432_66,False,2019_Jul_03_1432,2IFCnew,3,HACA03,
2IFCnew,33,0,33,0,0.167994200019,1,No,11.1,-1,Hit,0.534992199857,True,False,stimulusHACA03_2IFCnew_2019_Jul_03_1432_67,stimulusHACA03_2IFCnew_2019_Jul_03_1432_68,False,2019_Jul_03_1432,2IFCnew,3,HACA03,
2IFCnew,34,0,34,0,0.467996099964,2,Yes,11.1,-1,Correct Rejection,0.533934599953,False,True,stimulusHACA03_2IFCnew_2019_Jul_03_1432_69,stimulusHACA03_2IFCnew_2019_Jul_03_1432_70,False,2019_Jul_03_1432,2IFCnew,3,HACA03,
2IFCnew,35,0,35,0,0.133804500103,1,No,11.1,-1,Hit,0.501623699907,True,False,stimulusHACA03_2IFCnew_2019_Jul_03_1432_71,stimulusHACA03_2IFCnew_2019_Jul_03_1432_72,False,2019_Jul_03_1432,2IFCnew,3,HACA03,
2IFCnew,36,0,36,0,0.401909200009,2,Yes,11.1,-1,Correct Rejection,0.568273600191,False,True,stimulusHACA03_2IFCnew_2019_Jul_03_1432_73,stimulusHACA03_2IFCnew_2019_Jul_03_1432_74,False,2019_Jul_03_1432,2IFCnew,3,HACA03,
2IFCnew,37,0,37,0,0.56775240018,6,No,11.1,-1,Miss,0.46734949993,True,False,stimulusHACA03_2IFCnew_2019_Jul_03_1432_75,stimulusHACA03_2IFCnew_2019_Jul_03_1432_76,False,2019_Jul_03_1432,2IFCnew,3,HACA03,
2IFCnew,38,0,38,0,0.134622399928,1,No,11.1,-1,Hit,0.468646600144,True,False,stimulusHACA03_2IFCnew_2019_Jul_03_1432_77,stimulusHACA03_2IFCnew_2019_Jul_03_1432_78,False,2019_Jul_03_1432,2IFCnew,3,HACA03,
2IFCnew,39,0,39,0,0.0666814998258,1,No,11.1,-1,Hit,0.434831599938,True,False,stimulusHACA03_2IFCnew_2019_Jul_03_1432_79,stimulusHACA03_2IFCnew_2019_Jul_03_1432_80,False,2019_Jul_03_1432,2IFCnew,3,HACA03,
2IFCnew,40,0,40,0,0.400600099936,2,Yes,11.1,-1,Correct Rejection,0.567245800048,False,True,stimulusHACA03_2IFCnew_2019_Jul_03_1432_81,stimulusHACA03_2IFCnew_2019_Jul_03_1432_82,False,2019_Jul_03_1432,2IFCnew,3,HACA03,
2IFCnew,41,0,41,0,0.43421029998,2,Yes,11.1,-1,Correct Rejection,0.468848400051,False,True,stimulusHACA03_2IFCnew_2019_Jul_03_1432_83,stimulusHACA03_2IFCnew_2019_Jul_03_1432_84,False,2019_Jul_03_1432,2IFCnew,3,HACA03,
2IFCnew,42,0,42,0,0.266935499851,1,No,11.1,-1,Hit,0.633338300046,True,False,stimulusHACA03_2IFCnew_2019_Jul_03_1432_85,stimulusHACA03_2IFCnew_2019_Jul_03_1432_86,False,2019_Jul_03_1432,2IFCnew,3,HACA03,
2IFCnew,43,0,43,0,0.100264200009,1,No,11.1,-1,Hit,0.433979999973,True,False,stimulusHACA03_2IFCnew_2019_Jul_03_1432_87,stimulusHACA03_2IFCnew_2019_Jul_03_1432_88,False,2019_Jul_03_1432,2IFCnew,3,HACA03,
2IFCnew,44,0,44,0,0.0672311999369,1,No,11.1,-1,Hit,0.434547899989,True,False,stimulusHACA03_2IFCnew_2019_Jul_03_1432_89,stimulusHACA03_2IFCnew_2019_Jul_03_1432_90,False,2019_Jul_03_1432,2IFCnew,3,HACA03,
2IFCnew,45,0,45,0,0.401732300175,2,Yes,11.1,-1,Correct Rejection,0.467833400005,False,True,stimulusHACA03_2IFCnew_2019_Jul_03_1432_91,stimulusHACA03_2IFCnew_2019_Jul_03_1432_92,False,2019_Jul_03_1432,2IFCnew,3,HACA03,
2IFCnew,46,0,46,0,0.434048300143,2,Yes,11.1,-1,Correct Rejection,0.467498400016,False,True,stimulusHACA03_2IFCnew_2019_Jul_03_1432_93,stimulusHACA03_2IFCnew_2019_Jul_03_1432_94,False,2019_Jul_03_1432,2IFCnew,3,HACA03,
2IFCnew,47,0,47,0,0.167347299866,1,No,11.1,-1,Hit,0.533544000005,True,False,stimulusHACA03_2IFCnew_2019_Jul_03_1432_95,stimulusHACA03_2IFCnew_2019_Jul_03_1432_96,False,2019_Jul_03_1432,2IFCnew,3,HACA03,
2IFCnew,48,0,48,0,-1,1,No,11.1,-1,Hit,0.400704900036,True,False,stimulusHACA03_2IFCnew_2019_Jul_03_1432_97,stimulusHACA03_2IFCnew_2019_Jul_03_1432_98,False,2019_Jul_03_1432,2IFCnew,3,HACA03,
2IFCnew,49,0,49,0,0.333559799939,1,No,11.1,-1,Hit,0.433699099813,True,False,stimulusHACA03_2IFCnew_2019_Jul_03_1432_99,stimulusHACA03_2IFCnew_2019_Jul_03_1432_100,False,2019_Jul_03_1432,2IFCnew,3,HACA03,
2IFCnew,50,0,50,0,0.466730899876,2,Yes,11.1,-1,Correct Rejection,0.73491670005,False,True,stimulusHACA03_2IFCnew_2019_Jul_03_1432_101,stimulusHACA03_2IFCnew_2019_Jul_03_1432_102,False,2019_Jul_03_1432,2IFCnew,3,HACA03,
2IFCnew,51,0,51,0,0.0998915999662,1,No,11.1,-1,Hit,0.434674199903,True,False,stimulusHACA03_2IFCnew_2019_Jul_03_1432_103,stimulusHACA03_2IFCnew_2019_Jul_03_1432_104,False,2019_Jul_03_1432,2IFCnew,3,HACA03,
2IFCnew,52,0,52,0,0.399722999893,2,Yes,11.1,-1,Correct Rejection,0.533686700044,False,True,stimulusHACA03_2IFCnew_2019_Jul_03_1432_105,stimulusHACA03_2IFCnew_2019_Jul_03_1432_106,False,2019_Jul_03_1432,2IFCnew,3,HACA03,
2IFCnew,53,0,53,0,0.234016399831,1,No,11.1,-1,Hit,0.499842599966,True,False,stimulusHACA03_2IFCnew_2019_Jul_03_1432_107,stimulusHACA03_2IFCnew_2019_Jul_03_1432_108,False,2019_Jul_03_1432,2IFCnew,3,HACA03,
2IFCnew,54,0,54,0,0.333979899995,2,Yes,11.1,-1,Correct Rejection,0.467343999771,False,True,stimulusHACA03_2IFCnew_2019_Jul_03_1432_109,stimulusHACA03_2IFCnew_2019_Jul_03_1432_110,False,2019_Jul_03_1432,2IFCnew,3,HACA03,
2IFCnew,55,0,55,0,0.3666197001,2,Yes,11.1,-1,Correct Rejection,0.434378799982,False,True,stimulusHACA03_2IFCnew_2019_Jul_03_1432_111,stimulusHACA03_2IFCnew_2019_Jul_03_1432_112,False,2019_Jul_03_1432,2IFCnew,3,HACA03,
2IFCnew,56,0,56,0,0.401292799972,2,Yes,11.1,-1,Correct Rejection,0.433691600105,False,True,stimulusHACA03_2IFCnew_2019_Jul_03_1432_113,stimulusHACA03_2IFCnew_2019_Jul_03_1432_114,False,2019_Jul_03_1432,2IFCnew,3,HACA03,
2IFCnew,57,0,57,0,0.333512600046,1,No,11.1,-1,Hit,0.567765299929,True,False,stimulusHACA03_2IFCnew_2019_Jul_03_1432_115,stimulusHACA03_2IFCnew_2019_Jul_03_1432_116,False,2019_Jul_03_1432,2IFCnew,3,HACA03,
2IFCnew,58,0,58,0,0.300745100016,2,Yes,11.1,-1,Correct Rejection,0.500678200042,False,True,stimulusHACA03_2IFCnew_2019_Jul_03_1432_117,stimulusHACA03_2IFCnew_2019_Jul_03_1432_118,False,2019_Jul_03_1432,2IFCnew,3,HACA03,
2IFCnew,59,0,59,0,0.40263360017,2,Yes,11.1,-1,Correct Rejection,0.467604300007,False,True,stimulusHACA03_2IFCnew_2019_Jul_03_1432_119,stimulusHACA03_2IFCnew_2019_Jul_03_1432_120,False,2019_Jul_03_1432,2IFCnew,3,HACA03,
2IFCnew,60,0,60,0,0.131565599935,1,No,11.1,-1,Hit,0.466888100142,True,False,stimulusHACA03_2IFCnew_2019_Jul_03_1432_121,stimulusHACA03_2IFCnew_2019_Jul_03_1432_122,False,2019_Jul_03_1432,2IFCnew,3,HACA03,
2IFCnew,61,0,61,0,0.234601400094,2,Yes,11.1,-1,Correct Rejection,0.502126399893,False,True,stimulusHACA03_2IFCnew_2019_Jul_03_1432_123,stimulusHACA03_2IFCnew_2019_Jul_03_1432_124,False,2019_Jul_03_1432,2IFCnew,3,HACA03,
2IFCnew,62,0,62,0,0.367599100107,2,Yes,11.1,-1,Correct Rejection,0.465879499912,False,True,stimulusHACA03_2IFCnew_2019_Jul_03_1432_125,stimulusHACA03_2IFCnew_2019_Jul_03_1432_126,False,2019_Jul_03_1432,2IFCnew,3,HACA03,
2IFCnew,63,0,63,0,0.166864499915,1,No,11.1,-1,Hit,0.501279799966,True,False,stimulusHACA03_2IFCnew_2019_Jul_03_1432_127,stimulusHACA03_2IFCnew_2019_Jul_03_1432_128,False,2019_Jul_03_1432,2IFCnew,3,HACA03,
2IFCnew,64,0,64,0,0.133848800091,1,No,11.1,-1,Hit,0.467645300087,True,False,stimulusHACA03_2IFCnew_2019_Jul_03_1432_129,stimulusHACA03_2IFCnew_2019_Jul_03_1432_130,False,2019_Jul_03_1432,2IFCnew,3,HACA03,
2IFCnew,65,0,65,0,0.233644400025,1,No,11.1,-1,Hit,0.434109400027,True,False,stimulusHACA03_2IFCnew_2019_Jul_03_1432_131,stimulusHACA03_2IFCnew_2019_Jul_03_1432_132,False,2019_Jul_03_1432,2IFCnew,3,HACA03,
2IFCnew,66,0,66,0,0.133052999852,1,No,11.1,-1,Hit,0.534868499963,True,False,stimulusHACA03_2IFCnew_2019_Jul_03_1432_133,stimulusHACA03_2IFCnew_2019_Jul_03_1432_134,False,2019_Jul_03_1432,2IFCnew,3,HACA03,
2IFCnew,67,0,67,0,0.367147200042,2,Yes,11.1,-1,Correct Rejection,0.466902000131,False,True,stimulusHACA03_2IFCnew_2019_Jul_03_1432_135,stimulusHACA03_2IFCnew_2019_Jul_03_1432_136,False,2019_Jul_03_1432,2IFCnew,3,HACA03,
2IFCnew,68,0,68,0,0.0667220000178,1,No,11.1,-1,Hit,0.501089600148,True,False,stimulusHACA03_2IFCnew_2019_Jul_03_1432_137,stimulusHACA03_2IFCnew_2019_Jul_03_1432_138,False,2019_Jul_03_1432,2IFCnew,3,HACA03,
2IFCnew,69,0,69,0,0.100866500055,1,No,11.1,-1,Hit,0.40062950016,True,False,stimulusHACA03_2IFCnew_2019_Jul_03_1432_139,stimulusHACA03_2IFCnew_2019_Jul_03_1432_140,False,2019_Jul_03_1432,2IFCnew,3,HACA03,
2IFCnew,70,0,70,0,0.0671372001525,1,No,11.1,-1,Hit,0.467621500138,True,False,stimulusHACA03_2IFCnew_2019_Jul_03_1432_141,stimulusHACA03_2IFCnew_2019_Jul_03_1432_142,False,2019_Jul_03_1432,2IFCnew,3,HACA03,
2IFCnew,71,0,71,0,0.234033599962,1,No,11.1,-1,Hit,0.468149899971,True,False,stimulusHACA03_2IFCnew_2019_Jul_03_1432_143,stimulusHACA03_2IFCnew_2019_Jul_03_1432_144,False,2019_Jul_03_1432,2IFCnew,3,HACA03,
2IFCnew,72,0,72,0,0.433921799995,2,Yes,11.1,-1,Correct Rejection,0.633444100153,False,True,stimulusHACA03_2IFCnew_2019_Jul_03_1432_145,stimulusHACA03_2IFCnew_2019_Jul_03_1432_146,False,2019_Jul_03_1432,2IFCnew,3,HACA03,
2IFCnew,73,0,73,0,0.333930099849,2,Yes,11.1,-1,Correct Rejection,0.500260500005,False,True,stimulusHACA03_2IFCnew_2019_Jul_03_1432_147,stimulusHACA03_2IFCnew_2019_Jul_03_1432_148,False,2019_Jul_03_1432,2IFCnew,3,HACA03,
2IFCnew,74,0,74,0,0.067420499865,1,No,11.1,-1,Hit,0.46733509982,True,False,stimulusHACA03_2IFCnew_2019_Jul_03_1432_149,stimulusHACA03_2IFCnew_2019_Jul_03_1432_150,False,2019_Jul_03_1432,2IFCnew,3,HACA03,
2IFCnew,0,0,0,0,0.400329899974,5,Yes,9.8,-1,False Alarm,0.434376900084,False,True,stimulusHACA03_2IFCnew_2019_Jul_03_1432_151,stimulusHACA03_2IFCnew_2019_Jul_03_1432_152,False,2019_Jul_03_1432,2IFCnew,3,HACA03,
2IFCnew,1,0,1,0,0.29961830005,5,Yes,9.8,-1,False Alarm,0.400561899878,False,True,stimulusHACA03_2IFCnew_2019_Jul_03_1432_153,stimulusHACA03_2IFCnew_2019_Jul_03_1432_154,False,2019_Jul_03_1432,2IFCnew,3,HACA03,
2IFCnew,2,0,2,0,0.401275400072,1,No,9.8,-1,Hit,0.333853600081,True,False,stimulusHACA03_2IFCnew_2019_Jul_03_1432_155,stimulusHACA03_2IFCnew_2019_Jul_03_1432_156,False,2019_Jul_03_1432,2IFCnew,3,HACA03,
2IFCnew,3,0,3,0,0.400229900144,2,Yes,9.8,-1,Correct Rejection,0.568661599886,False,True,stimulusHACA03_2IFCnew_2019_Jul_03_1432_157,stimulusHACA03_2IFCnew_2019_Jul_03_1432_158,False,2019_Jul_03_1432,2IFCnew,3,HACA03,
2IFCnew,4,0,4,0,0.433435100131,2,Yes,9.8,-1,Correct Rejection,0.534025300061,False,True,stimulusHACA03_2IFCnew_2019_Jul_03_1432_159,stimulusHACA03_2IFCnew_2019_Jul_03_1432_160,False,2019_Jul_03_1432,2IFCnew,3,HACA03,
2IFCnew,5,0,5,0,0.166138899978,1,No,9.8,-1,Hit,0.466847399948,True,False,stimulusHACA03_2IFCnew_2019_Jul_03_1432_161,stimulusHACA03_2IFCnew_2019_Jul_03_1432_162,False,2019_Jul_03_1432,2IFCnew,3,HACA03,
2IFCnew,6,0,6,0,0.367536599981,2,Yes,9.8,-1,Correct Rejection,0.499875599984,False,True,stimulusHACA03_2IFCnew_2019_Jul_03_1432_163,stimulusHACA03_2IFCnew_2019_Jul_03_1432_164,False,2019_Jul_03_1432,2IFCnew,3,HACA03,
2IFCnew,7,0,7,0,0.367649900028,2,Yes,9.8,-1,Correct Rejection,0.434313599952,False,True,stimulusHACA03_2IFCnew_2019_Jul_03_1432_165,stimulusHACA03_2IFCnew_2019_Jul_03_1432_166,False,2019_Jul_03_1432,2IFCnew,3,HACA03,
2IFCnew,8,0,8,0,0.367171199992,2,Yes,9.8,-1,Correct Rejection,0.433057599934,False,True,stimulusHACA03_2IFCnew_2019_Jul_03_1432_167,stimulusHACA03_2IFCnew_2019_Jul_03_1432_168,False,2019_Jul_03_1432,2IFCnew,3,HACA03,
2IFCnew,9,0,9,0,0.267310300143,1,No,9.8,-1,Hit,0.534194299951,True,False,stimulusHACA03_2IFCnew_2019_Jul_03_1432_169,stimulusHACA03_2IFCnew_2019_Jul_03_1432_170,False,2019_Jul_03_1432,2IFCnew,3,HACA03,
2IFCnew,10,0,10,0,0.16697339993,1,No,9.8,-1,Hit,0.433903200086,True,False,stimulusHACA03_2IFCnew_2019_Jul_03_1432_171,stimulusHACA03_2IFCnew_2019_Jul_03_1432_172,False,2019_Jul_03_1432,2IFCnew,3,HACA03,
2IFCnew,11,0,11,0,0.0330943998415,1,No,9.8,-1,Hit,0.400395599892,True,False,stimulusHACA03_2IFCnew_2019_Jul_03_1432_173,stimulusHACA03_2IFCnew_2019_Jul_03_1432_174,False,2019_Jul_03_1432,2IFCnew,3,HACA03,
2IFCnew,12,0,12,0,-1,1,No,9.8,-1,Hit,0.435659599956,True,False,stimulusHACA03_2IFCnew_2019_Jul_03_1432_175,stimulusHACA03_2IFCnew_2019_Jul_03_1432_176,False,2019_Jul_03_1432,2IFCnew,3,HACA03,
2IFCnew,13,0,13,0,0.167065500049,5,Yes,9.8,-1,False Alarm,0.433875699993,False,True,stimulusHACA03_2IFCnew_2019_Jul_03_1432_177,stimulusHACA03_2IFCnew_2019_Jul_03_1432_178,False,2019_Jul_03_1432,2IFCnew,3,HACA03,
2IFCnew,14,0,14,0,0.134288900066,1,No,9.8,-1,Hit,0.398903700057,True,False,stimulusHACA03_2IFCnew_2019_Jul_03_1432_179,stimulusHACA03_2IFCnew_2019_Jul_03_1432_180,False,2019_Jul_03_1432,2IFCnew,3,HACA03,
2IFCnew,15,0,15,0,0.201147799846,2,Yes,9.8,-1,Correct Rejection,0.566583399894,False,True,stimulusHACA03_2IFCnew_2019_Jul_03_1432_181,stimulusHACA03_2IFCnew_2019_Jul_03_1432_182,False,2019_Jul_03_1432,2IFCnew,3,HACA03,
2IFCnew,16,0,16,0,0.466968800174,8,No,9.8,-1,Correct Rejection,0.500376399839,False,True,stimulusHACA03_2IFCnew_2019_Jul_03_1432_183,stimulusHACA03_2IFCnew_2019_Jul_03_1432_184,False,2019_Jul_03_1432,2IFCnew,3,HACA03,
2IFCnew,17,0,17,0,0.368307000026,2,Yes,9.8,-1,Correct Rejection,0.53421860002,False,True,stimulusHACA03_2IFCnew_2019_Jul_03_1432_185,stimulusHACA03_2IFCnew_2019_Jul_03_1432_186,False,2019_Jul_03_1432,2IFCnew,3,HACA03,
2IFCnew,18,0,18,0,0.236217600061,1,No,9.8,-1,Hit,0.568068800028,True,False,stimulusHACA03_2IFCnew_2019_Jul_03_1432_187,stimulusHACA03_2IFCnew_2019_Jul_03_1432_188,False,2019_Jul_03_1432,2IFCnew,3,HACA03,
2IFCnew,19,0,19,0,0.167501599994,2,Yes,9.8,-1,Correct Rejection,0.500796099892,False,True,stimulusHACA03_2IFCnew_2019_Jul_03_1432_189,stimulusHACA03_2IFCnew_2019_Jul_03_1432_190,False,2019_Jul_03_1432,2IFCnew,3,HACA03,
2IFCnew,20,0,20,0,0.200610199943,1,No,9.8,-1,Hit,0.601114200195,True,False,stimulusHACA03_2IFCnew_2019_Jul_03_1432_191,stimulusHACA03_2IFCnew_2019_Jul_03_1432_192,False,2019_Jul_03_1432,2IFCnew,3,HACA03,
2IFCnew,21,0,21,0,0.0664698998444,1,No,9.8,-1,Hit,0.40052939998,True,False,stimulusHACA03_2IFCnew_2019_Jul_03_1432_193,stimulusHACA03_2IFCnew_2019_Jul_03_1432_194,False,2019_Jul_03_1432,2IFCnew,3,HACA03,
2IFCnew,22,0,22,0,-1,1,No,9.8,-1,Hit,0.43358479999,True,False,stimulusHACA03_2IFCnew_2019_Jul_03_1432_195,stimulusHACA03_2IFCnew_2019_Jul_03_1432_196,False,2019_Jul_03_1432,2IFCnew,3,HACA03,
2IFCnew,23,0,23,0,0.0676514001098,1,No,9.8,-1,Hit,0.367719599977,True,False,stimulusHACA03_2IFCnew_2019_Jul_03_1432_197,stimulusHACA03_2IFCnew_2019_Jul_03_1432_198,False,2019_Jul_03_1432,2IFCnew,3,HACA03,
2IFCnew,24,0,24,0,0.167126999935,2,Yes,9.8,-1,Correct Rejection,0.534748200094,False,True,stimulusHACA03_2IFCnew_2019_Jul_03_1432_199,stimulusHACA03_2IFCnew_2019_Jul_03_1432_200,False,2019_Jul_03_1432,2IFCnew,3,HACA03,
2IFCnew,25,0,25,0,0.133380499901,1,No,9.8,-1,Hit,0.467967400094,True,False,stimulusHACA03_2IFCnew_2019_Jul_03_1432_201,stimulusHACA03_2IFCnew_2019_Jul_03_1432_202,False,2019_Jul_03_1432,2IFCnew,3,HACA03,
2IFCnew,26,0,26,0,0.234363599913,2,Yes,9.8,-1,Correct Rejection,0.567477400182,False,True,stimulusHACA03_2IFCnew_2019_Jul_03_1432_203,stimulusHACA03_2IFCnew_2019_Jul_03_1432_204,False,2019_Jul_03_1432,2IFCnew,3,HACA03,
2IFCnew,27,0,27,0,0.167163599981,2,Yes,9.8,-1,Correct Rejection,0.467205499997,False,True,stimulusHACA03_2IFCnew_2019_Jul_03_1432_205,stimulusHACA03_2IFCnew_2019_Jul_03_1432_206,False,2019_Jul_03_1432,2IFCnew,3,HACA03,
2IFCnew,28,0,28,0,0.534635199932,2,Yes,9.8,-1,Correct Rejection,0.467094000196,False,True,stimulusHACA03_2IFCnew_2019_Jul_03_1432_207,stimulusHACA03_2IFCnew_2019_Jul_03_1432_208,False,2019_Jul_03_1432,2IFCnew,3,HACA03,
2IFCnew,29,0,29,0,0.0343943000771,1,No,9.8,-1,Hit,0.467364399927,True,False,stimulusHACA03_2IFCnew_2019_Jul_03_1432_209,stimulusHACA03_2IFCnew_2019_Jul_03_1432_210,False,2019_Jul_03_1432,2IFCnew,3,HACA03,
2IFCnew,30,0,30,0,0.400321699912,2,Yes,9.8,-1,Correct Rejection,0.500951600028,False,True,stimulusHACA03_2IFCnew_2019_Jul_03_1432_211,stimulusHACA03_2IFCnew_2019_Jul_03_1432_212,False,2019_Jul_03_1432,2IFCnew,3,HACA03,
2IFCnew,31,0,31,0,0.467470000032,2,Yes,9.8,-1,Correct Rejection,0.467208799906,False,True,stimulusHACA03_2IFCnew_2019_Jul_03_1432_213,stimulusHACA03_2IFCnew_2019_Jul_03_1432_214,False,2019_Jul_03_1432,2IFCnew,3,HACA03,
2IFCnew,32,0,32,0,0.198341399897,2,Yes,9.8,-1,Correct Rejection,0.502556699794,False,True,stimulusHACA03_2IFCnew_2019_Jul_03_1432_215,stimulusHACA03_2IFCnew_2019_Jul_03_1432_216,False,2019_Jul_03_1432,2IFCnew,3,HACA03,
2IFCnew,33,0,33,0,0.167081300169,1,No,9.8,-1,Hit,0.534946899861,True,False,stimulusHACA03_2IFCnew_2019_Jul_03_1432_217,stimulusHACA03_2IFCnew_2019_Jul_03_1432_218,False,2019_Jul_03_1432,2IFCnew,3,HACA03,
2IFCnew,34,0,34,0,0.23393690004,2,Yes,9.8,-1,Correct Rejection,0.533974499907,False,True,stimulusHACA03_2IFCnew_2019_Jul_03_1432_219,stimulusHACA03_2IFCnew_2019_Jul_03_1432_220,False,2019_Jul_03_1432,2IFCnew,3,HACA03,
2IFCnew,35,0,35,0,0.233972500078,2,Yes,9.8,-1,Correct Rejection,0.467771399999,False,True,stimulusHACA03_2IFCnew_2019_Jul_03_1432_221,stimulusHACA03_2IFCnew_2019_Jul_03_1432_222,False,2019_Jul_03_1432,2IFCnew,3,HACA03,
2IFCnew,36,0,36,0,0.467073699925,2,Yes,9.8,-1,Correct Rejection,0.501429300057,False,True,stimulusHACA03_2IFCnew_2019_Jul_03_1432_223,stimulusHACA03_2IFCnew_2019_Jul_03_1432_224,False,2019_Jul_03_1432,2IFCnew,3,HACA03,
2IFCnew,37,0,37,0,0.166592600057,1,No,9.8,-1,Hit,0.501561800018,True,False,stimulusHACA03_2IFCnew_2019_Jul_03_1432_225,stimulusHACA03_2IFCnew_2019_Jul_03_1432_226,False,2019_Jul_03_1432,2IFCnew,3,HACA03,
2IFCnew,38,0,38,0,0.199622699991,1,No,9.8,-1,Hit,0.468004799914,True,False,stimulusHACA03_2IFCnew_2019_Jul_03_1432_227,stimulusHACA03_2IFCnew_2019_Jul_03_1432_228,False,2019_Jul_03_1432,2IFCnew,3,HACA03,
2IFCnew,39,0,39,0,0.333373999922,1,No,9.8,-1,Hit,0.534183399985,True,False,stimulusHACA03_2IFCnew_2019_Jul_03_1432_229,stimulusHACA03_2IFCnew_2019_Jul_03_1432_230,False,2019_Jul_03_1432,2IFCnew,3,HACA03,
2IFCnew,40,0,40,0,0.0335733999964,1,No,9.8,-1,Hit,0.466306099901,True,False,stimulusHACA03_2IFCnew_2019_Jul_03_1432_231,stimulusHACA03_2IFCnew_2019_Jul_03_1432_232,False,2019_Jul_03_1432,2IFCnew,3,HACA03,
2IFCnew,41,0,41,0,0.100016100099,1,No,9.8,-1,Hit,0.466949000023,True,False,stimulusHACA03_2IFCnew_2019_Jul_03_1432_233,stimulusHACA03_2IFCnew_2019_Jul_03_1432_234,False,2019_Jul_03_1432,2IFCnew,3,HACA03,
2IFCnew,42,0,42,0,-1,1,No,9.8,-1,Hit,0.367551499978,True,False,stimulusHACA03_2IFCnew_2019_Jul_03_1432_235,stimulusHACA03_2IFCnew_2019_Jul_03_1432_236,False,2019_Jul_03_1432,2IFCnew,3,HACA03,
2IFCnew,43,0,43,0,0.032958699856,1,No,9.8,-1,Hit,0.366598000051,True,False,stimulusHACA03_2IFCnew_2019_Jul_03_1432_237,stimulusHACA03_2IFCnew_2019_Jul_03_1432_238,False,2019_Jul_03_1432,2IFCnew,3,HACA03,
2IFCnew,44,0,44,0,0.434216899797,2,Yes,9.8,-1,Correct Rejection,0.600940000033,False,True,stimulusHACA03_2IFCnew_2019_Jul_03_1432_239,stimulusHACA03_2IFCnew_2019_Jul_03_1432_240,False,2019_Jul_03_1432,2IFCnew,3,HACA03,
2IFCnew,45,0,45,0,0.334211900132,2,Yes,9.8,-1,Correct Rejection,0.46782479994,False,True,stimulusHACA03_2IFCnew_2019_Jul_03_1432_241,stimulusHACA03_2IFCnew_2019_Jul_03_1432_242,False,2019_Jul_03_1432,2IFCnew,3,HACA03,
2IFCnew,46,0,46,0,0.0994790000841,1,No,9.8,-1,Hit,0.500703699887,True,False,stimulusHACA03_2IFCnew_2019_Jul_03_1432_243,stimulusHACA03_2IFCnew_2019_Jul_03_1432_244,False,2019_Jul_03_1432,2IFCnew,3,HACA03,
2IFCnew,47,0,47,0,0.268354299944,1,No,9.8,-1,Hit,0.53343489999,True,False,stimulusHACA03_2IFCnew_2019_Jul_03_1432_245,stimulusHACA03_2IFCnew_2019_Jul_03_1432_246,False,2019_Jul_03_1432,2IFCnew,3,HACA03,
2IFCnew,48,0,48,0,0.201011300087,1,No,9.8,-1,Hit,0.600783600006,True,False,stimulusHACA03_2IFCnew_2019_Jul_03_1432_247,stimulusHACA03_2IFCnew_2019_Jul_03_1432_248,False,2019_Jul_03_1432,2IFCnew,3,HACA03,
2IFCnew,49,0,49,0,0.734315800015,2,Yes,9.8,-1,Correct Rejection,0.566649500048,False,True,stimulusHACA03_2IFCnew_2019_Jul_03_1432_249,stimulusHACA03_2IFCnew_2019_Jul_03_1432_250,False,2019_Jul_03_1432,2IFCnew,3,HACA03,
2IFCnew,50,0,50,0,0.333454200067,1,No,9.8,-1,Hit,0.466314099962,True,False,stimulusHACA03_2IFCnew_2019_Jul_03_1432_251,stimulusHACA03_2IFCnew_2019_Jul_03_1432_252,False,2019_Jul_03_1432,2IFCnew,3,HACA03,
2IFCnew,51,0,51,0,0.0332024998497,1,No,9.8,-1,Hit,0.434810300125,True,False,stimulusHACA03_2IFCnew_2019_Jul_03_1432_253,stimulusHACA03_2IFCnew_2019_Jul_03_1432_254,False,2019_Jul_03_1432,2IFCnew,3,HACA03,
2IFCnew,52,0,52,0,0.300335000036,2,Yes,9.8,-1,Correct Rejection,0.53356549982,False,True,stimulusHACA03_2IFCnew_2019_Jul_03_1432_255,stimulusHACA03_2IFCnew_2019_Jul_03_1432_256,False,2019_Jul_03_1432,2IFCnew,3,HACA03,
2IFCnew,53,0,53,0,0.100373200141,1,No,9.8,-1,Hit,0.500493299915,True,False,stimulusHACA03_2IFCnew_2019_Jul_03_1432_257,stimulusHACA03_2IFCnew_2019_Jul_03_1432_258,False,2019_Jul_03_1432,2IFCnew,3,HACA03,
2IFCnew,54,0,54,0,0.302272200119,2,Yes,9.8,-1,Correct Rejection,0.566574099939,False,True,stimulusHACA03_2IFCnew_2019_Jul_03_1432_259,stimulusHACA03_2IFCnew_2019_Jul_03_1432_260,False,2019_Jul_03_1432,2IFCnew,3,HACA03,
2IFCnew,55,0,55,0,0.0998567999341,1,No,9.8,-1,Hit,0.434187300038,True,False,stimulusHACA03_2IFCnew_2019_Jul_03_1432_261,stimulusHACA03_2IFCnew_2019_Jul_03_1432_262,False,2019_Jul_03_1432,2IFCnew,3,HACA03,
2IFCnew,56,0,56,0,0.134131500032,1,No,9.8,-1,Hit,0.434114299947,True,False,stimulusHACA03_2IFCnew_2019_Jul_03_1432_263,stimulusHACA03_2IFCnew_2019_Jul_03_1432_264,False,2019_Jul_03_1432,2IFCnew,3,HACA03,
2IFCnew,57,0,57,0,0.133849299978,1,No,9.8,-1,Hit,0.432560299989,True,False,stimulusHACA03_2IFCnew_2019_Jul_03_1432_265,stimulusHACA03_2IFCnew_2019_Jul_03_1432_266,False,2019_Jul_03_1432,2IFCnew,3,HACA03,
2IFCnew,58,0,58,0,0.16749510006,1,No,9.8,-1,Hit,0.532016899902,True,False,stimulusHACA03_2IFCnew_2019_Jul_03_1432_267,stimulusHACA03_2IFCnew_2019_Jul_03_1432_268,False,2019_Jul_03_1432,2IFCnew,3,HACA03,
2IFCnew,59,0,59,0,0.0995589999948,1,No,9.8,-1,Hit,0.432812300045,True,False,stimulusHACA03_2IFCnew_2019_Jul_03_1432_269,stimulusHACA03_2IFCnew_2019_Jul_03_1432_270,False,2019_Jul_03_1432,2IFCnew,3,HACA03,
2IFCnew,60,0,60,0,0.166537099984,2,Yes,9.8,-1,Correct Rejection,0.535135400016,False,True,stimulusHACA03_2IFCnew_2019_Jul_03_1432_271,stimulusHACA03_2IFCnew_2019_Jul_03_1432_272,False,2019_Jul_03_1432,2IFCnew,3,HACA03,
2IFCnew,61,0,61,0,0.299803599948,2,Yes,9.8,-1,Correct Rejection,0.49992229999,False,True,stimulusHACA03_2IFCnew_2019_Jul_03_1432_273,stimulusHACA03_2IFCnew_2019_Jul_03_1432_274,False,2019_Jul_03_1432,2IFCnew,3,HACA03,
2IFCnew,62,0,62,0,0.59878999996,2,Yes,9.8,-1,Correct Rejection,0.533788000001,False,True,stimulusHACA03_2IFCnew_2019_Jul_03_1432_275,stimulusHACA03_2IFCnew_2019_Jul_03_1432_276,False,2019_Jul_03_1432,2IFCnew,3,HACA03,
2IFCnew,63,0,63,0,0.100695699919,1,No,9.8,-1,Hit,0.434499799972,True,False,stimulusHACA03_2IFCnew_2019_Jul_03_1432_277,stimulusHACA03_2IFCnew_2019_Jul_03_1432_278,False,2019_Jul_03_1432,2IFCnew,3,HACA03,
2IFCnew,64,0,64,0,0.434881200083,2,Yes,9.8,-1,Correct Rejection,0.500084700063,False,True,stimulusHACA03_2IFCnew_2019_Jul_03_1432_279,stimulusHACA03_2IFCnew_2019_Jul_03_1432_280,False,2019_Jul_03_1432,2IFCnew,3,HACA03,
2IFCnew,65,0,65,0,0.73509959993,2,Yes,9.8,-1,Correct Rejection,0.66718969983,False,True,stimulusHACA03_2IFCnew_2019_Jul_03_1432_281,stimulusHACA03_2IFCnew_2019_Jul_03_1432_282,False,2019_Jul_03_1432,2IFCnew,3,HACA03,
2IFCnew,66,0,66,0,0.167466999963,1,No,9.8,-1,Hit,0.534276199993,True,False,stimulusHACA03_2IFCnew_2019_Jul_03_1432_283,stimulusHACA03_2IFCnew_2019_Jul_03_1432_284,False,2019_Jul_03_1432,2IFCnew,3,HACA03,
2IFCnew,67,0,67,0,0.0341314999387,2,Yes,9.8,-1,Correct Rejection,0.501765700057,False,True,stimulusHACA03_2IFCnew_2019_Jul_03_1432_285,stimulusHACA03_2IFCnew_2019_Jul_03_1432_286,False,2019_Jul_03_1432,2IFCnew,3,HACA03,
2IFCnew,68,0,68,0,0.501785299974,2,Yes,9.8,-1,Correct Rejection,0.467198700178,False,True,stimulusHACA03_2IFCnew_2019_Jul_03_1432_287,stimulusHACA03_2IFCnew_2019_Jul_03_1432_288,False,2019_Jul_03_1432,2IFCnew,3,HACA03,
2IFCnew,69,0,69,0,0.198570000008,1,No,9.8,-1,Hit,0.534508600133,True,False,stimulusHACA03_2IFCnew_2019_Jul_03_1432_289,stimulusHACA03_2IFCnew_2019_Jul_03_1432_290,False,2019_Jul_03_1432,2IFCnew,3,HACA03,
2IFCnew,70,0,70,0,0.20043019997,1,No,9.8,-1,Hit,0.501773300115,True,False,stimulusHACA03_2IFCnew_2019_Jul_03_1432_291,stimulusHACA03_2IFCnew_2019_Jul_03_1432_292,False,2019_Jul_03_1432,2IFCnew,3,HACA03,
2IFCnew,71,0,71,0,0.100645700004,1,No,9.8,-1,Hit,0.434384600027,True,False,stimulusHACA03_2IFCnew_2019_Jul_03_1432_293,stimulusHACA03_2IFCnew_2019_Jul_03_1432_294,False,2019_Jul_03_1432,2IFCnew,3,HACA03,
2IFCnew,72,0,72,0,0.234014499933,2,Yes,9.8,-1,Correct Rejection,0.5336809,False,True,stimulusHACA03_2IFCnew_2019_Jul_03_1432_295,stimulusHACA03_2IFCnew_2019_Jul_03_1432_296,False,2019_Jul_03_1432,2IFCnew,3,HACA03,
2IFCnew,73,0,73,0,0.100172800012,1,No,9.8,-1,Hit,0.46691800002,True,False,stimulusHACA03_2IFCnew_2019_Jul_03_1432_297,stimulusHACA03_2IFCnew_2019_Jul_03_1432_298,False,2019_Jul_03_1432,2IFCnew,3,HACA03,
2IFCnew,74,0,74,0,0.367126000114,2,Yes,9.8,-1,Correct Rejection,0.834231100045,False,True,stimulusHACA03_2IFCnew_2019_Jul_03_1432_299,stimulusHACA03_2IFCnew_2019_Jul_03_1432_300,False,2019_Jul_03_1432,2IFCnew,3,HACA03,
2IFCnew,0,0,0,0,-1,0,Yes,2.7,-1,No Answer,-1,True,False,stimulusHACA03_2IFCnew_2019_Jul_03_1432_301,stimulusHACA03_2IFCnew_2019_Jul_03_1432_302,False,2019_Jul_03_1432,2IFCnew,3,HACA03,
2IFCnew,1,0,1,0,0.567251199856,2,Yes,2.7,-1,Correct Rejection,0.567504600156,False,True,stimulusHACA03_2IFCnew_2019_Jul_03_1432_303,stimulusHACA03_2IFCnew_2019_Jul_03_1432_304,False,2019_Jul_03_1432,2IFCnew,3,HACA03,
2IFCnew,2,0,2,0,0.266889400082,3,No,2.7,-1,False Alarm,0.534813100006,False,True,stimulusHACA03_2IFCnew_2019_Jul_03_1432_305,stimulusHACA03_2IFCnew_2019_Jul_03_1432_306,False,2019_Jul_03_1432,2IFCnew,3,HACA03,
2IFCnew,3,0,3,0,0.23389969999,2,Yes,2.7,-1,Correct Rejection,0.600169999991,False,True,stimulusHACA03_2IFCnew_2019_Jul_03_1432_307,stimulusHACA03_2IFCnew_2019_Jul_03_1432_308,False,2019_Jul_03_1432,2IFCnew,3,HACA03,
2IFCnew,4,0,4,0,0.167403599946,1,No,2.7,-1,Hit,0.467255599797,True,False,stimulusHACA03_2IFCnew_2019_Jul_03_1432_309,stimulusHACA03_2IFCnew_2019_Jul_03_1432_310,False,2019_Jul_03_1432,2IFCnew,3,HACA03,
2IFCnew,5,0,5,0,0.367388000013,5,Yes,2.7,-1,False Alarm,0.535136900144,False,True,stimulusHACA03_2IFCnew_2019_Jul_03_1432_311,stimulusHACA03_2IFCnew_2019_Jul_03_1432_312,False,2019_Jul_03_1432,2IFCnew,3,HACA03,
2IFCnew,6,0,6,0,0.333764200099,3,No,2.7,-1,False Alarm,0.43437459995,False,True,stimulusHACA03_2IFCnew_2019_Jul_03_1432_313,stimulusHACA03_2IFCnew_2019_Jul_03_1432_314,False,2019_Jul_03_1432,2IFCnew,3,HACA03,
2IFCnew,7,0,7,0,-1,1,No,2.7,-1,Hit,0.435144999996,True,False,stimulusHACA03_2IFCnew_2019_Jul_03_1432_315,stimulusHACA03_2IFCnew_2019_Jul_03_1432_316,False,2019_Jul_03_1432,2IFCnew,3,HACA03,
2IFCnew,8,0,8,0,0.300373199861,8,No,2.7,-1,Correct Rejection,0.500880899839,False,True,stimulusHACA03_2IFCnew_2019_Jul_03_1432_317,stimulusHACA03_2IFCnew_2019_Jul_03_1432_318,False,2019_Jul_03_1432,2IFCnew,3,HACA03,
2IFCnew,9,0,9,0,0.500912700081,7,Yes,2.7,-1,Hit,0.500710899942,True,False,stimulusHACA03_2IFCnew_2019_Jul_03_1432_319,stimulusHACA03_2IFCnew_2019_Jul_03_1432_320,False,2019_Jul_03_1432,2IFCnew,3,HACA03,
2IFCnew,10,0,10,0,0.400436199969,2,Yes,2.7,-1,Correct Rejection,0.600860499777,False,True,stimulusHACA03_2IFCnew_2019_Jul_03_1432_321,stimulusHACA03_2IFCnew_2019_Jul_03_1432_322,False,2019_Jul_03_1432,2IFCnew,3,HACA03,
2IFCnew,11,0,11,0,0.36627150001,3,No,2.7,-1,False Alarm,0.534669100074,False,True,stimulusHACA03_2IFCnew_2019_Jul_03_1432_323,stimulusHACA03_2IFCnew_2019_Jul_03_1432_324,False,2019_Jul_03_1432,2IFCnew,3,HACA03,
2IFCnew,12,0,12,0,0.400254699867,4,Yes,2.7,-1,Miss,0.568276999984,True,False,stimulusHACA03_2IFCnew_2019_Jul_03_1432_325,stimulusHACA03_2IFCnew_2019_Jul_03_1432_326,False,2019_Jul_03_1432,2IFCnew,3,HACA03,
2IFCnew,13,0,13,0,0.466927800095,4,Yes,2.7,-1,Miss,0.601066800067,True,False,stimulusHACA03_2IFCnew_2019_Jul_03_1432_327,stimulusHACA03_2IFCnew_2019_Jul_03_1432_328,False,2019_Jul_03_1432,2IFCnew,3,HACA03,
2IFCnew,14,0,14,0,0.433985200012,2,Yes,2.7,-1,Correct Rejection,0.500354700023,False,True,stimulusHACA03_2IFCnew_2019_Jul_03_1432_329,stimulusHACA03_2IFCnew_2019_Jul_03_1432_330,False,2019_Jul_03_1432,2IFCnew,3,HACA03,
2IFCnew,15,0,15,0,0.433326399885,6,No,2.7,-1,Miss,0.568298799917,True,False,stimulusHACA03_2IFCnew_2019_Jul_03_1432_331,stimulusHACA03_2IFCnew_2019_Jul_03_1432_332,False,2019_Jul_03_1432,2IFCnew,3,HACA03,
2IFCnew,16,0,16,0,0.333569000009,2,Yes,2.7,-1,Correct Rejection,0.501138000051,False,True,stimulusHACA03_2IFCnew_2019_Jul_03_1432_333,stimulusHACA03_2IFCnew_2019_Jul_03_1432_334,False,2019_Jul_03_1432,2IFCnew,3,HACA03,
2IFCnew,17,0,17,0,0.50052690017,8,No,2.7,-1,Correct Rejection,0.467769300099,False,True,stimulusHACA03_2IFCnew_2019_Jul_03_1432_335,stimulusHACA03_2IFCnew_2019_Jul_03_1432_336,False,2019_Jul_03_1432,2IFCnew,3,HACA03,
2IFCnew,18,0,18,0,0.300244000042,3,No,2.7,-1,False Alarm,0.534780099988,False,True,stimulusHACA03_2IFCnew_2019_Jul_03_1432_337,stimulusHACA03_2IFCnew_2019_Jul_03_1432_338,False,2019_Jul_03_1432,2IFCnew,3,HACA03,
2IFCnew,19,0,19,0,0.467581199948,5,Yes,2.7,-1,False Alarm,0.434297900181,False,True,stimulusHACA03_2IFCnew_2019_Jul_03_1432_339,stimulusHACA03_2IFCnew_2019_Jul_03_1432_340,False,2019_Jul_03_1432,2IFCnew,3,HACA03,
2IFCnew,20,0,20,0,0.334680099972,3,No,2.7,-1,False Alarm,0.533594600158,False,True,stimulusHACA03_2IFCnew_2019_Jul_03_1432_341,stimulusHACA03_2IFCnew_2019_Jul_03_1432_342,False,2019_Jul_03_1432,2IFCnew,3,HACA03,
2IFCnew,21,0,21,0,0.300289799925,2,Yes,2.7,-1,Correct Rejection,0.501646999968,False,True,stimulusHACA03_2IFCnew_2019_Jul_03_1432_343,stimulusHACA03_2IFCnew_2019_Jul_03_1432_344,False,2019_Jul_03_1432,2IFCnew,3,HACA03,
2IFCnew,22,0,22,0,0.634096199879,2,Yes,2.7,-1,Correct Rejection,0.467329599895,False,True,stimulusHACA03_2IFCnew_2019_Jul_03_1432_345,stimulusHACA03_2IFCnew_2019_Jul_03_1432_346,False,2019_Jul_03_1432,2IFCnew,3,HACA03,
2IFCnew,23,0,23,0,0.267399700126,1,No,2.7,-1,Hit,0.534132099943,True,False,stimulusHACA03_2IFCnew_2019_Jul_03_1432_347,stimulusHACA03_2IFCnew_2019_Jul_03_1432_348,False,2019_Jul_03_1432,2IFCnew,3,HACA03,
2IFCnew,24,0,24,0,0.400529499864,1,No,2.7,-1,Hit,0.567782900063,True,False,stimulusHACA03_2IFCnew_2019_Jul_03_1432_349,stimulusHACA03_2IFCnew_2019_Jul_03_1432_350,False,2019_Jul_03_1432,2IFCnew,3,HACA03,
2IFCnew,25,0,25,0,0.333423800068,1,No,2.7,-1,Hit,0.500691800145,True,False,stimulusHACA03_2IFCnew_2019_Jul_03_1432_351,stimulusHACA03_2IFCnew_2019_Jul_03_1432_352,False,2019_Jul_03_1432,2IFCnew,3,HACA03,
2IFCnew,26,0,26,0,0.400884500006,1,No,2.7,-1,Hit,0.533807900036,True,False,stimulusHACA03_2IFCnew_2019_Jul_03_1432_353,stimulusHACA03_2IFCnew_2019_Jul_03_1432_354,False,2019_Jul_03_1432,2IFCnew,3,HACA03,
2IFCnew,27,0,27,0,0.333634699928,1,No,2.7,-1,Hit,0.60038570012,True,False,stimulusHACA03_2IFCnew_2019_Jul_03_1432_355,stimulusHACA03_2IFCnew_2019_Jul_03_1432_356,False,2019_Jul_03_1432,2IFCnew,3,HACA03,
2IFCnew,28,0,28,0,0.500670299865,3,No,2.7,-1,False Alarm,0.467931600055,False,True,stimulusHACA03_2IFCnew_2019_Jul_03_1432_357,stimulusHACA03_2IFCnew_2019_Jul_03_1432_358,False,2019_Jul_03_1432,2IFCnew,3,HACA03,
2IFCnew,29,0,29,0,0.401184800081,3,No,2.7,-1,False Alarm,0.50062549999,False,True,stimulusHACA03_2IFCnew_2019_Jul_03_1432_359,stimulusHACA03_2IFCnew_2019_Jul_03_1432_360,False,2019_Jul_03_1432,2IFCnew,3,HACA03,
2IFCnew,30,0,30,0,0.367428400088,1,No,2.7,-1,Hit,0.534036200028,True,False,stimulusHACA03_2IFCnew_2019_Jul_03_1432_361,stimulusHACA03_2IFCnew_2019_Jul_03_1432_362,False,2019_Jul_03_1432,2IFCnew,3,HACA03,
2IFCnew,31,0,31,0,0.733708899934,5,Yes,2.7,-1,False Alarm,0.568130899919,False,True,stimulusHACA03_2IFCnew_2019_Jul_03_1432_363,stimulusHACA03_2IFCnew_2019_Jul_03_1432_364,False,2019_Jul_03_1432,2IFCnew,3,HACA03,
2IFCnew,32,0,32,0,0.400886599906,1,No,2.7,-1,Hit,0.502140499884,True,False,stimulusHACA03_2IFCnew_2019_Jul_03_1432_365,stimulusHACA03_2IFCnew_2019_Jul_03_1432_366,False,2019_Jul_03_1432,2IFCnew,3,HACA03,
2IFCnew,33,0,33,0,0.367215699982,1,No,2.7,-1,Hit,0.468458599877,True,False,stimulusHACA03_2IFCnew_2019_Jul_03_1432_367,stimulusHACA03_2IFCnew_2019_Jul_03_1432_368,False,2019_Jul_03_1432,2IFCnew,3,HACA03,
2IFCnew,34,0,34,0,0.465640000068,2,Yes,2.7,-1,Correct Rejection,0.634242899949,False,True,stimulusHACA03_2IFCnew_2019_Jul_03_1432_369,stimulusHACA03_2IFCnew_2019_Jul_03_1432_370,False,2019_Jul_03_1432,2IFCnew,3,HACA03,
2IFCnew,35,0,35,0,0.533844799967,2,Yes,2.7,-1,Correct Rejection,0.63341489993,False,True,stimulusHACA03_2IFCnew_2019_Jul_03_1432_371,stimulusHACA03_2IFCnew_2019_Jul_03_1432_372,False,2019_Jul_03_1432,2IFCnew,3,HACA03,
2IFCnew,36,0,36,0,0.199762000004,1,No,2.7,-1,Hit,0.50078979996,True,False,stimulusHACA03_2IFCnew_2019_Jul_03_1432_373,stimulusHACA03_2IFCnew_2019_Jul_03_1432_374,False,2019_Jul_03_1432,2IFCnew,3,HACA03,
2IFCnew,37,0,37,0,0.467038900126,3,No,2.7,-1,False Alarm,0.533987399889,False,True,stimulusHACA03_2IFCnew_2019_Jul_03_1432_375,stimulusHACA03_2IFCnew_2019_Jul_03_1432_376,False,2019_Jul_03_1432,2IFCnew,3,HACA03,
2IFCnew,38,0,38,0,0.43496689992,3,No,2.7,-1,False Alarm,0.466469399864,False,True,stimulusHACA03_2IFCnew_2019_Jul_03_1432_377,stimulusHACA03_2IFCnew_2019_Jul_03_1432_378,False,2019_Jul_03_1432,2IFCnew,3,HACA03,
2IFCnew,39,0,39,0,0.400276300032,8,No,2.7,-1,Correct Rejection,0.566933599999,False,True,stimulusHACA03_2IFCnew_2019_Jul_03_1432_379,stimulusHACA03_2IFCnew_2019_Jul_03_1432_380,False,2019_Jul_03_1432,2IFCnew,3,HACA03,
2IFCnew,40,0,40,0,0.634114300134,1,No,2.7,-1,Hit,0.667994900141,True,False,stimulusHACA03_2IFCnew_2019_Jul_03_1432_381,stimulusHACA03_2IFCnew_2019_Jul_03_1432_382,False,2019_Jul_03_1432,2IFCnew,3,HACA03,
2IFCnew,41,0,41,0,0.433133100159,1,No,2.7,-1,Hit,0.50063730008,True,False,stimulusHACA03_2IFCnew_2019_Jul_03_1432_383,stimulusHACA03_2IFCnew_2019_Jul_03_1432_384,False,2019_Jul_03_1432,2IFCnew,3,HACA03,
2IFCnew,42,0,42,0,0.233759500086,3,No,2.7,-1,False Alarm,0.467134699924,False,True,stimulusHACA03_2IFCnew_2019_Jul_03_1432_385,stimulusHACA03_2IFCnew_2019_Jul_03_1432_386,False,2019_Jul_03_1432,2IFCnew,3,HACA03,
2IFCnew,43,0,43,0,0.267237500055,2,Yes,2.7,-1,Correct Rejection,0.700097900117,False,True,stimulusHACA03_2IFCnew_2019_Jul_03_1432_387,stimulusHACA03_2IFCnew_2019_Jul_03_1432_388,False,2019_Jul_03_1432,2IFCnew,3,HACA03,
2IFCnew,44,0,44,0,0.399675599998,1,No,2.7,-1,Hit,0.800638800021,True,False,stimulusHACA03_2IFCnew_2019_Jul_03_1432_389,stimulusHACA03_2IFCnew_2019_Jul_03_1432_390,False,2019_Jul_03_1432,2IFCnew,3,HACA03,
2IFCnew,45,0,45,0,0.366565299919,3,No,2.7,-1,False Alarm,0.766360800015,False,True,stimulusHACA03_2IFCnew_2019_Jul_03_1432_391,stimulusHACA03_2IFCnew_2019_Jul_03_1432_392,False,2019_Jul_03_1432,2IFCnew,3,HACA03,
2IFCnew,46,0,46,0,0.534899099963,5,Yes,2.7,-1,False Alarm,0.502340300009,False,True,stimulusHACA03_2IFCnew_2019_Jul_03_1432_393,stimulusHACA03_2IFCnew_2019_Jul_03_1432_394,False,2019_Jul_03_1432,2IFCnew,3,HACA03,
2IFCnew,47,0,47,0,0.300441399915,1,No,2.7,-1,Hit,0.568729700055,True,False,stimulusHACA03_2IFCnew_2019_Jul_03_1432_395,stimulusHACA03_2IFCnew_2019_Jul_03_1432_396,False,2019_Jul_03_1432,2IFCnew,3,HACA03,
2IFCnew,48,0,48,0,0.400638499996,1,No,2.7,-1,Hit,0.500199600123,True,False,stimulusHACA03_2IFCnew_2019_Jul_03_1432_397,stimulusHACA03_2IFCnew_2019_Jul_03_1432_398,False,2019_Jul_03_1432,2IFCnew,3,HACA03,
2IFCnew,49,0,49,0,0.333481899928,1,No,2.7,-1,Hit,0.700876400108,True,False,stimulusHACA03_2IFCnew_2019_Jul_03_1432_399,stimulusHACA03_2IFCnew_2019_Jul_03_1432_400,False,2019_Jul_03_1432,2IFCnew,3,HACA03,
2IFCnew,50,0,50,0,0.434137200005,2,Yes,2.7,-1,Correct Rejection,0.600376300048,False,True,stimulusHACA03_2IFCnew_2019_Jul_03_1432_401,stimulusHACA03_2IFCnew_2019_Jul_03_1432_402,False,2019_Jul_03_1432,2IFCnew,3,HACA03,
2IFCnew,51,0,51,0,0.33327690023,1,No,2.7,-1,Hit,0.600941600045,True,False,stimulusHACA03_2IFCnew_2019_Jul_03_1432_403,stimulusHACA03_2IFCnew_2019_Jul_03_1432_404,False,2019_Jul_03_1432,2IFCnew,3,HACA03,
2IFCnew,52,0,52,0,0.367800400127,1,No,2.7,-1,Hit,0.633624800015,True,False,stimulusHACA03_2IFCnew_2019_Jul_03_1432_405,stimulusHACA03_2IFCnew_2019_Jul_03_1432_406,False,2019_Jul_03_1432,2IFCnew,3,HACA03,
2IFCnew,53,0,53,0,0.401068600127,1,No,2.7,-1,Hit,0.466865799855,True,False,stimulusHACA03_2IFCnew_2019_Jul_03_1432_407,stimulusHACA03_2IFCnew_2019_Jul_03_1432_408,False,2019_Jul_03_1432,2IFCnew,3,HACA03,
2IFCnew,54,0,54,0,0.400303600123,6,No,2.7,-1,Miss,0.466953499941,True,False,stimulusHACA03_2IFCnew_2019_Jul_03_1432_409,stimulusHACA03_2IFCnew_2019_Jul_03_1432_410,False,2019_Jul_03_1432,2IFCnew,3,HACA03,
2IFCnew,55,0,55,0,0.434830300044,1,No,2.7,-1,Hit,0.466915500117,True,False,stimulusHACA03_2IFCnew_2019_Jul_03_1432_411,stimulusHACA03_2IFCnew_2019_Jul_03_1432_412,False,2019_Jul_03_1432,2IFCnew,3,HACA03,
2IFCnew,56,0,56,0,0.467686799821,4,Yes,2.7,-1,Miss,0.467020800104,True,False,stimulusHACA03_2IFCnew_2019_Jul_03_1432_413,stimulusHACA03_2IFCnew_2019_Jul_03_1432_414,False,2019_Jul_03_1432,2IFCnew,3,HACA03,
2IFCnew,57,0,57,0,0.467278900091,1,No,2.7,-1,Hit,0.50019400008,True,False,stimulusHACA03_2IFCnew_2019_Jul_03_1432_415,stimulusHACA03_2IFCnew_2019_Jul_03_1432_416,False,2019_Jul_03_1432,2IFCnew,3,HACA03,
2IFCnew,58,0,58,0,0.43444620003,3,No,2.7,-1,False Alarm,0.468035400147,False,True,stimulusHACA03_2IFCnew_2019_Jul_03_1432_417,stimulusHACA03_2IFCnew_2019_Jul_03_1432_418,False,2019_Jul_03_1432,2IFCnew,3,HACA03,
2IFCnew,59,0,59,0,0.600183599861,4,Yes,2.7,-1,Miss,0.466720700031,True,False,stimulusHACA03_2IFCnew_2019_Jul_03_1432_419,stimulusHACA03_2IFCnew_2019_Jul_03_1432_420,False,2019_Jul_03_1432,2IFCnew,3,HACA03,
2IFCnew,60,0,60,0,0.433883199934,1,No,2.7,-1,Hit,0.500404400053,True,False,stimulusHACA03_2IFCnew_2019_Jul_03_1432_421,stimulusHACA03_2IFCnew_2019_Jul_03_1432_422,False,2019_Jul_03_1432,2IFCnew,3,HACA03,
2IFCnew,61,0,61,0,0.500608599978,1,No,2.7,-1,Hit,0.434064700035,True,False,stimulusHACA03_2IFCnew_2019_Jul_03_1432_423,stimulusHACA03_2IFCnew_2019_Jul_03_1432_424,False,2019_Jul_03_1432,2IFCnew,3,HACA03,
2IFCnew,62,0,62,0,0.500718299998,1,No,2.7,-1,Hit,0.500905999914,True,False,stimulusHACA03_2IFCnew_2019_Jul_03_1432_425,stimulusHACA03_2IFCnew_2019_Jul_03_1432_426,False,2019_Jul_03_1432,2IFCnew,3,HACA03,
2IFCnew,63,0,63,0,0.500102299964,1,No,2.7,-1,Hit,0.500681899954,True,False,stimulusHACA03_2IFCnew_2019_Jul_03_1432_427,stimulusHACA03_2IFCnew_2019_Jul_03_1432_428,False,2019_Jul_03_1432,2IFCnew,3,HACA03,
2IFCnew,64,0,64,0,0.434674900025,1,No,2.7,-1,Hit,0.500380299985,True,False,stimulusHACA03_2IFCnew_2019_Jul_03_1432_429,stimulusHACA03_2IFCnew_2019_Jul_03_1432_430,False,2019_Jul_03_1432,2IFCnew,3,HACA03,
2IFCnew,65,0,65,0,0.667147600092,8,No,2.7,-1,Correct Rejection,0.533455699915,False,True,stimulusHACA03_2IFCnew_2019_Jul_03_1432_431,stimulusHACA03_2IFCnew_2019_Jul_03_1432_432,False,2019_Jul_03_1432,2IFCnew,3,HACA03,
2IFCnew,66,0,66,0,0.466626800131,3,No,2.7,-1,False Alarm,0.467679500114,False,True,stimulusHACA03_2IFCnew_2019_Jul_03_1432_433,stimulusHACA03_2IFCnew_2019_Jul_03_1432_434,False,2019_Jul_03_1432,2IFCnew,3,HACA03,
2IFCnew,67,0,67,0,0.566766300006,2,Yes,2.7,-1,Correct Rejection,0.499430499971,False,True,stimulusHACA03_2IFCnew_2019_Jul_03_1432_435,stimulusHACA03_2IFCnew_2019_Jul_03_1432_436,False,2019_Jul_03_1432,2IFCnew,3,HACA03,
2IFCnew,68,0,68,0,0.501188199967,3,No,2.7,-1,False Alarm,0.467458799947,False,True,stimulusHACA03_2IFCnew_2019_Jul_03_1432_437,stimulusHACA03_2IFCnew_2019_Jul_03_1432_438,False,2019_Jul_03_1432,2IFCnew,3,HACA03,
2IFCnew,69,0,69,0,0.534802500159,1,No,2.7,-1,Hit,0.433860999998,True,False,stimulusHACA03_2IFCnew_2019_Jul_03_1432_439,stimulusHACA03_2IFCnew_2019_Jul_03_1432_440,False,2019_Jul_03_1432,2IFCnew,3,HACA03,
2IFCnew,70,0,70,0,0.433711300138,2,Yes,2.7,-1,Correct Rejection,0.500679000048,False,True,stimulusHACA03_2IFCnew_2019_Jul_03_1432_441,stimulusHACA03_2IFCnew_2019_Jul_03_1432_442,False,2019_Jul_03_1432,2IFCnew,3,HACA03,
2IFCnew,71,0,71,0,0.500528600067,2,Yes,2.7,-1,Correct Rejection,0.5005830999,False,True,stimulusHACA03_2IFCnew_2019_Jul_03_1432_443,stimulusHACA03_2IFCnew_2019_Jul_03_1432_444,False,2019_Jul_03_1432,2IFCnew,3,HACA03,
2IFCnew,72,0,72,0,0.50041320012,8,No,2.7,-1,Correct Rejection,0.567212299909,False,True,stimulusHACA03_2IFCnew_2019_Jul_03_1432_445,stimulusHACA03_2IFCnew_2019_Jul_03_1432_446,False,2019_Jul_03_1432,2IFCnew,3,HACA03,
2IFCnew,73,0,73,0,0.700503799831,6,No,2.7,-1,Miss,0.500702999998,True,False,stimulusHACA03_2IFCnew_2019_Jul_03_1432_447,stimulusHACA03_2IFCnew_2019_Jul_03_1432_448,False,2019_Jul_03_1432,2IFCnew,3,HACA03,
2IFCnew,74,0,74,0,0.46702370001,1,No,2.7,-1,Hit,0.667726199841,True,False,stimulusHACA03_2IFCnew_2019_Jul_03_1432_449,stimulusHACA03_2IFCnew_2019_Jul_03_1432_450,False,2019_Jul_03_1432,2IFCnew,3,HACA03,
2IFCnew,0,0,0,0,0.50078319991,4,Yes,8.8,-1,Miss,0.600728600053,True,False,stimulusHACA03_2IFCnew_2019_Jul_03_1432_451,stimulusHACA03_2IFCnew_2019_Jul_03_1432_452,False,2019_Jul_03_1432,2IFCnew,3,HACA03,
2IFCnew,1,0,1,0,0.400084100198,1,No,8.8,-1,Hit,0.500433099922,True,False,stimulusHACA03_2IFCnew_2019_Jul_03_1432_453,stimulusHACA03_2IFCnew_2019_Jul_03_1432_454,False,2019_Jul_03_1432,2IFCnew,3,HACA03,
2IFCnew,2,0,2,0,0.367091099964,1,No,8.8,-1,Hit,0.432797899935,True,False,stimulusHACA03_2IFCnew_2019_Jul_03_1432_455,stimulusHACA03_2IFCnew_2019_Jul_03_1432_456,False,2019_Jul_03_1432,2IFCnew,3,HACA03,
2IFCnew,3,0,3,0,0.233786500059,1,No,8.8,-1,Hit,0.568424699828,True,False,stimulusHACA03_2IFCnew_2019_Jul_03_1432_457,stimulusHACA03_2IFCnew_2019_Jul_03_1432_458,False,2019_Jul_03_1432,2IFCnew,3,HACA03,
2IFCnew,4,0,4,0,0.466464899946,2,Yes,8.8,-1,Correct Rejection,0.60012829979,False,True,stimulusHACA03_2IFCnew_2019_Jul_03_1432_459,stimulusHACA03_2IFCnew_2019_Jul_03_1432_460,False,2019_Jul_03_1432,2IFCnew,3,HACA03,
2IFCnew,5,0,5,0,0.600469100056,5,Yes,8.8,-1,False Alarm,0.534099200042,False,True,stimulusHACA03_2IFCnew_2019_Jul_03_1432_461,stimulusHACA03_2IFCnew_2019_Jul_03_1432_462,False,2019_Jul_03_1432,2IFCnew,3,HACA03,
2IFCnew,6,0,6,0,0.333730799844,1,No,8.8,-1,Hit,0.466892400058,True,False,stimulusHACA03_2IFCnew_2019_Jul_03_1432_463,stimulusHACA03_2IFCnew_2019_Jul_03_1432_464,False,2019_Jul_03_1432,2IFCnew,3,HACA03,
2IFCnew,7,0,7,0,0.567245200044,8,No,8.8,-1,Correct Rejection,0.700950099854,False,True,stimulusHACA03_2IFCnew_2019_Jul_03_1432_465,stimulusHACA03_2IFCnew_2019_Jul_03_1432_466,False,2019_Jul_03_1432,2IFCnew,3,HACA03,
2IFCnew,8,0,8,0,0.300504300045,2,Yes,8.8,-1,Correct Rejection,0.501057600137,False,True,stimulusHACA03_2IFCnew_2019_Jul_03_1432_467,stimulusHACA03_2IFCnew_2019_Jul_03_1432_468,False,2019_Jul_03_1432,2IFCnew,3,HACA03,
2IFCnew,9,0,9,0,0.333097199909,2,Yes,8.8,-1,Correct Rejection,0.433391399914,False,True,stimulusHACA03_2IFCnew_2019_Jul_03_1432_469,stimulusHACA03_2IFCnew_2019_Jul_03_1432_470,False,2019_Jul_03_1432,2IFCnew,3,HACA03,
2IFCnew,10,0,10,0,0.166072100168,1,No,8.8,-1,Hit,0.400120200124,True,False,stimulusHACA03_2IFCnew_2019_Jul_03_1432_471,stimulusHACA03_2IFCnew_2019_Jul_03_1432_472,False,2019_Jul_03_1432,2IFCnew,3,HACA03,
2IFCnew,11,0,11,0,-1,1,No,8.8,-1,Hit,0.400383600034,True,False,stimulusHACA03_2IFCnew_2019_Jul_03_1432_473,stimulusHACA03_2IFCnew_2019_Jul_03_1432_474,False,2019_Jul_03_1432,2IFCnew,3,HACA03,
2IFCnew,12,0,12,0,0.300156199839,1,No,8.8,-1,Hit,0.468301700195,True,False,stimulusHACA03_2IFCnew_2019_Jul_03_1432_475,stimulusHACA03_2IFCnew_2019_Jul_03_1432_476,False,2019_Jul_03_1432,2IFCnew,3,HACA03,
2IFCnew,13,0,13,0,0.400437599979,5,Yes,8.8,-1,False Alarm,0.601679699961,False,True,stimulusHACA03_2IFCnew_2019_Jul_03_1432_477,stimulusHACA03_2IFCnew_2019_Jul_03_1432_478,False,2019_Jul_03_1432,2IFCnew,3,HACA03,
2IFCnew,14,0,14,0,0.467039899901,1,No,8.8,-1,Hit,0.434247600148,True,False,stimulusHACA03_2IFCnew_2019_Jul_03_1432_479,stimulusHACA03_2IFCnew_2019_Jul_03_1432_480,False,2019_Jul_03_1432,2IFCnew,3,HACA03,
2IFCnew,15,0,15,0,0.534314699937,2,Yes,8.8,-1,Correct Rejection,0.433872400085,False,True,stimulusHACA03_2IFCnew_2019_Jul_03_1432_481,stimulusHACA03_2IFCnew_2019_Jul_03_1432_482,False,2019_Jul_03_1432,2IFCnew,3,HACA03,
2IFCnew,16,0,16,0,0.267364599975,1,No,8.8,-1,Hit,0.501156200189,True,False,stimulusHACA03_2IFCnew_2019_Jul_03_1432_483,stimulusHACA03_2IFCnew_2019_Jul_03_1432_484,False,2019_Jul_03_1432,2IFCnew,3,HACA03,
2IFCnew,17,0,17,0,0.467571799876,2,Yes,8.8,-1,Correct Rejection,0.467498000013,False,True,stimulusHACA03_2IFCnew_2019_Jul_03_1432_485,stimulusHACA03_2IFCnew_2019_Jul_03_1432_486,False,2019_Jul_03_1432,2IFCnew,3,HACA03,
2IFCnew,18,0,18,0,0.634034399875,2,Yes,8.8,-1,Correct Rejection,0.433335100068,False,True,stimulusHACA03_2IFCnew_2019_Jul_03_1432_487,stimulusHACA03_2IFCnew_2019_Jul_03_1432_488,False,2019_Jul_03_1432,2IFCnew,3,HACA03,
2IFCnew,19,0,19,0,0.300407700008,1,No,8.8,-1,Hit,0.46792090009,True,False,stimulusHACA03_2IFCnew_2019_Jul_03_1432_489,stimulusHACA03_2IFCnew_2019_Jul_03_1432_490,False,2019_Jul_03_1432,2IFCnew,3,HACA03,
2IFCnew,20,0,20,0,0.23392210016,1,No,8.8,-1,Hit,0.466966100037,True,False,stimulusHACA03_2IFCnew_2019_Jul_03_1432_491,stimulusHACA03_2IFCnew_2019_Jul_03_1432_492,False,2019_Jul_03_1432,2IFCnew,3,HACA03,
2IFCnew,21,0,21,0,0.300601100083,1,No,8.8,-1,Hit,0.43474940001,True,False,stimulusHACA03_2IFCnew_2019_Jul_03_1432_493,stimulusHACA03_2IFCnew_2019_Jul_03_1432_494,False,2019_Jul_03_1432,2IFCnew,3,HACA03,
2IFCnew,22,0,22,0,0.20135280001,1,No,8.8,-1,Hit,0.533298500115,True,False,stimulusHACA03_2IFCnew_2019_Jul_03_1432_495,stimulusHACA03_2IFCnew_2019_Jul_03_1432_496,False,2019_Jul_03_1432,2IFCnew,3,HACA03,
2IFCnew,23,0,23,0,0.0999030999374,1,No,8.8,-1,Hit,0.400544400094,True,False,stimulusHACA03_2IFCnew_2019_Jul_03_1432_497,stimulusHACA03_2IFCnew_2019_Jul_03_1432_498,False,2019_Jul_03_1432,2IFCnew,3,HACA03,
2IFCnew,24,0,24,0,0.166833499912,2,Yes,8.8,-1,Correct Rejection,0.534064500127,False,True,stimulusHACA03_2IFCnew_2019_Jul_03_1432_499,stimulusHACA03_2IFCnew_2019_Jul_03_1432_500,False,2019_Jul_03_1432,2IFCnew,3,HACA03,
2IFCnew,25,0,25,0,0.433797500096,2,Yes,8.8,-1,Correct Rejection,0.467181700049,False,True,stimulusHACA03_2IFCnew_2019_Jul_03_1432_501,stimulusHACA03_2IFCnew_2019_Jul_03_1432_502,False,2019_Jul_03_1432,2IFCnew,3,HACA03,
2IFCnew,26,0,26,0,0.10077010002,2,Yes,8.8,-1,Correct Rejection,0.467768599978,False,True,stimulusHACA03_2IFCnew_2019_Jul_03_1432_503,stimulusHACA03_2IFCnew_2019_Jul_03_1432_504,False,2019_Jul_03_1432,2IFCnew,3,HACA03,
2IFCnew,27,0,27,0,0.166869299952,1,No,8.8,-1,Hit,0.536013700068,True,False,stimulusHACA03_2IFCnew_2019_Jul_03_1432_505,stimulusHACA03_2IFCnew_2019_Jul_03_1432_506,False,2019_Jul_03_1432,2IFCnew,3,HACA03,
2IFCnew,28,0,28,0,0.33314100001,5,Yes,8.8,-1,False Alarm,0.434634200064,False,True,stimulusHACA03_2IFCnew_2019_Jul_03_1432_507,stimulusHACA03_2IFCnew_2019_Jul_03_1432_508,False,2019_Jul_03_1432,2IFCnew,3,HACA03,
2IFCnew,29,0,29,0,0.300854600035,2,Yes,8.8,-1,Correct Rejection,0.533965700073,False,True,stimulusHACA03_2IFCnew_2019_Jul_03_1432_509,stimulusHACA03_2IFCnew_2019_Jul_03_1432_510,False,2019_Jul_03_1432,2IFCnew,3,HACA03,
2IFCnew,30,0,30,0,0.101631199941,1,No,8.8,-1,Hit,0.465752700111,True,False,stimulusHACA03_2IFCnew_2019_Jul_03_1432_511,stimulusHACA03_2IFCnew_2019_Jul_03_1432_512,False,2019_Jul_03_1432,2IFCnew,3,HACA03,
2IFCnew,31,0,31,0,0.0327024997678,1,No,8.8,-1,Hit,0.403648399981,True,False,stimulusHACA03_2IFCnew_2019_Jul_03_1432_513,stimulusHACA03_2IFCnew_2019_Jul_03_1432_514,False,2019_Jul_03_1432,2IFCnew,3,HACA03,
2IFCnew,32,0,32,0,0.266285999911,2,Yes,8.8,-1,Correct Rejection,0.467201299965,False,True,stimulusHACA03_2IFCnew_2019_Jul_03_1432_515,stimulusHACA03_2IFCnew_2019_Jul_03_1432_516,False,2019_Jul_03_1432,2IFCnew,3,HACA03,
2IFCnew,33,0,33,0,0.100168199977,1,No,8.8,-1,Hit,0.434393499978,True,False,stimulusHACA03_2IFCnew_2019_Jul_03_1432_517,stimulusHACA03_2IFCnew_2019_Jul_03_1432_518,False,2019_Jul_03_1432,2IFCnew,3,HACA03,
2IFCnew,34,0,34,0,0.0335315999109,1,No,8.8,-1,Hit,0.399650499923,True,False,stimulusHACA03_2IFCnew_2019_Jul_03_1432_519,stimulusHACA03_2IFCnew_2019_Jul_03_1432_520,False,2019_Jul_03_1432,2IFCnew,3,HACA03,
2IFCnew,35,0,35,0,-1,1,No,8.8,-1,Hit,0.433925299905,True,False,stimulusHACA03_2IFCnew_2019_Jul_03_1432_521,stimulusHACA03_2IFCnew_2019_Jul_03_1432_522,False,2019_Jul_03_1432,2IFCnew,3,HACA03,
2IFCnew,36,0,36,0,0.100931099849,1,No,8.8,-1,Hit,0.433307099855,True,False,stimulusHACA03_2IFCnew_2019_Jul_03_1432_523,stimulusHACA03_2IFCnew_2019_Jul_03_1432_524,False,2019_Jul_03_1432,2IFCnew,3,HACA03,
2IFCnew,37,0,37,0,0.0662430999801,1,No,8.8,-1,Hit,0.43516000011,True,False,stimulusHACA03_2IFCnew_2019_Jul_03_1432_525,stimulusHACA03_2IFCnew_2019_Jul_03_1432_526,False,2019_Jul_03_1432,2IFCnew,3,HACA03,
2IFCnew,38,0,38,0,0.299909400055,2,Yes,8.8,-1,Correct Rejection,0.56682060007,False,True,stimulusHACA03_2IFCnew_2019_Jul_03_1432_527,stimulusHACA03_2IFCnew_2019_Jul_03_1432_528,False,2019_Jul_03_1432,2IFCnew,3,HACA03,
2IFCnew,39,0,39,0,0.267129300162,1,No,8.8,-1,Hit,0.567442500032,True,False,stimulusHACA03_2IFCnew_2019_Jul_03_1432_529,stimulusHACA03_2IFCnew_2019_Jul_03_1432_530,False,2019_Jul_03_1432,2IFCnew,3,HACA03,
2IFCnew,40,0,40,0,0.0665599999484,1,No,8.8,-1,Hit,0.433871000074,True,False,stimulusHACA03_2IFCnew_2019_Jul_03_1432_531,stimulusHACA03_2IFCnew_2019_Jul_03_1432_532,False,2019_Jul_03_1432,2IFCnew,3,HACA03,
2IFCnew,41,0,41,0,0.0676426000427,1,No,8.8,-1,Hit,0.433954700129,True,False,stimulusHACA03_2IFCnew_2019_Jul_03_1432_533,stimulusHACA03_2IFCnew_2019_Jul_03_1432_534,False,2019_Jul_03_1432,2IFCnew,3,HACA03,
2IFCnew,42,0,42,0,0.533578099916,2,Yes,8.8,-1,Correct Rejection,0.601078599924,False,True,stimulusHACA03_2IFCnew_2019_Jul_03_1432_535,stimulusHACA03_2IFCnew_2019_Jul_03_1432_536,False,2019_Jul_03_1432,2IFCnew,3,HACA03,
2IFCnew,43,0,43,0,0.33429030003,2,Yes,8.8,-1,Correct Rejection,0.467186900089,False,True,stimulusHACA03_2IFCnew_2019_Jul_03_1432_537,stimulusHACA03_2IFCnew_2019_Jul_03_1432_538,False,2019_Jul_03_1432,2IFCnew,3,HACA03,
2IFCnew,44,0,44,0,0.367250100011,2,Yes,8.8,-1,Correct Rejection,0.400876500178,False,True,stimulusHACA03_2IFCnew_2019_Jul_03_1432_539,stimulusHACA03_2IFCnew_2019_Jul_03_1432_540,False,2019_Jul_03_1432,2IFCnew,3,HACA03,
2IFCnew,45,0,45,0,0.233748700004,3,No,8.8,-1,False Alarm,0.600511000026,False,True,stimulusHACA03_2IFCnew_2019_Jul_03_1432_541,stimulusHACA03_2IFCnew_2019_Jul_03_1432_542,False,2019_Jul_03_1432,2IFCnew,3,HACA03,
2IFCnew,46,0,46,0,0.233808499994,2,Yes,8.8,-1,Correct Rejection,0.434416899923,False,True,stimulusHACA03_2IFCnew_2019_Jul_03_1432_543,stimulusHACA03_2IFCnew_2019_Jul_03_1432_544,False,2019_Jul_03_1432,2IFCnew,3,HACA03,
2IFCnew,47,0,47,0,0.400929800002,2,Yes,8.8,-1,Correct Rejection,0.466377499979,False,True,stimulusHACA03_2IFCnew_2019_Jul_03_1432_545,stimulusHACA03_2IFCnew_2019_Jul_03_1432_546,False,2019_Jul_03_1432,2IFCnew,3,HACA03,
2IFCnew,48,0,48,0,0.0670815000776,1,No,8.8,-1,Hit,0.432773799868,True,False,stimulusHACA03_2IFCnew_2019_Jul_03_1432_547,stimulusHACA03_2IFCnew_2019_Jul_03_1432_548,False,2019_Jul_03_1432,2IFCnew,3,HACA03,
2IFCnew,49,0,49,0,0.534561400069,2,Yes,8.8,-1,Correct Rejection,0.499871399952,False,True,stimulusHACA03_2IFCnew_2019_Jul_03_1432_549,stimulusHACA03_2IFCnew_2019_Jul_03_1432_550,False,2019_Jul_03_1432,2IFCnew,3,HACA03,
2IFCnew,50,0,50,0,0.232776599936,1,No,8.8,-1,Hit,0.633984999964,True,False,stimulusHACA03_2IFCnew_2019_Jul_03_1432_551,stimulusHACA03_2IFCnew_2019_Jul_03_1432_552,False,2019_Jul_03_1432,2IFCnew,3,HACA03,
2IFCnew,51,0,51,0,0.101359900087,1,No,8.8,-1,Hit,0.368009699974,True,False,stimulusHACA03_2IFCnew_2019_Jul_03_1432_553,stimulusHACA03_2IFCnew_2019_Jul_03_1432_554,False,2019_Jul_03_1432,2IFCnew,3,HACA03,
2IFCnew,52,0,52,0,0.500359200174,1,No,8.8,-1,Hit,0.566748899873,True,False,stimulusHACA03_2IFCnew_2019_Jul_03_1432_555,stimulusHACA03_2IFCnew_2019_Jul_03_1432_556,False,2019_Jul_03_1432,2IFCnew,3,HACA03,
2IFCnew,53,0,53,0,0.0668879000004,1,No,8.8,-1,Hit,0.467440700158,True,False,stimulusHACA03_2IFCnew_2019_Jul_03_1432_557,stimulusHACA03_2IFCnew_2019_Jul_03_1432_558,False,2019_Jul_03_1432,2IFCnew,3,HACA03,
2IFCnew,54,0,54,0,0.166798599996,2,Yes,8.8,-1,Correct Rejection,0.56710760016,False,True,stimulusHACA03_2IFCnew_2019_Jul_03_1432_559,stimulusHACA03_2IFCnew_2019_Jul_03_1432_560,False,2019_Jul_03_1432,2IFCnew,3,HACA03,
2IFCnew,55,0,55,0,0.433996200096,2,Yes,8.8,-1,Correct Rejection,0.500903599896,False,True,stimulusHACA03_2IFCnew_2019_Jul_03_1432_561,stimulusHACA03_2IFCnew_2019_Jul_03_1432_562,False,2019_Jul_03_1432,2IFCnew,3,HACA03,
2IFCnew,56,0,56,0,-1,1,Yes,8.8,-1,Hit,0.434510400053,True,False,stimulusHACA03_2IFCnew_2019_Jul_03_1432_563,stimulusHACA03_2IFCnew_2019_Jul_03_1432_564,False,2019_Jul_03_1432,2IFCnew,3,HACA03,
2IFCnew,57,0,57,0,0.433859700104,2,Yes,8.8,-1,Correct Rejection,0.50045689987,False,True,stimulusHACA03_2IFCnew_2019_Jul_03_1432_565,stimulusHACA03_2IFCnew_2019_Jul_03_1432_566,False,2019_Jul_03_1432,2IFCnew,3,HACA03,
2IFCnew,58,0,58,0,0.400761600118,2,Yes,8.8,-1,Correct Rejection,0.467407999793,False,True,stimulusHACA03_2IFCnew_2019_Jul_03_1432_567,stimulusHACA03_2IFCnew_2019_Jul_03_1432_568,False,2019_Jul_03_1432,2IFCnew,3,HACA03,
2IFCnew,59,0,59,0,0.133509599837,1,No,8.8,-1,Hit,0.500850999961,True,False,stimulusHACA03_2IFCnew_2019_Jul_03_1432_569,stimulusHACA03_2IFCnew_2019_Jul_03_1432_570,False,2019_Jul_03_1432,2IFCnew,3,HACA03,
2IFCnew,60,0,60,0,0.267433200032,2,Yes,8.8,-1,Correct Rejection,0.502411799971,False,True,stimulusHACA03_2IFCnew_2019_Jul_03_1432_571,stimulusHACA03_2IFCnew_2019_Jul_03_1432_572,False,2019_Jul_03_1432,2IFCnew,3,HACA03,
2IFCnew,61,0,61,0,0.29996199999,2,Yes,8.8,-1,Correct Rejection,0.466172099812,False,True,stimulusHACA03_2IFCnew_2019_Jul_03_1432_573,stimulusHACA03_2IFCnew_2019_Jul_03_1432_574,False,2019_Jul_03_1432,2IFCnew,3,HACA03,
2IFCnew,62,0,62,0,0.200445799856,2,Yes,8.8,-1,Correct Rejection,0.401041500038,False,True,stimulusHACA03_2IFCnew_2019_Jul_03_1432_575,stimulusHACA03_2IFCnew_2019_Jul_03_1432_576,False,2019_Jul_03_1432,2IFCnew,3,HACA03,
2IFCnew,63,0,63,0,0.234282699879,1,No,8.8,-1,Hit,0.5001507001,True,False,stimulusHACA03_2IFCnew_2019_Jul_03_1432_577,stimulusHACA03_2IFCnew_2019_Jul_03_1432_578,False,2019_Jul_03_1432,2IFCnew,3,HACA03,
2IFCnew,64,0,64,0,0.133799099829,1,No,8.8,-1,Hit,0.400394999888,True,False,stimulusHACA03_2IFCnew_2019_Jul_03_1432_579,stimulusHACA03_2IFCnew_2019_Jul_03_1432_580,False,2019_Jul_03_1432,2IFCnew,3,HACA03,
2IFCnew,65,0,65,0,0.132954800036,2,Yes,8.8,-1,Correct Rejection,0.501040200004,False,True,stimulusHACA03_2IFCnew_2019_Jul_03_1432_581,stimulusHACA03_2IFCnew_2019_Jul_03_1432_582,False,2019_Jul_03_1432,2IFCnew,3,HACA03,
2IFCnew,66,0,66,0,0.167246200144,1,No,8.8,-1,Hit,0.467840500176,True,False,stimulusHACA03_2IFCnew_2019_Jul_03_1432_583,stimulusHACA03_2IFCnew_2019_Jul_03_1432_584,False,2019_Jul_03_1432,2IFCnew,3,HACA03,
2IFCnew,67,0,67,0,0.166733599966,1,No,8.8,-1,Hit,0.400346900104,True,False,stimulusHACA03_2IFCnew_2019_Jul_03_1432_585,stimulusHACA03_2IFCnew_2019_Jul_03_1432_586,False,2019_Jul_03_1432,2IFCnew,3,HACA03,
2IFCnew,68,0,68,0,0.133716899902,2,Yes,8.8,-1,Correct Rejection,0.466908100061,False,True,stimulusHACA03_2IFCnew_2019_Jul_03_1432_587,stimulusHACA03_2IFCnew_2019_Jul_03_1432_588,False,2019_Jul_03_1432,2IFCnew,3,HACA03,
2IFCnew,69,0,69,0,0.26622390002,2,Yes,8.8,-1,Correct Rejection,0.500915399985,False,True,stimulusHACA03_2IFCnew_2019_Jul_03_1432_589,stimulusHACA03_2IFCnew_2019_Jul_03_1432_590,False,2019_Jul_03_1432,2IFCnew,3,HACA03,
2IFCnew,70,0,70,0,0.133536600042,1,No,8.8,-1,Hit,0.433999500005,True,False,stimulusHACA03_2IFCnew_2019_Jul_03_1432_591,stimulusHACA03_2IFCnew_2019_Jul_03_1432_592,False,2019_Jul_03_1432,2IFCnew,3,HACA03,
2IFCnew,71,0,71,0,0.168455400039,1,No,8.8,-1,Hit,0.467344700126,True,False,stimulusHACA03_2IFCnew_2019_Jul_03_1432_593,stimulusHACA03_2IFCnew_2019_Jul_03_1432_594,False,2019_Jul_03_1432,2IFCnew,3,HACA03,
2IFCnew,72,0,72,0,0.167450000066,1,No,8.8,-1,Hit,0.568377499934,True,False,stimulusHACA03_2IFCnew_2019_Jul_03_1432_595,stimulusHACA03_2IFCnew_2019_Jul_03_1432_596,False,2019_Jul_03_1432,2IFCnew,3,HACA03,
2IFCnew,73,0,73,0,0.233607199974,3,No,8.8,-1,False Alarm,0.567334800027,False,True,stimulusHACA03_2IFCnew_2019_Jul_03_1432_597,stimulusHACA03_2IFCnew_2019_Jul_03_1432_598,False,2019_Jul_03_1432,2IFCnew,3,HACA03,
2IFCnew,74,0,74,0,0.0666643001605,1,No,8.8,-1,Hit,0.466677599819,True,False,stimulusHACA03_2IFCnew_2019_Jul_03_1432_599,stimulusHACA03_2IFCnew_2019_Jul_03_1432_600,False,2019_Jul_03_1432,2IFCnew,3,HACA03,
2IFCnew,0,0,0,0,0.534249899909,4,Yes,5.7,-1,Miss,0.766437100014,True,False,stimulusHACA03_2IFCnew_2019_Jul_03_1432_601,stimulusHACA03_2IFCnew_2019_Jul_03_1432_602,False,2019_Jul_03_1432,2IFCnew,3,HACA03,
2IFCnew,1,0,1,0,0.13457250013,3,No,5.7,-1,False Alarm,0.434757099953,False,True,stimulusHACA03_2IFCnew_2019_Jul_03_1432_603,stimulusHACA03_2IFCnew_2019_Jul_03_1432_604,False,2019_Jul_03_1432,2IFCnew,3,HACA03,
2IFCnew,2,0,2,0,0.100640399847,1,No,5.7,-1,Hit,0.466231700033,True,False,stimulusHACA03_2IFCnew_2019_Jul_03_1432_605,stimulusHACA03_2IFCnew_2019_Jul_03_1432_606,False,2019_Jul_03_1432,2IFCnew,3,HACA03,
2IFCnew,3,0,3,0,0.433884799946,5,Yes,5.7,-1,False Alarm,0.533312200103,False,True,stimulusHACA03_2IFCnew_2019_Jul_03_1432_607,stimulusHACA03_2IFCnew_2019_Jul_03_1432_608,False,2019_Jul_03_1432,2IFCnew,3,HACA03,
2IFCnew,4,0,4,0,0.533788000001,5,Yes,5.7,-1,False Alarm,0.466806899989,False,True,stimulusHACA03_2IFCnew_2019_Jul_03_1432_609,stimulusHACA03_2IFCnew_2019_Jul_03_1432_610,False,2019_Jul_03_1432,2IFCnew,3,HACA03,
2IFCnew,5,0,5,0,0.333642699989,5,Yes,5.7,-1,False Alarm,0.367179099936,False,True,stimulusHACA03_2IFCnew_2019_Jul_03_1432_611,stimulusHACA03_2IFCnew_2019_Jul_03_1432_612,False,2019_Jul_03_1432,2IFCnew,3,HACA03,
2IFCnew,6,0,6,0,0.167054500198,1,No,5.7,-1,Hit,0.434674899792,True,False,stimulusHACA03_2IFCnew_2019_Jul_03_1432_613,stimulusHACA03_2IFCnew_2019_Jul_03_1432_614,False,2019_Jul_03_1432,2IFCnew,3,HACA03,
2IFCnew,7,0,7,0,0.234274400165,1,No,5.7,-1,Hit,0.469309399836,True,False,stimulusHACA03_2IFCnew_2019_Jul_03_1432_615,stimulusHACA03_2IFCnew_2019_Jul_03_1432_616,False,2019_Jul_03_1432,2IFCnew,3,HACA03,
2IFCnew,8,0,8,0,0.400685700122,1,No,5.7,-1,Hit,0.467258200049,True,False,stimulusHACA03_2IFCnew_2019_Jul_03_1432_617,stimulusHACA03_2IFCnew_2019_Jul_03_1432_618,False,2019_Jul_03_1432,2IFCnew,3,HACA03,
2IFCnew,9,0,9,0,0.167030100012,1,No,5.7,-1,Hit,0.43382590008,True,False,stimulusHACA03_2IFCnew_2019_Jul_03_1432_619,stimulusHACA03_2IFCnew_2019_Jul_03_1432_620,False,2019_Jul_03_1432,2IFCnew,3,HACA03,
2IFCnew,10,0,10,0,0.0673346000258,1,No,5.7,-1,Hit,0.434742599959,True,False,stimulusHACA03_2IFCnew_2019_Jul_03_1432_621,stimulusHACA03_2IFCnew_2019_Jul_03_1432_622,False,2019_Jul_03_1432,2IFCnew,3,HACA03,
2IFCnew,11,0,11,0,0.63335160003,8,No,5.7,-1,Correct Rejection,0.700506000081,False,True,stimulusHACA03_2IFCnew_2019_Jul_03_1432_623,stimulusHACA03_2IFCnew_2019_Jul_03_1432_624,False,2019_Jul_03_1432,2IFCnew,3,HACA03,
2IFCnew,12,0,12,0,0.0348537000827,1,No,5.7,-1,Hit,0.433546900051,True,False,stimulusHACA03_2IFCnew_2019_Jul_03_1432_625,stimulusHACA03_2IFCnew_2019_Jul_03_1432_626,False,2019_Jul_03_1432,2IFCnew,3,HACA03,
2IFCnew,13,0,13,0,0.233685200103,1,No,5.7,-1,Hit,0.499305299949,True,False,stimulusHACA03_2IFCnew_2019_Jul_03_1432_627,stimulusHACA03_2IFCnew_2019_Jul_03_1432_628,False,2019_Jul_03_1432,2IFCnew,3,HACA03,
2IFCnew,14,0,14,0,0.0663854000159,1,No,5.7,-1,Hit,0.501223499887,True,False,stimulusHACA03_2IFCnew_2019_Jul_03_1432_629,stimulusHACA03_2IFCnew_2019_Jul_03_1432_630,False,2019_Jul_03_1432,2IFCnew,3,HACA03,
2IFCnew,15,0,15,0,0.166987900157,1,No,5.7,-1,Hit,0.50142450002,True,False,stimulusHACA03_2IFCnew_2019_Jul_03_1432_631,stimulusHACA03_2IFCnew_2019_Jul_03_1432_632,False,2019_Jul_03_1432,2IFCnew,3,HACA03,
2IFCnew,16,0,16,0,0.0341990999877,3,No,5.7,-1,False Alarm,0.400617500069,False,True,stimulusHACA03_2IFCnew_2019_Jul_03_1432_633,stimulusHACA03_2IFCnew_2019_Jul_03_1432_634,False,2019_Jul_03_1432,2IFCnew,3,HACA03,
2IFCnew,17,0,17,0,0.200010400033,2,Yes,5.7,-1,Correct Rejection,0.632827599999,False,True,stimulusHACA03_2IFCnew_2019_Jul_03_1432_635,stimulusHACA03_2IFCnew_2019_Jul_03_1432_636,False,2019_Jul_03_1432,2IFCnew,3,HACA03,
2IFCnew,18,0,18,0,0.300127999857,5,Yes,5.7,-1,False Alarm,0.501231099945,False,True,stimulusHACA03_2IFCnew_2019_Jul_03_1432_637,stimulusHACA03_2IFCnew_2019_Jul_03_1432_638,False,2019_Jul_03_1432,2IFCnew,3,HACA03,
2IFCnew,19,0,19,0,0.500709000044,5,Yes,5.7,-1,False Alarm,0.402110999916,False,True,stimulusHACA03_2IFCnew_2019_Jul_03_1432_639,stimulusHACA03_2IFCnew_2019_Jul_03_1432_640,False,2019_Jul_03_1432,2IFCnew,3,HACA03,
2IFCnew,20,0,20,0,0.366409600014,1,No,5.7,-1,Hit,0.400993099902,True,False,stimulusHACA03_2IFCnew_2019_Jul_03_1432_641,stimulusHACA03_2IFCnew_2019_Jul_03_1432_642,False,2019_Jul_03_1432,2IFCnew,3,HACA03,
2IFCnew,21,0,21,0,0.366819399875,1,No,5.7,-1,Hit,0.50057090004,True,False,stimulusHACA03_2IFCnew_2019_Jul_03_1432_643,stimulusHACA03_2IFCnew_2019_Jul_03_1432_644,False,2019_Jul_03_1432,2IFCnew,3,HACA03,
2IFCnew,22,0,22,0,0.265976299997,1,No,5.7,-1,Hit,0.46741900011,True,False,stimulusHACA03_2IFCnew_2019_Jul_03_1432_645,stimulusHACA03_2IFCnew_2019_Jul_03_1432_646,False,2019_Jul_03_1432,2IFCnew,3,HACA03,
2IFCnew,23,0,23,0,0.233956800075,1,No,5.7,-1,Hit,0.467037599999,True,False,stimulusHACA03_2IFCnew_2019_Jul_03_1432_647,stimulusHACA03_2IFCnew_2019_Jul_03_1432_648,False,2019_Jul_03_1432,2IFCnew,3,HACA03,
2IFCnew,24,0,24,0,0.233892599819,5,Yes,5.7,-1,False Alarm,0.434315399965,False,True,stimulusHACA03_2IFCnew_2019_Jul_03_1432_649,stimulusHACA03_2IFCnew_2019_Jul_03_1432_650,False,2019_Jul_03_1432,2IFCnew,3,HACA03,
2IFCnew,25,0,25,0,0.266934500076,1,No,5.7,-1,Hit,0.366811099928,True,False,stimulusHACA03_2IFCnew_2019_Jul_03_1432_651,stimulusHACA03_2IFCnew_2019_Jul_03_1432_652,False,2019_Jul_03_1432,2IFCnew,3,HACA03,
2IFCnew,26,0,26,0,0.334051500075,2,Yes,5.7,-1,Correct Rejection,0.600748999976,False,True,stimulusHACA03_2IFCnew_2019_Jul_03_1432_653,stimulusHACA03_2IFCnew_2019_Jul_03_1432_654,False,2019_Jul_03_1432,2IFCnew,3,HACA03,
2IFCnew,27,0,27,0,0.234214899829,1,No,5.7,-1,Hit,0.501955899876,True,False,stimulusHACA03_2IFCnew_2019_Jul_03_1432_655,stimulusHACA03_2IFCnew_2019_Jul_03_1432_656,False,2019_Jul_03_1432,2IFCnew,3,HACA03,
2IFCnew,28,0,28,0,0.200088400161,1,No,5.7,-1,Hit,0.401459899964,True,False,stimulusHACA03_2IFCnew_2019_Jul_03_1432_657,stimulusHACA03_2IFCnew_2019_Jul_03_1432_658,False,2019_Jul_03_1432,2IFCnew,3,HACA03,
2IFCnew,29,0,29,0,0.267912500072,1,No,5.7,-1,Hit,0.435901999939,True,False,stimulusHACA03_2IFCnew_2019_Jul_03_1432_659,stimulusHACA03_2IFCnew_2019_Jul_03_1432_660,False,2019_Jul_03_1432,2IFCnew,3,HACA03,
2IFCnew,30,0,30,0,0.60086100013,4,Yes,5.7,-1,Miss,0.667467799969,True,False,stimulusHACA03_2IFCnew_2019_Jul_03_1432_661,stimulusHACA03_2IFCnew_2019_Jul_03_1432_662,False,2019_Jul_03_1432,2IFCnew,3,HACA03,
2IFCnew,31,0,31,0,0.334209700115,2,Yes,5.7,-1,Correct Rejection,0.56765179988,False,True,stimulusHACA03_2IFCnew_2019_Jul_03_1432_663,stimulusHACA03_2IFCnew_2019_Jul_03_1432_664,False,2019_Jul_03_1432,2IFCnew,3,HACA03,
2IFCnew,32,0,32,0,0.100295000011,1,No,5.7,-1,Hit,0.433227600064,True,False,stimulusHACA03_2IFCnew_2019_Jul_03_1432_665,stimulusHACA03_2IFCnew_2019_Jul_03_1432_666,False,2019_Jul_03_1432,2IFCnew,3,HACA03,
2IFCnew,33,0,33,0,0.400896500098,1,No,5.7,-1,Hit,0.534085300053,True,False,stimulusHACA03_2IFCnew_2019_Jul_03_1432_667,stimulusHACA03_2IFCnew_2019_Jul_03_1432_668,False,2019_Jul_03_1432,2IFCnew,3,HACA03,
2IFCnew,34,0,34,0,0.333945500199,2,Yes,5.7,-1,Correct Rejection,0.466698700096,False,True,stimulusHACA03_2IFCnew_2019_Jul_03_1432_669,stimulusHACA03_2IFCnew_2019_Jul_03_1432_670,False,2019_Jul_03_1432,2IFCnew,3,HACA03,
2IFCnew,35,0,35,0,0.334082300076,4,Yes,5.7,-1,Miss,0.366578800138,True,False,stimulusHACA03_2IFCnew_2019_Jul_03_1432_671,stimulusHACA03_2IFCnew_2019_Jul_03_1432_672,False,2019_Jul_03_1432,2IFCnew,3,HACA03,
2IFCnew,36,0,36,0,0.434482200071,2,Yes,5.7,-1,Correct Rejection,0.600649900036,False,True,stimulusHACA03_2IFCnew_2019_Jul_03_1432_673,stimulusHACA03_2IFCnew_2019_Jul_03_1432_674,False,2019_Jul_03_1432,2IFCnew,3,HACA03,
2IFCnew,37,0,37,0,0.534037899924,8,No,5.7,-1,Correct Rejection,0.600712700048,False,True,stimulusHACA03_2IFCnew_2019_Jul_03_1432_675,stimulusHACA03_2IFCnew_2019_Jul_03_1432_676,False,2019_Jul_03_1432,2IFCnew,3,HACA03,
2IFCnew,38,0,38,0,0.233955800068,2,Yes,5.7,-1,Correct Rejection,0.465843399987,False,True,stimulusHACA03_2IFCnew_2019_Jul_03_1432_677,stimulusHACA03_2IFCnew_2019_Jul_03_1432_678,False,2019_Jul_03_1432,2IFCnew,3,HACA03,
2IFCnew,39,0,39,0,0.166592200054,1,No,5.7,-1,Hit,0.53441000008,True,False,stimulusHACA03_2IFCnew_2019_Jul_03_1432_679,stimulusHACA03_2IFCnew_2019_Jul_03_1432_680,False,2019_Jul_03_1432,2IFCnew,3,HACA03,
2IFCnew,40,0,40,0,0.234097599983,1,No,5.7,-1,Hit,0.499579099938,True,False,stimulusHACA03_2IFCnew_2019_Jul_03_1432_681,stimulusHACA03_2IFCnew_2019_Jul_03_1432_682,False,2019_Jul_03_1432,2IFCnew,3,HACA03,
2IFCnew,41,0,41,0,0.133829599945,1,No,5.7,-1,Hit,0.502262100112,True,False,stimulusHACA03_2IFCnew_2019_Jul_03_1432_683,stimulusHACA03_2IFCnew_2019_Jul_03_1432_684,False,2019_Jul_03_1432,2IFCnew,3,HACA03,
2IFCnew,42,0,42,0,0.33371749986,2,Yes,5.7,-1,Correct Rejection,0.600093899993,False,True,stimulusHACA03_2IFCnew_2019_Jul_03_1432_685,stimulusHACA03_2IFCnew_2019_Jul_03_1432_686,False,2019_Jul_03_1432,2IFCnew,3,HACA03,
2IFCnew,43,0,43,0,0.333703299984,1,No,5.7,-1,Hit,0.434021299938,True,False,stimulusHACA03_2IFCnew_2019_Jul_03_1432_687,stimulusHACA03_2IFCnew_2019_Jul_03_1432_688,False,2019_Jul_03_1432,2IFCnew,3,HACA03,
2IFCnew,44,0,44,0,0.300258499803,1,No,5.7,-1,Hit,0.533354300074,True,False,stimulusHACA03_2IFCnew_2019_Jul_03_1432_689,stimulusHACA03_2IFCnew_2019_Jul_03_1432_690,False,2019_Jul_03_1432,2IFCnew,3,HACA03,
2IFCnew,45,0,45,0,0.467023100005,3,No,5.7,-1,False Alarm,0.667599699926,False,True,stimulusHACA03_2IFCnew_2019_Jul_03_1432_691,stimulusHACA03_2IFCnew_2019_Jul_03_1432_692,False,2019_Jul_03_1432,2IFCnew,3,HACA03,
2IFCnew,46,0,46,0,0.266499200137,2,Yes,5.7,-1,Correct Rejection,0.468219700037,False,True,stimulusHACA03_2IFCnew_2019_Jul_03_1432_693,stimulusHACA03_2IFCnew_2019_Jul_03_1432_694,False,2019_Jul_03_1432,2IFCnew,3,HACA03,
2IFCnew,47,0,47,0,0.433419200126,2,Yes,5.7,-1,Correct Rejection,0.501518799923,False,True,stimulusHACA03_2IFCnew_2019_Jul_03_1432_695,stimulusHACA03_2IFCnew_2019_Jul_03_1432_696,False,2019_Jul_03_1432,2IFCnew,3,HACA03,
2IFCnew,48,0,48,0,0.434003500035,2,Yes,5.7,-1,Correct Rejection,0.40001930017,False,True,stimulusHACA03_2IFCnew_2019_Jul_03_1432_697,stimulusHACA03_2IFCnew_2019_Jul_03_1432_698,False,2019_Jul_03_1432,2IFCnew,3,HACA03,
2IFCnew,49,0,49,0,0.366621499881,2,Yes,5.7,-1,Correct Rejection,0.466058900114,False,True,stimulusHACA03_2IFCnew_2019_Jul_03_1432_699,stimulusHACA03_2IFCnew_2019_Jul_03_1432_700,False,2019_Jul_03_1432,2IFCnew,3,HACA03,
2IFCnew,50,0,50,0,0.634200100088,2,Yes,5.7,-1,Correct Rejection,0.50078230002,False,True,stimulusHACA03_2IFCnew_2019_Jul_03_1432_701,stimulusHACA03_2IFCnew_2019_Jul_03_1432_702,False,2019_Jul_03_1432,2IFCnew,3,HACA03,
2IFCnew,51,0,51,0,0.266570300097,1,No,5.7,-1,Hit,0.467070499901,True,False,stimulusHACA03_2IFCnew_2019_Jul_03_1432_703,stimulusHACA03_2IFCnew_2019_Jul_03_1432_704,False,2019_Jul_03_1432,2IFCnew,3,HACA03,
2IFCnew,52,0,52,0,0.0663670999929,1,No,5.7,-1,Hit,0.500530899968,True,False,stimulusHACA03_2IFCnew_2019_Jul_03_1432_705,stimulusHACA03_2IFCnew_2019_Jul_03_1432_706,False,2019_Jul_03_1432,2IFCnew,3,HACA03,
2IFCnew,53,0,53,0,0.333718300099,2,Yes,5.7,-1,Correct Rejection,0.634588900022,False,True,stimulusHACA03_2IFCnew_2019_Jul_03_1432_707,stimulusHACA03_2IFCnew_2019_Jul_03_1432_708,False,2019_Jul_03_1432,2IFCnew,3,HACA03,
2IFCnew,54,0,54,0,0.400848200079,6,No,5.7,-1,Miss,0.400883600116,True,False,stimulusHACA03_2IFCnew_2019_Jul_03_1432_709,stimulusHACA03_2IFCnew_2019_Jul_03_1432_710,False,2019_Jul_03_1432,2IFCnew,3,HACA03,
2IFCnew,55,0,55,0,0.433014800074,6,No,5.7,-1,Miss,0.534016299993,True,False,stimulusHACA03_2IFCnew_2019_Jul_03_1432_711,stimulusHACA03_2IFCnew_2019_Jul_03_1432_712,False,2019_Jul_03_1432,2IFCnew,3,HACA03,
2IFCnew,56,0,56,0,0.266773100011,1,No,5.7,-1,Hit,0.566952999914,True,False,stimulusHACA03_2IFCnew_2019_Jul_03_1432_713,stimulusHACA03_2IFCnew_2019_Jul_03_1432_714,False,2019_Jul_03_1432,2IFCnew,3,HACA03,
2IFCnew,57,0,57,0,0.500940399943,2,Yes,5.7,-1,Correct Rejection,0.567905100062,False,True,stimulusHACA03_2IFCnew_2019_Jul_03_1432_715,stimulusHACA03_2IFCnew_2019_Jul_03_1432_716,False,2019_Jul_03_1432,2IFCnew,3,HACA03,
2IFCnew,58,0,58,0,0.501050699968,2,Yes,5.7,-1,Correct Rejection,0.433470099932,False,True,stimulusHACA03_2IFCnew_2019_Jul_03_1432_717,stimulusHACA03_2IFCnew_2019_Jul_03_1432_718,False,2019_Jul_03_1432,2IFCnew,3,HACA03,
2IFCnew,59,0,59,0,0.267072299961,1,No,5.7,-1,Hit,0.467439399799,True,False,stimulusHACA03_2IFCnew_2019_Jul_03_1432_719,stimulusHACA03_2IFCnew_2019_Jul_03_1432_720,False,2019_Jul_03_1432,2IFCnew,3,HACA03,
2IFCnew,60,0,60,0,0.534180999966,5,Yes,5.7,-1,False Alarm,0.600862100022,False,True,stimulusHACA03_2IFCnew_2019_Jul_03_1432_721,stimulusHACA03_2IFCnew_2019_Jul_03_1432_722,False,2019_Jul_03_1432,2IFCnew,3,HACA03,
2IFCnew,61,0,61,0,0.466950200032,2,Yes,5.7,-1,Correct Rejection,0.535428199917,False,True,stimulusHACA03_2IFCnew_2019_Jul_03_1432_723,stimulusHACA03_2IFCnew_2019_Jul_03_1432_724,False,2019_Jul_03_1432,2IFCnew,3,HACA03,
2IFCnew,62,0,62,0,0.432005399838,1,No,5.7,-1,Hit,0.467571899993,True,False,stimulusHACA03_2IFCnew_2019_Jul_03_1432_725,stimulusHACA03_2IFCnew_2019_Jul_03_1432_726,False,2019_Jul_03_1432,2IFCnew,3,HACA03,
2IFCnew,63,0,63,0,0.601539199939,5,Yes,5.7,-1,False Alarm,0.568836800056,False,True,stimulusHACA03_2IFCnew_2019_Jul_03_1432_727,stimulusHACA03_2IFCnew_2019_Jul_03_1432_728,False,2019_Jul_03_1432,2IFCnew,3,HACA03,
2IFCnew,64,0,64,0,0.601035800064,3,No,5.7,-1,False Alarm,0.466656799894,False,True,stimulusHACA03_2IFCnew_2019_Jul_03_1432_729,stimulusHACA03_2IFCnew_2019_Jul_03_1432_730,False,2019_Jul_03_1432,2IFCnew,3,HACA03,
2IFCnew,65,0,65,0,0.43431599997,1,No,5.7,-1,Hit,0.467801199993,True,False,stimulusHACA03_2IFCnew_2019_Jul_03_1432_731,stimulusHACA03_2IFCnew_2019_Jul_03_1432_732,False,2019_Jul_03_1432,2IFCnew,3,HACA03,
2IFCnew,66,0,66,0,0.467964100186,2,Yes,5.7,-1,Correct Rejection,0.534035199787,False,True,stimulusHACA03_2IFCnew_2019_Jul_03_1432_733,stimulusHACA03_2IFCnew_2019_Jul_03_1432_734,False,2019_Jul_03_1432,2IFCnew,3,HACA03,
2IFCnew,67,0,67,0,0.600910500158,6,No,5.7,-1,Miss,0.468467599945,True,False,stimulusHACA03_2IFCnew_2019_Jul_03_1432_735,stimulusHACA03_2IFCnew_2019_Jul_03_1432_736,False,2019_Jul_03_1432,2IFCnew,3,HACA03,
2IFCnew,68,0,68,0,0.499726600014,3,No,5.7,-1,False Alarm,0.602531899931,False,True,stimulusHACA03_2IFCnew_2019_Jul_03_1432_737,stimulusHACA03_2IFCnew_2019_Jul_03_1432_738,False,2019_Jul_03_1432,2IFCnew,3,HACA03,
2IFCnew,69,0,69,0,0.166233000113,1,No,5.7,-1,Hit,0.467754599871,True,False,stimulusHACA03_2IFCnew_2019_Jul_03_1432_739,stimulusHACA03_2IFCnew_2019_Jul_03_1432_740,False,2019_Jul_03_1432,2IFCnew,3,HACA03,
2IFCnew,70,0,70,0,0.367612000089,1,No,5.7,-1,Hit,0.467857799958,True,False,stimulusHACA03_2IFCnew_2019_Jul_03_1432_741,stimulusHACA03_2IFCnew_2019_Jul_03_1432_742,False,2019_Jul_03_1432,2IFCnew,3,HACA03,
2IFCnew,71,0,71,0,0.134306099964,1,No,5.7,-1,Hit,0.467750699958,True,False,stimulusHACA03_2IFCnew_2019_Jul_03_1432_743,stimulusHACA03_2IFCnew_2019_Jul_03_1432_744,False,2019_Jul_03_1432,2IFCnew,3,HACA03,
2IFCnew,72,0,72,0,0.167180399876,1,No,5.7,-1,Hit,0.500540100038,True,False,stimulusHACA03_2IFCnew_2019_Jul_03_1432_745,stimulusHACA03_2IFCnew_2019_Jul_03_1432_746,False,2019_Jul_03_1432,2IFCnew,3,HACA03,
2IFCnew,73,0,73,0,0.233122000005,2,Yes,5.7,-1,Correct Rejection,0.567540299846,False,True,stimulusHACA03_2IFCnew_2019_Jul_03_1432_747,stimulusHACA03_2IFCnew_2019_Jul_03_1432_748,False,2019_Jul_03_1432,2IFCnew,3,HACA03,
2IFCnew,74,0,74,0,0.400064800167,1,No,5.7,-1,Hit,0.568397700088,True,False,stimulusHACA03_2IFCnew_2019_Jul_03_1432_749,stimulusHACA03_2IFCnew_2019_Jul_03_1432_750,False,2019_Jul_03_1432,2IFCnew,3,HACA03,
2IFCnew,0,0,0,0,0.0665182999801,2,Yes,7.8,-1,Correct Rejection,0.433940599905,False,True,stimulusHACA03_2IFCnew_2019_Jul_03_1432_751,stimulusHACA03_2IFCnew_2019_Jul_03_1432_752,False,2019_Jul_03_1432,2IFCnew,3,HACA03,
2IFCnew,1,0,1,0,0.199942499865,2,Yes,7.8,-1,Correct Rejection,0.467515400145,False,True,stimulusHACA03_2IFCnew_2019_Jul_03_1432_753,stimulusHACA03_2IFCnew_2019_Jul_03_1432_754,False,2019_Jul_03_1432,2IFCnew,3,HACA03,
2IFCnew,2,0,2,0,0.267579300096,2,Yes,7.8,-1,Correct Rejection,0.400867600227,False,True,stimulusHACA03_2IFCnew_2019_Jul_03_1432_755,stimulusHACA03_2IFCnew_2019_Jul_03_1432_756,False,2019_Jul_03_1432,2IFCnew,3,HACA03,
2IFCnew,3,0,3,0,0.300695900107,2,Yes,7.8,-1,Correct Rejection,0.467214399949,False,True,stimulusHACA03_2IFCnew_2019_Jul_03_1432_757,stimulusHACA03_2IFCnew_2019_Jul_03_1432_758,False,2019_Jul_03_1432,2IFCnew,3,HACA03,
2IFCnew,4,0,4,0,0.132195400074,1,No,7.8,-1,Hit,0.501190099865,True,False,stimulusHACA03_2IFCnew_2019_Jul_03_1432_759,stimulusHACA03_2IFCnew_2019_Jul_03_1432_760,False,2019_Jul_03_1432,2IFCnew,3,HACA03,
2IFCnew,5,0,5,0,0.300599999959,1,No,7.8,-1,Hit,0.500134799862,True,False,stimulusHACA03_2IFCnew_2019_Jul_03_1432_761,stimulusHACA03_2IFCnew_2019_Jul_03_1432_762,False,2019_Jul_03_1432,2IFCnew,3,HACA03,
2IFCnew,6,0,6,0,0.567063499941,8,No,7.8,-1,Correct Rejection,0.568683899939,False,True,stimulusHACA03_2IFCnew_2019_Jul_03_1432_763,stimulusHACA03_2IFCnew_2019_Jul_03_1432_764,False,2019_Jul_03_1432,2IFCnew,3,HACA03,
2IFCnew,7,0,7,0,0.266922299983,2,Yes,7.8,-1,Correct Rejection,0.466302999994,False,True,stimulusHACA03_2IFCnew_2019_Jul_03_1432_765,stimulusHACA03_2IFCnew_2019_Jul_03_1432_766,False,2019_Jul_03_1432,2IFCnew,3,HACA03,
2IFCnew,8,0,8,0,0.499843799975,2,Yes,7.8,-1,Correct Rejection,0.501780600054,False,True,stimulusHACA03_2IFCnew_2019_Jul_03_1432_767,stimulusHACA03_2IFCnew_2019_Jul_03_1432_768,False,2019_Jul_03_1432,2IFCnew,3,HACA03,
2IFCnew,9,0,9,0,0.167471199995,2,Yes,7.8,-1,Correct Rejection,0.434210000094,False,True,stimulusHACA03_2IFCnew_2019_Jul_03_1432_769,stimulusHACA03_2IFCnew_2019_Jul_03_1432_770,False,2019_Jul_03_1432,2IFCnew,3,HACA03,
2IFCnew,10,0,10,0,0.333844099892,2,Yes,7.8,-1,Correct Rejection,0.400309600169,False,True,stimulusHACA03_2IFCnew_2019_Jul_03_1432_771,stimulusHACA03_2IFCnew_2019_Jul_03_1432_772,False,2019_Jul_03_1432,2IFCnew,3,HACA03,
2IFCnew,11,0,11,0,0.166950999992,1,No,7.8,-1,Hit,0.501389599871,True,False,stimulusHACA03_2IFCnew_2019_Jul_03_1432_773,stimulusHACA03_2IFCnew_2019_Jul_03_1432_774,False,2019_Jul_03_1432,2IFCnew,3,HACA03,
2IFCnew,12,0,12,0,0.233775299974,2,Yes,7.8,-1,Correct Rejection,0.502003500005,False,True,stimulusHACA03_2IFCnew_2019_Jul_03_1432_775,stimulusHACA03_2IFCnew_2019_Jul_03_1432_776,False,2019_Jul_03_1432,2IFCnew,3,HACA03,
2IFCnew,13,0,13,0,0.0670537999831,1,No,7.8,-1,Hit,0.433414699975,True,False,stimulusHACA03_2IFCnew_2019_Jul_03_1432_777,stimulusHACA03_2IFCnew_2019_Jul_03_1432_778,False,2019_Jul_03_1432,2IFCnew,3,HACA03,
2IFCnew,14,0,14,0,0.26747319987,3,No,7.8,-1,False Alarm,0.500675200019,False,True,stimulusHACA03_2IFCnew_2019_Jul_03_1432_779,stimulusHACA03_2IFCnew_2019_Jul_03_1432_780,False,2019_Jul_03_1432,2IFCnew,3,HACA03,
2IFCnew,15,0,15,0,0.199997199932,2,Yes,7.8,-1,Correct Rejection,0.502113899915,False,True,stimulusHACA03_2IFCnew_2019_Jul_03_1432_781,stimulusHACA03_2IFCnew_2019_Jul_03_1432_782,False,2019_Jul_03_1432,2IFCnew,3,HACA03,
2IFCnew,16,0,16,0,0.066443500109,1,No,7.8,-1,Hit,0.334014199907,True,False,stimulusHACA03_2IFCnew_2019_Jul_03_1432_783,stimulusHACA03_2IFCnew_2019_Jul_03_1432_784,False,2019_Jul_03_1432,2IFCnew,3,HACA03,
2IFCnew,17,0,17,0,0.499413499841,6,No,7.8,-1,Miss,0.467152000172,True,False,stimulusHACA03_2IFCnew_2019_Jul_03_1432_785,stimulusHACA03_2IFCnew_2019_Jul_03_1432_786,False,2019_Jul_03_1432,2IFCnew,3,HACA03,
2IFCnew,18,0,18,0,0.199510300066,3,No,7.8,-1,False Alarm,0.602009400027,False,True,stimulusHACA03_2IFCnew_2019_Jul_03_1432_787,stimulusHACA03_2IFCnew_2019_Jul_03_1432_788,False,2019_Jul_03_1432,2IFCnew,3,HACA03,
2IFCnew,19,0,19,0,0.367048399989,1,No,7.8,-1,Hit,0.435611800058,True,False,stimulusHACA03_2IFCnew_2019_Jul_03_1432_789,stimulusHACA03_2IFCnew_2019_Jul_03_1432_790,False,2019_Jul_03_1432,2IFCnew,3,HACA03,
2IFCnew,20,0,20,0,0.233495000051,1,No,7.8,-1,Hit,0.501388099976,True,False,stimulusHACA03_2IFCnew_2019_Jul_03_1432_791,stimulusHACA03_2IFCnew_2019_Jul_03_1432_792,False,2019_Jul_03_1432,2IFCnew,3,HACA03,
2IFCnew,21,0,21,0,0.199873700039,1,No,7.8,-1,Hit,0.401602800004,True,False,stimulusHACA03_2IFCnew_2019_Jul_03_1432_793,stimulusHACA03_2IFCnew_2019_Jul_03_1432_794,False,2019_Jul_03_1432,2IFCnew,3,HACA03,
2IFCnew,22,0,22,0,0.233272900106,2,Yes,7.8,-1,Correct Rejection,0.600850600051,False,True,stimulusHACA03_2IFCnew_2019_Jul_03_1432_795,stimulusHACA03_2IFCnew_2019_Jul_03_1432_796,False,2019_Jul_03_1432,2IFCnew,3,HACA03,
2IFCnew,23,0,23,0,0.467812000075,8,No,7.8,-1,Correct Rejection,0.500854199985,False,True,stimulusHACA03_2IFCnew_2019_Jul_03_1432_797,stimulusHACA03_2IFCnew_2019_Jul_03_1432_798,False,2019_Jul_03_1432,2IFCnew,3,HACA03,
2IFCnew,24,0,24,0,0.433918300085,2,Yes,7.8,-1,Correct Rejection,0.466854600003,False,True,stimulusHACA03_2IFCnew_2019_Jul_03_1432_799,stimulusHACA03_2IFCnew_2019_Jul_03_1432_800,False,2019_Jul_03_1432,2IFCnew,3,HACA03,
2IFCnew,25,0,25,0,-1,1,Yes,7.8,-1,Hit,0.467016499955,True,False,stimulusHACA03_2IFCnew_2019_Jul_03_1432_801,stimulusHACA03_2IFCnew_2019_Jul_03_1432_802,False,2019_Jul_03_1432,2IFCnew,3,HACA03,
2IFCnew,26,0,26,0,-1,1,Yes,7.8,-1,Hit,0.369305900065,True,False,stimulusHACA03_2IFCnew_2019_Jul_03_1432_803,stimulusHACA03_2IFCnew_2019_Jul_03_1432_804,False,2019_Jul_03_1432,2IFCnew,3,HACA03,
2IFCnew,27,0,27,0,0.0666747000068,2,Yes,7.8,-1,Correct Rejection,0.400467999978,False,True,stimulusHACA03_2IFCnew_2019_Jul_03_1432_805,stimulusHACA03_2IFCnew_2019_Jul_03_1432_806,False,2019_Jul_03_1432,2IFCnew,3,HACA03,
2IFCnew,28,0,28,0,0.333631699905,2,Yes,7.8,-1,Correct Rejection,0.533660499845,False,True,stimulusHACA03_2IFCnew_2019_Jul_03_1432_807,stimulusHACA03_2IFCnew_2019_Jul_03_1432_808,False,2019_Jul_03_1432,2IFCnew,3,HACA03,
2IFCnew,29,0,29,0,0.033790100133,1,No,7.8,-1,Hit,0.467752899975,True,False,stimulusHACA03_2IFCnew_2019_Jul_03_1432_809,stimulusHACA03_2IFCnew_2019_Jul_03_1432_810,False,2019_Jul_03_1432,2IFCnew,3,HACA03,
2IFCnew,30,0,30,0,0.0336972998921,1,No,7.8,-1,Hit,0.435033999849,True,False,stimulusHACA03_2IFCnew_2019_Jul_03_1432_811,stimulusHACA03_2IFCnew_2019_Jul_03_1432_812,False,2019_Jul_03_1432,2IFCnew,3,HACA03,
2IFCnew,31,0,31,0,0.0675150000025,2,Yes,7.8,-1,Correct Rejection,0.500865099952,False,True,stimulusHACA03_2IFCnew_2019_Jul_03_1432_813,stimulusHACA03_2IFCnew_2019_Jul_03_1432_814,False,2019_Jul_03_1432,2IFCnew,3,HACA03,
2IFCnew,32,0,32,0,0.20129649993,2,Yes,7.8,-1,Correct Rejection,0.468802300049,False,True,stimulusHACA03_2IFCnew_2019_Jul_03_1432_815,stimulusHACA03_2IFCnew_2019_Jul_03_1432_816,False,2019_Jul_03_1432,2IFCnew,3,HACA03,
2IFCnew,33,0,33,0,0.200459299842,2,Yes,7.8,-1,Correct Rejection,0.500001600012,False,True,stimulusHACA03_2IFCnew_2019_Jul_03_1432_817,stimulusHACA03_2IFCnew_2019_Jul_03_1432_818,False,2019_Jul_03_1432,2IFCnew,3,HACA03,
2IFCnew,34,0,34,0,0.0671607998665,1,No,7.8,-1,Hit,0.533481799997,True,False,stimulusHACA03_2IFCnew_2019_Jul_03_1432_819,stimulusHACA03_2IFCnew_2019_Jul_03_1432_820,False,2019_Jul_03_1432,2IFCnew,3,HACA03,
2IFCnew,35,0,35,0,0.366444099927,2,Yes,7.8,-1,Correct Rejection,0.499968799995,False,True,stimulusHACA03_2IFCnew_2019_Jul_03_1432_821,stimulusHACA03_2IFCnew_2019_Jul_03_1432_822,False,2019_Jul_03_1432,2IFCnew,3,HACA03,
2IFCnew,36,0,36,0,0.100143800024,1,No,7.8,-1,Hit,0.500542399939,True,False,stimulusHACA03_2IFCnew_2019_Jul_03_1432_823,stimulusHACA03_2IFCnew_2019_Jul_03_1432_824,False,2019_Jul_03_1432,2IFCnew,3,HACA03,
2IFCnew,37,0,37,0,0.133850699989,1,No,7.8,-1,Hit,0.469237399986,True,False,stimulusHACA03_2IFCnew_2019_Jul_03_1432_825,stimulusHACA03_2IFCnew_2019_Jul_03_1432_826,False,2019_Jul_03_1432,2IFCnew,3,HACA03,
2IFCnew,38,0,38,0,0.500752800144,8,No,7.8,-1,Correct Rejection,0.567559099989,False,True,stimulusHACA03_2IFCnew_2019_Jul_03_1432_827,stimulusHACA03_2IFCnew_2019_Jul_03_1432_828,False,2019_Jul_03_1432,2IFCnew,3,HACA03,
2IFCnew,39,0,39,0,0.400213399902,1,No,7.8,-1,Hit,0.467415299965,True,False,stimulusHACA03_2IFCnew_2019_Jul_03_1432_829,stimulusHACA03_2IFCnew_2019_Jul_03_1432_830,False,2019_Jul_03_1432,2IFCnew,3,HACA03,
2IFCnew,40,0,40,0,0.236648099963,1,No,7.8,-1,Hit,0.401013500057,True,False,stimulusHACA03_2IFCnew_2019_Jul_03_1432_831,stimulusHACA03_2IFCnew_2019_Jul_03_1432_832,False,2019_Jul_03_1432,2IFCnew,3,HACA03,
2IFCnew,41,0,41,0,-1,1,No,7.8,-1,Hit,0.301287699956,True,False,stimulusHACA03_2IFCnew_2019_Jul_03_1432_833,stimulusHACA03_2IFCnew_2019_Jul_03_1432_834,False,2019_Jul_03_1432,2IFCnew,3,HACA03,
2IFCnew,42,0,42,0,0.100550099974,1,No,7.8,-1,Hit,0.433896499919,True,False,stimulusHACA03_2IFCnew_2019_Jul_03_1432_835,stimulusHACA03_2IFCnew_2019_Jul_03_1432_836,False,2019_Jul_03_1432,2IFCnew,3,HACA03,
2IFCnew,43,0,43,0,0.266774900025,2,Yes,7.8,-1,Correct Rejection,0.567466799868,False,True,stimulusHACA03_2IFCnew_2019_Jul_03_1432_837,stimulusHACA03_2IFCnew_2019_Jul_03_1432_838,False,2019_Jul_03_1432,2IFCnew,3,HACA03,
2IFCnew,44,0,44,0,0.167047300143,2,Yes,7.8,-1,Correct Rejection,0.467665500008,False,True,stimulusHACA03_2IFCnew_2019_Jul_03_1432_839,stimulusHACA03_2IFCnew_2019_Jul_03_1432_840,False,2019_Jul_03_1432,2IFCnew,3,HACA03,
2IFCnew,45,0,45,0,0.467426399933,6,No,7.8,-1,Miss,0.39936010004,True,False,stimulusHACA03_2IFCnew_2019_Jul_03_1432_841,stimulusHACA03_2IFCnew_2019_Jul_03_1432_842,False,2019_Jul_03_1432,2IFCnew,3,HACA03,
2IFCnew,46,0,46,0,0.132780600106,1,No,7.8,-1,Hit,0.434237699956,True,False,stimulusHACA03_2IFCnew_2019_Jul_03_1432_843,stimulusHACA03_2IFCnew_2019_Jul_03_1432_844,False,2019_Jul_03_1432,2IFCnew,3,HACA03,
2IFCnew,47,0,47,0,0.0996098001488,1,No,7.8,-1,Hit,0.433294099988,True,False,stimulusHACA03_2IFCnew_2019_Jul_03_1432_845,stimulusHACA03_2IFCnew_2019_Jul_03_1432_846,False,2019_Jul_03_1432,2IFCnew,3,HACA03,
2IFCnew,48,0,48,0,0.166709900135,1,No,7.8,-1,Hit,0.435099099996,True,False,stimulusHACA03_2IFCnew_2019_Jul_03_1432_847,stimulusHACA03_2IFCnew_2019_Jul_03_1432_848,False,2019_Jul_03_1432,2IFCnew,3,HACA03,
2IFCnew,49,0,49,0,0.100069799926,1,No,7.8,-1,Hit,0.398686700035,True,False,stimulusHACA03_2IFCnew_2019_Jul_03_1432_849,stimulusHACA03_2IFCnew_2019_Jul_03_1432_850,False,2019_Jul_03_1432,2IFCnew,3,HACA03,
2IFCnew,50,0,50,0,0.067017500056,1,No,7.8,-1,Hit,0.433391100029,True,False,stimulusHACA03_2IFCnew_2019_Jul_03_1432_851,stimulusHACA03_2IFCnew_2019_Jul_03_1432_852,False,2019_Jul_03_1432,2IFCnew,3,HACA03,
2IFCnew,51,0,51,0,0.101334500127,1,No,7.8,-1,Hit,0.400666699978,True,False,stimulusHACA03_2IFCnew_2019_Jul_03_1432_853,stimulusHACA03_2IFCnew_2019_Jul_03_1432_854,False,2019_Jul_03_1432,2IFCnew,3,HACA03,
2IFCnew,52,0,52,0,0.134869500063,2,Yes,7.8,-1,Correct Rejection,0.500457300106,False,True,stimulusHACA03_2IFCnew_2019_Jul_03_1432_855,stimulusHACA03_2IFCnew_2019_Jul_03_1432_856,False,2019_Jul_03_1432,2IFCnew,3,HACA03,
2IFCnew,53,0,53,0,0.068475499982,1,No,7.8,-1,Hit,0.467846999876,True,False,stimulusHACA03_2IFCnew_2019_Jul_03_1432_857,stimulusHACA03_2IFCnew_2019_Jul_03_1432_858,False,2019_Jul_03_1432,2IFCnew,3,HACA03,
2IFCnew,54,0,54,0,0.0673660000321,1,No,7.8,-1,Hit,0.434024899965,True,False,stimulusHACA03_2IFCnew_2019_Jul_03_1432_859,stimulusHACA03_2IFCnew_2019_Jul_03_1432_860,False,2019_Jul_03_1432,2IFCnew,3,HACA03,
2IFCnew,55,0,55,0,0.0349017998669,1,No,7.8,-1,Hit,0.400859500049,True,False,stimulusHACA03_2IFCnew_2019_Jul_03_1432_861,stimulusHACA03_2IFCnew_2019_Jul_03_1432_862,False,2019_Jul_03_1432,2IFCnew,3,HACA03,
2IFCnew,56,0,56,0,0.0673148999922,3,No,7.8,-1,False Alarm,0.400488500018,False,True,stimulusHACA03_2IFCnew_2019_Jul_03_1432_863,stimulusHACA03_2IFCnew_2019_Jul_03_1432_864,False,2019_Jul_03_1432,2IFCnew,3,HACA03,
2IFCnew,57,0,57,0,0.53324889997,5,Yes,7.8,-1,False Alarm,0.467253300129,False,True,stimulusHACA03_2IFCnew_2019_Jul_03_1432_865,stimulusHACA03_2IFCnew_2019_Jul_03_1432_866,False,2019_Jul_03_1432,2IFCnew,3,HACA03,
2IFCnew,58,0,58,0,0.501331999898,5,Yes,7.8,-1,False Alarm,0.500772499945,False,True,stimulusHACA03_2IFCnew_2019_Jul_03_1432_867,stimulusHACA03_2IFCnew_2019_Jul_03_1432_868,False,2019_Jul_03_1432,2IFCnew,3,HACA03,
2IFCnew,59,0,59,0,0.434750099899,3,No,7.8,-1,False Alarm,0.470118500059,False,True,stimulusHACA03_2IFCnew_2019_Jul_03_1432_869,stimulusHACA03_2IFCnew_2019_Jul_03_1432_870,False,2019_Jul_03_1432,2IFCnew,3,HACA03,
2IFCnew,60,0,60,0,0.366720299935,1,No,7.8,-1,Hit,0.467241900042,True,False,stimulusHACA03_2IFCnew_2019_Jul_03_1432_871,stimulusHACA03_2IFCnew_2019_Jul_03_1432_872,False,2019_Jul_03_1432,2IFCnew,3,HACA03,
2IFCnew,61,0,61,0,0.13392199995,2,Yes,7.8,-1,Correct Rejection,0.502027699957,False,True,stimulusHACA03_2IFCnew_2019_Jul_03_1432_873,stimulusHACA03_2IFCnew_2019_Jul_03_1432_874,False,2019_Jul_03_1432,2IFCnew,3,HACA03,
2IFCnew,62,0,62,0,0.43375119986,6,No,7.8,-1,Miss,0.502826300217,True,False,stimulusHACA03_2IFCnew_2019_Jul_03_1432_875,stimulusHACA03_2IFCnew_2019_Jul_03_1432_876,False,2019_Jul_03_1432,2IFCnew,3,HACA03,
2IFCnew,63,0,63,0,0.234196499921,2,Yes,7.8,-1,Correct Rejection,0.531205800129,False,True,stimulusHACA03_2IFCnew_2019_Jul_03_1432_877,stimulusHACA03_2IFCnew_2019_Jul_03_1432_878,False,2019_Jul_03_1432,2IFCnew,3,HACA03,
2IFCnew,64,0,64,0,0.16761470004,1,No,7.8,-1,Hit,0.567545800004,True,False,stimulusHACA03_2IFCnew_2019_Jul_03_1432_879,stimulusHACA03_2IFCnew_2019_Jul_03_1432_880,False,2019_Jul_03_1432,2IFCnew,3,HACA03,
2IFCnew,65,0,65,0,0.13410900021,2,Yes,7.8,-1,Correct Rejection,0.433634399902,False,True,stimulusHACA03_2IFCnew_2019_Jul_03_1432_881,stimulusHACA03_2IFCnew_2019_Jul_03_1432_882,False,2019_Jul_03_1432,2IFCnew,3,HACA03,
2IFCnew,66,0,66,0,0.10051629995,2,Yes,7.8,-1,Correct Rejection,0.432862300193,False,True,stimulusHACA03_2IFCnew_2019_Jul_03_1432_883,stimulusHACA03_2IFCnew_2019_Jul_03_1432_884,False,2019_Jul_03_1432,2IFCnew,3,HACA03,
2IFCnew,67,0,67,0,0.400686500128,8,No,7.8,-1,Correct Rejection,0.567017300054,False,True,stimulusHACA03_2IFCnew_2019_Jul_03_1432_885,stimulusHACA03_2IFCnew_2019_Jul_03_1432_886,False,2019_Jul_03_1432,2IFCnew,3,HACA03,
2IFCnew,68,0,68,0,0.367166200187,2,Yes,7.8,-1,Correct Rejection,0.400211700005,False,True,stimulusHACA03_2IFCnew_2019_Jul_03_1432_887,stimulusHACA03_2IFCnew_2019_Jul_03_1432_888,False,2019_Jul_03_1432,2IFCnew,3,HACA03,
2IFCnew,69,0,69,0,0.40029609995,3,No,7.8,-1,False Alarm,0.535758199869,False,True,stimulusHACA03_2IFCnew_2019_Jul_03_1432_889,stimulusHACA03_2IFCnew_2019_Jul_03_1432_890,False,2019_Jul_03_1432,2IFCnew,3,HACA03,
2IFCnew,70,0,70,0,0.200277700089,1,No,7.8,-1,Hit,0.367056400049,True,False,stimulusHACA03_2IFCnew_2019_Jul_03_1432_891,stimulusHACA03_2IFCnew_2019_Jul_03_1432_892,False,2019_Jul_03_1432,2IFCnew,3,HACA03,
2IFCnew,71,0,71,0,0.200147299794,2,Yes,7.8,-1,Correct Rejection,0.532836399972,False,True,stimulusHACA03_2IFCnew_2019_Jul_03_1432_893,stimulusHACA03_2IFCnew_2019_Jul_03_1432_894,False,2019_Jul_03_1432,2IFCnew,3,HACA03,
2IFCnew,72,0,72,0,0.633823599899,6,No,7.8,-1,Miss,0.567351399921,True,False,stimulusHACA03_2IFCnew_2019_Jul_03_1432_895,stimulusHACA03_2IFCnew_2019_Jul_03_1432_896,False,2019_Jul_03_1432,2IFCnew,3,HACA03,
2IFCnew,73,0,73,0,0.467910100007,2,Yes,7.8,-1,Correct Rejection,0.467184100067,False,True,stimulusHACA03_2IFCnew_2019_Jul_03_1432_897,stimulusHACA03_2IFCnew_2019_Jul_03_1432_898,False,2019_Jul_03_1432,2IFCnew,3,HACA03,
2IFCnew,74,0,74,0,0.0677779000252,1,No,7.8,-1,Hit,0.500454399968,True,False,stimulusHACA03_2IFCnew_2019_Jul_03_1432_899,stimulusHACA03_2IFCnew_2019_Jul_03_1432_900,False,2019_Jul_03_1432,2IFCnew,3,HACA03,
2IFCnew,0,0,0,0,0.73424130003,2,Yes,6.7,-1,Correct Rejection,0.499802400125,False,True,stimulusHACA03_2IFCnew_2019_Jul_03_1432_901,stimulusHACA03_2IFCnew_2019_Jul_03_1432_902,False,2019_Jul_03_1432,2IFCnew,3,HACA03,
2IFCnew,1,0,1,0,0.134003299987,2,Yes,6.7,-1,Correct Rejection,0.467199099949,False,True,stimulusHACA03_2IFCnew_2019_Jul_03_1432_903,stimulusHACA03_2IFCnew_2019_Jul_03_1432_904,False,2019_Jul_03_1432,2IFCnew,3,HACA03,
2IFCnew,2,0,2,0,0.100327000022,1,No,6.7,-1,Hit,0.432756000198,True,False,stimulusHACA03_2IFCnew_2019_Jul_03_1432_905,stimulusHACA03_2IFCnew_2019_Jul_03_1432_906,False,2019_Jul_03_1432,2IFCnew,3,HACA03,
2IFCnew,3,0,3,0,0.133984999964,1,No,6.7,-1,Hit,0.501010299893,True,False,stimulusHACA03_2IFCnew_2019_Jul_03_1432_907,stimulusHACA03_2IFCnew_2019_Jul_03_1432_908,False,2019_Jul_03_1432,2IFCnew,3,HACA03,
2IFCnew,4,0,4,0,0.0665851999074,1,No,6.7,-1,Hit,0.466927099973,True,False,stimulusHACA03_2IFCnew_2019_Jul_03_1432_909,stimulusHACA03_2IFCnew_2019_Jul_03_1432_910,False,2019_Jul_03_1432,2IFCnew,3,HACA03,
2IFCnew,5,0,5,0,0.334070399869,3,No,6.7,-1,False Alarm,0.501305700047,False,True,stimulusHACA03_2IFCnew_2019_Jul_03_1432_911,stimulusHACA03_2IFCnew_2019_Jul_03_1432_912,False,2019_Jul_03_1432,2IFCnew,3,HACA03,
2IFCnew,6,0,6,0,0.132547999965,1,No,6.7,-1,Hit,0.434103899868,True,False,stimulusHACA03_2IFCnew_2019_Jul_03_1432_913,stimulusHACA03_2IFCnew_2019_Jul_03_1432_914,False,2019_Jul_03_1432,2IFCnew,3,HACA03,
2IFCnew,7,0,7,0,0.166927099926,5,Yes,6.7,-1,False Alarm,0.500817999942,False,True,stimulusHACA03_2IFCnew_2019_Jul_03_1432_915,stimulusHACA03_2IFCnew_2019_Jul_03_1432_916,False,2019_Jul_03_1432,2IFCnew,3,HACA03,
2IFCnew,8,0,8,0,0.133774100104,1,No,6.7,-1,Hit,0.36718660011,True,False,stimulusHACA03_2IFCnew_2019_Jul_03_1432_917,stimulusHACA03_2IFCnew_2019_Jul_03_1432_918,False,2019_Jul_03_1432,2IFCnew,3,HACA03,
2IFCnew,9,0,9,0,0.334166799905,2,Yes,6.7,-1,Correct Rejection,0.667565200012,False,True,stimulusHACA03_2IFCnew_2019_Jul_03_1432_919,stimulusHACA03_2IFCnew_2019_Jul_03_1432_920,False,2019_Jul_03_1432,2IFCnew,3,HACA03,
2IFCnew,10,0,10,0,0.100272099953,1,No,6.7,-1,Hit,0.467930400046,True,False,stimulusHACA03_2IFCnew_2019_Jul_03_1432_921,stimulusHACA03_2IFCnew_2019_Jul_03_1432_922,False,2019_Jul_03_1432,2IFCnew,3,HACA03,
2IFCnew,11,0,11,0,0.166837400058,1,No,6.7,-1,Hit,0.500456299866,True,False,stimulusHACA03_2IFCnew_2019_Jul_03_1432_923,stimulusHACA03_2IFCnew_2019_Jul_03_1432_924,False,2019_Jul_03_1432,2IFCnew,3,HACA03,
2IFCnew,12,0,12,0,0.0676238001324,5,Yes,6.7,-1,False Alarm,0.398643400054,False,True,stimulusHACA03_2IFCnew_2019_Jul_03_1432_925,stimulusHACA03_2IFCnew_2019_Jul_03_1432_926,False,2019_Jul_03_1432,2IFCnew,3,HACA03,
2IFCnew,13,0,13,0,0.534437200055,5,Yes,6.7,-1,False Alarm,0.201281900052,False,True,stimulusHACA03_2IFCnew_2019_Jul_03_1432_927,stimulusHACA03_2IFCnew_2019_Jul_03_1432_928,False,2019_Jul_03_1432,2IFCnew,3,HACA03,
2IFCnew,14,0,14,0,0.167419699952,1,No,6.7,-1,Hit,0.431381500093,True,False,stimulusHACA03_2IFCnew_2019_Jul_03_1432_929,stimulusHACA03_2IFCnew_2019_Jul_03_1432_930,False,2019_Jul_03_1432,2IFCnew,3,HACA03,
2IFCnew,15,0,15,0,0.099421299994,1,No,6.7,-1,Hit,0.401353900088,True,False,stimulusHACA03_2IFCnew_2019_Jul_03_1432_931,stimulusHACA03_2IFCnew_2019_Jul_03_1432_932,False,2019_Jul_03_1432,2IFCnew,3,HACA03,
2IFCnew,16,0,16,0,0.134240099927,4,Yes,6.7,-1,Miss,0.500728400191,True,False,stimulusHACA03_2IFCnew_2019_Jul_03_1432_933,stimulusHACA03_2IFCnew_2019_Jul_03_1432_934,False,2019_Jul_03_1432,2IFCnew,3,HACA03,
2IFCnew,17,0,17,0,0.101429499919,1,No,6.7,-1,Hit,0.467747800052,True,False,stimulusHACA03_2IFCnew_2019_Jul_03_1432_935,stimulusHACA03_2IFCnew_2019_Jul_03_1432_936,False,2019_Jul_03_1432,2IFCnew,3,HACA03,
2IFCnew,18,0,18,0,0.300630200189,5,Yes,6.7,-1,False Alarm,0.534824300092,False,True,stimulusHACA03_2IFCnew_2019_Jul_03_1432_937,stimulusHACA03_2IFCnew_2019_Jul_03_1432_938,False,2019_Jul_03_1432,2IFCnew,3,HACA03,
2IFCnew,19,0,19,0,0.100576300174,2,Yes,6.7,-1,Correct Rejection,0.500645800028,False,True,stimulusHACA03_2IFCnew_2019_Jul_03_1432_939,stimulusHACA03_2IFCnew_2019_Jul_03_1432_940,False,2019_Jul_03_1432,2IFCnew,3,HACA03,
2IFCnew,20,0,20,0,0.300880399998,2,Yes,6.7,-1,Correct Rejection,0.703618699918,False,True,stimulusHACA03_2IFCnew_2019_Jul_03_1432_941,stimulusHACA03_2IFCnew_2019_Jul_03_1432_942,False,2019_Jul_03_1432,2IFCnew,3,HACA03,
2IFCnew,21,0,21,0,0.900067899842,2,Yes,6.7,-1,Correct Rejection,0.433529600035,False,True,stimulusHACA03_2IFCnew_2019_Jul_03_1432_943,stimulusHACA03_2IFCnew_2019_Jul_03_1432_944,False,2019_Jul_03_1432,2IFCnew,3,HACA03,
2IFCnew,22,0,22,0,0.300221200101,4,Yes,6.7,-1,Miss,0.567153299926,True,False,stimulusHACA03_2IFCnew_2019_Jul_03_1432_945,stimulusHACA03_2IFCnew_2019_Jul_03_1432_946,False,2019_Jul_03_1432,2IFCnew,3,HACA03,
2IFCnew,23,0,23,0,0.133503299905,1,No,6.7,-1,Hit,0.533643800067,True,False,stimulusHACA03_2IFCnew_2019_Jul_03_1432_947,stimulusHACA03_2IFCnew_2019_Jul_03_1432_948,False,2019_Jul_03_1432,2IFCnew,3,HACA03,
2IFCnew,24,0,24,0,0.233320900006,3,No,6.7,-1,False Alarm,0.46589490003,False,True,stimulusHACA03_2IFCnew_2019_Jul_03_1432_949,stimulusHACA03_2IFCnew_2019_Jul_03_1432_950,False,2019_Jul_03_1432,2IFCnew,3,HACA03,
