Task,trials.thisRepN,trials.thisTrialN,trials.thisN,trials.thisIndex,time_response_second,response_2IFCnew,response_key2Interval_2IFCnew,signal_intensity,constant Value,response,time_response,signal_on_stimuluspos1,signal_on_stimuluspos2,stimulus_name_pos1,stimulus_name_pos2,random_intensity,date,expName,session,participant,
2IFCnew,0,0,0,0,0.40048880002,2,Yes,11.6,-1,Correct Rejection,0.367219600012,False,True,stimulusKLRU16_2IFCnew_2019_Jun_17_1643_1,stimulusKLRU16_2IFCnew_2019_Jun_17_1643_2,False,2019_Jun_17_1643,2IFCnew,3,KLRU16,
2IFCnew,1,0,1,0,0.299721399962,1,No,11.6,-1,Hit,0.600412599975,True,False,stimulusKLRU16_2IFCnew_2019_Jun_17_1643_3,stimulusKLRU16_2IFCnew_2019_Jun_17_1643_4,False,2019_Jun_17_1643,2IFCnew,3,KLRU16,
2IFCnew,2,0,2,0,0.367201099987,2,Yes,11.6,-1,Correct Rejection,0.500601699983,False,True,stimulusKLRU16_2IFCnew_2019_Jun_17_1643_5,stimulusKLRU16_2IFCnew_2019_Jun_17_1643_6,False,2019_Jun_17_1643,2IFCnew,3,KLRU16,
2IFCnew,3,0,3,0,0.433720799978,2,Yes,11.6,-1,Correct Rejection,0.699713000038,False,True,stimulusKLRU16_2IFCnew_2019_Jun_17_1643_7,stimulusKLRU16_2IFCnew_2019_Jun_17_1643_8,False,2019_Jun_17_1643,2IFCnew,3,KLRU16,
2IFCnew,4,0,4,0,0.267557799991,1,No,11.6,-1,Hit,0.404209600005,True,False,stimulusKLRU16_2IFCnew_2019_Jun_17_1643_9,stimulusKLRU16_2IFCnew_2019_Jun_17_1643_10,False,2019_Jun_17_1643,2IFCnew,3,KLRU16,
2IFCnew,5,0,5,0,0.333541299973,1,No,11.6,-1,Hit,0.434084599954,True,False,stimulusKLRU16_2IFCnew_2019_Jun_17_1643_11,stimulusKLRU16_2IFCnew_2019_Jun_17_1643_12,False,2019_Jun_17_1643,2IFCnew,3,KLRU16,
2IFCnew,6,0,6,0,0.333605399996,2,Yes,11.6,-1,Correct Rejection,0.534675400006,False,True,stimulusKLRU16_2IFCnew_2019_Jun_17_1643_13,stimulusKLRU16_2IFCnew_2019_Jun_17_1643_14,False,2019_Jun_17_1643,2IFCnew,3,KLRU16,
2IFCnew,7,0,7,0,0.600383099983,5,Yes,11.6,-1,False Alarm,0.600786099967,False,True,stimulusKLRU16_2IFCnew_2019_Jun_17_1643_15,stimulusKLRU16_2IFCnew_2019_Jun_17_1643_16,False,2019_Jun_17_1643,2IFCnew,3,KLRU16,
2IFCnew,8,0,8,0,0.333595100034,1,No,11.6,-1,Hit,0.533666100004,True,False,stimulusKLRU16_2IFCnew_2019_Jun_17_1643_17,stimulusKLRU16_2IFCnew_2019_Jun_17_1643_18,False,2019_Jun_17_1643,2IFCnew,3,KLRU16,
2IFCnew,9,0,9,0,0.433867399988,5,Yes,11.6,-1,False Alarm,0.534886999987,False,True,stimulusKLRU16_2IFCnew_2019_Jun_17_1643_19,stimulusKLRU16_2IFCnew_2019_Jun_17_1643_20,False,2019_Jun_17_1643,2IFCnew,3,KLRU16,
2IFCnew,10,0,10,0,-1,0,Yes,11.6,-1,No Answer,-1,False,True,stimulusKLRU16_2IFCnew_2019_Jun_17_1643_21,stimulusKLRU16_2IFCnew_2019_Jun_17_1643_22,False,2019_Jun_17_1643,2IFCnew,3,KLRU16,
2IFCnew,11,0,11,0,0.267244599992,1,No,11.6,-1,Hit,0.533745000022,True,False,stimulusKLRU16_2IFCnew_2019_Jun_17_1643_23,stimulusKLRU16_2IFCnew_2019_Jun_17_1643_24,False,2019_Jun_17_1643,2IFCnew,3,KLRU16,
2IFCnew,12,0,12,0,0.335040799982,2,Yes,11.6,-1,Correct Rejection,0.570002100023,False,True,stimulusKLRU16_2IFCnew_2019_Jun_17_1643_25,stimulusKLRU16_2IFCnew_2019_Jun_17_1643_26,False,2019_Jun_17_1643,2IFCnew,3,KLRU16,
2IFCnew,13,0,13,0,0.333885099972,2,Yes,11.6,-1,Correct Rejection,0.601256199996,False,True,stimulusKLRU16_2IFCnew_2019_Jun_17_1643_27,stimulusKLRU16_2IFCnew_2019_Jun_17_1643_28,False,2019_Jun_17_1643,2IFCnew,3,KLRU16,
2IFCnew,14,0,14,0,0.6003012,1,No,11.6,-1,Hit,0.536857599975,True,False,stimulusKLRU16_2IFCnew_2019_Jun_17_1643_29,stimulusKLRU16_2IFCnew_2019_Jun_17_1643_30,False,2019_Jun_17_1643,2IFCnew,3,KLRU16,
2IFCnew,15,0,15,0,0.268548000022,2,Yes,11.6,-1,Correct Rejection,0.465619400027,False,True,stimulusKLRU16_2IFCnew_2019_Jun_17_1643_31,stimulusKLRU16_2IFCnew_2019_Jun_17_1643_32,False,2019_Jun_17_1643,2IFCnew,3,KLRU16,
2IFCnew,16,0,16,0,0.366701100022,2,Yes,11.6,-1,Correct Rejection,0.667826199962,False,True,stimulusKLRU16_2IFCnew_2019_Jun_17_1643_33,stimulusKLRU16_2IFCnew_2019_Jun_17_1643_34,False,2019_Jun_17_1643,2IFCnew,3,KLRU16,
2IFCnew,17,0,17,0,0.334170900052,2,Yes,11.6,-1,Correct Rejection,0.433889399981,False,True,stimulusKLRU16_2IFCnew_2019_Jun_17_1643_35,stimulusKLRU16_2IFCnew_2019_Jun_17_1643_36,False,2019_Jun_17_1643,2IFCnew,3,KLRU16,
2IFCnew,18,0,18,0,0.334044800024,1,No,11.6,-1,Hit,0.500462999975,True,False,stimulusKLRU16_2IFCnew_2019_Jun_17_1643_37,stimulusKLRU16_2IFCnew_2019_Jun_17_1643_38,False,2019_Jun_17_1643,2IFCnew,3,KLRU16,
2IFCnew,19,0,19,0,0.366858000052,1,No,11.6,-1,Hit,0.469443299982,True,False,stimulusKLRU16_2IFCnew_2019_Jun_17_1643_39,stimulusKLRU16_2IFCnew_2019_Jun_17_1643_40,False,2019_Jun_17_1643,2IFCnew,3,KLRU16,
2IFCnew,20,0,20,0,0.330494199996,1,No,11.6,-1,Hit,0.40047350002,True,False,stimulusKLRU16_2IFCnew_2019_Jun_17_1643_41,stimulusKLRU16_2IFCnew_2019_Jun_17_1643_42,False,2019_Jun_17_1643,2IFCnew,3,KLRU16,
2IFCnew,21,0,21,0,0.234001000004,1,No,11.6,-1,Hit,0.367997900001,True,False,stimulusKLRU16_2IFCnew_2019_Jun_17_1643_43,stimulusKLRU16_2IFCnew_2019_Jun_17_1643_44,False,2019_Jun_17_1643,2IFCnew,3,KLRU16,
2IFCnew,22,0,22,0,0.266256499977,2,Yes,11.6,-1,Correct Rejection,0.499916800007,False,True,stimulusKLRU16_2IFCnew_2019_Jun_17_1643_45,stimulusKLRU16_2IFCnew_2019_Jun_17_1643_46,False,2019_Jun_17_1643,2IFCnew,3,KLRU16,
2IFCnew,23,0,23,0,0.367943999998,2,Yes,11.6,-1,Correct Rejection,0.467452300014,False,True,stimulusKLRU16_2IFCnew_2019_Jun_17_1643_47,stimulusKLRU16_2IFCnew_2019_Jun_17_1643_48,False,2019_Jun_17_1643,2IFCnew,3,KLRU16,
2IFCnew,24,0,24,0,0.333639699966,1,No,11.6,-1,Hit,0.500635700009,True,False,stimulusKLRU16_2IFCnew_2019_Jun_17_1643_49,stimulusKLRU16_2IFCnew_2019_Jun_17_1643_50,False,2019_Jun_17_1643,2IFCnew,3,KLRU16,
2IFCnew,25,0,25,0,0.400546099991,2,Yes,11.6,-1,Correct Rejection,0.700763300003,False,True,stimulusKLRU16_2IFCnew_2019_Jun_17_1643_51,stimulusKLRU16_2IFCnew_2019_Jun_17_1643_52,False,2019_Jun_17_1643,2IFCnew,3,KLRU16,
2IFCnew,26,0,26,0,0.233550300007,1,No,11.6,-1,Hit,0.469344599987,True,False,stimulusKLRU16_2IFCnew_2019_Jun_17_1643_53,stimulusKLRU16_2IFCnew_2019_Jun_17_1643_54,False,2019_Jun_17_1643,2IFCnew,3,KLRU16,
2IFCnew,27,0,27,0,0.303283099958,1,No,11.6,-1,Hit,0.500042799977,True,False,stimulusKLRU16_2IFCnew_2019_Jun_17_1643_55,stimulusKLRU16_2IFCnew_2019_Jun_17_1643_56,False,2019_Jun_17_1643,2IFCnew,3,KLRU16,
2IFCnew,28,0,28,0,0.301299999992,2,Yes,11.6,-1,Correct Rejection,0.534500000009,False,True,stimulusKLRU16_2IFCnew_2019_Jun_17_1643_57,stimulusKLRU16_2IFCnew_2019_Jun_17_1643_58,False,2019_Jun_17_1643,2IFCnew,3,KLRU16,
2IFCnew,29,0,29,0,0.334065500007,1,No,11.6,-1,Hit,0.43429309997,True,False,stimulusKLRU16_2IFCnew_2019_Jun_17_1643_59,stimulusKLRU16_2IFCnew_2019_Jun_17_1643_60,False,2019_Jun_17_1643,2IFCnew,3,KLRU16,
2IFCnew,30,0,30,0,0.300387300027,2,Yes,11.6,-1,Correct Rejection,0.4008225,False,True,stimulusKLRU16_2IFCnew_2019_Jun_17_1643_61,stimulusKLRU16_2IFCnew_2019_Jun_17_1643_62,False,2019_Jun_17_1643,2IFCnew,3,KLRU16,
2IFCnew,31,0,31,0,0.36726129998,2,Yes,11.6,-1,Correct Rejection,0.59999149997,False,True,stimulusKLRU16_2IFCnew_2019_Jun_17_1643_63,stimulusKLRU16_2IFCnew_2019_Jun_17_1643_64,False,2019_Jun_17_1643,2IFCnew,3,KLRU16,
2IFCnew,32,0,32,0,0.401056300034,2,Yes,11.6,-1,Correct Rejection,0.533788200002,False,True,stimulusKLRU16_2IFCnew_2019_Jun_17_1643_65,stimulusKLRU16_2IFCnew_2019_Jun_17_1643_66,False,2019_Jun_17_1643,2IFCnew,3,KLRU16,
2IFCnew,33,0,33,0,0.234218300029,1,No,11.6,-1,Hit,0.466817400011,True,False,stimulusKLRU16_2IFCnew_2019_Jun_17_1643_67,stimulusKLRU16_2IFCnew_2019_Jun_17_1643_68,False,2019_Jun_17_1643,2IFCnew,3,KLRU16,
2IFCnew,34,0,34,0,0.233603000001,1,No,11.6,-1,Hit,0.465708500007,True,False,stimulusKLRU16_2IFCnew_2019_Jun_17_1643_69,stimulusKLRU16_2IFCnew_2019_Jun_17_1643_70,False,2019_Jun_17_1643,2IFCnew,3,KLRU16,
2IFCnew,35,0,35,0,0.534217400011,2,Yes,11.6,-1,Correct Rejection,0.534784000018,False,True,stimulusKLRU16_2IFCnew_2019_Jun_17_1643_71,stimulusKLRU16_2IFCnew_2019_Jun_17_1643_72,False,2019_Jun_17_1643,2IFCnew,3,KLRU16,
2IFCnew,36,0,36,0,0.434208199964,5,Yes,11.6,-1,False Alarm,0.566500499961,False,True,stimulusKLRU16_2IFCnew_2019_Jun_17_1643_73,stimulusKLRU16_2IFCnew_2019_Jun_17_1643_74,False,2019_Jun_17_1643,2IFCnew,3,KLRU16,
2IFCnew,37,0,37,0,0.334250900021,1,No,11.6,-1,Hit,0.501084899995,True,False,stimulusKLRU16_2IFCnew_2019_Jun_17_1643_75,stimulusKLRU16_2IFCnew_2019_Jun_17_1643_76,False,2019_Jun_17_1643,2IFCnew,3,KLRU16,
2IFCnew,38,0,38,0,0.366963799985,1,No,11.6,-1,Hit,0.500866699964,True,False,stimulusKLRU16_2IFCnew_2019_Jun_17_1643_77,stimulusKLRU16_2IFCnew_2019_Jun_17_1643_78,False,2019_Jun_17_1643,2IFCnew,3,KLRU16,
2IFCnew,39,0,39,0,0.367351899971,1,No,11.6,-1,Hit,0.502033299999,True,False,stimulusKLRU16_2IFCnew_2019_Jun_17_1643_79,stimulusKLRU16_2IFCnew_2019_Jun_17_1643_80,False,2019_Jun_17_1643,2IFCnew,3,KLRU16,
2IFCnew,40,0,40,0,0.268586700025,1,No,11.6,-1,Hit,0.433857099968,True,False,stimulusKLRU16_2IFCnew_2019_Jun_17_1643_81,stimulusKLRU16_2IFCnew_2019_Jun_17_1643_82,False,2019_Jun_17_1643,2IFCnew,3,KLRU16,
2IFCnew,41,0,41,0,0.267021399981,1,No,11.6,-1,Hit,0.534019100014,True,False,stimulusKLRU16_2IFCnew_2019_Jun_17_1643_83,stimulusKLRU16_2IFCnew_2019_Jun_17_1643_84,False,2019_Jun_17_1643,2IFCnew,3,KLRU16,
2IFCnew,42,0,42,0,0.333829300012,2,Yes,11.6,-1,Correct Rejection,0.600552599994,False,True,stimulusKLRU16_2IFCnew_2019_Jun_17_1643_85,stimulusKLRU16_2IFCnew_2019_Jun_17_1643_86,False,2019_Jun_17_1643,2IFCnew,3,KLRU16,
2IFCnew,43,0,43,0,0.467240999977,5,Yes,11.6,-1,False Alarm,0.500770099985,False,True,stimulusKLRU16_2IFCnew_2019_Jun_17_1643_87,stimulusKLRU16_2IFCnew_2019_Jun_17_1643_88,False,2019_Jun_17_1643,2IFCnew,3,KLRU16,
2IFCnew,44,0,44,0,0.6346701,1,No,11.6,-1,Hit,0.634483400034,True,False,stimulusKLRU16_2IFCnew_2019_Jun_17_1643_89,stimulusKLRU16_2IFCnew_2019_Jun_17_1643_90,False,2019_Jun_17_1643,2IFCnew,3,KLRU16,
2IFCnew,45,0,45,0,0.400424899999,1,No,11.6,-1,Hit,0.530029900023,True,False,stimulusKLRU16_2IFCnew_2019_Jun_17_1643_91,stimulusKLRU16_2IFCnew_2019_Jun_17_1643_92,False,2019_Jun_17_1643,2IFCnew,3,KLRU16,
2IFCnew,46,0,46,0,0.367569099995,2,Yes,11.6,-1,Correct Rejection,0.567483699997,False,True,stimulusKLRU16_2IFCnew_2019_Jun_17_1643_93,stimulusKLRU16_2IFCnew_2019_Jun_17_1643_94,False,2019_Jun_17_1643,2IFCnew,3,KLRU16,
2IFCnew,47,0,47,0,0.498205600015,2,Yes,11.6,-1,Correct Rejection,0.533531799971,False,True,stimulusKLRU16_2IFCnew_2019_Jun_17_1643_95,stimulusKLRU16_2IFCnew_2019_Jun_17_1643_96,False,2019_Jun_17_1643,2IFCnew,3,KLRU16,
2IFCnew,48,0,48,0,0.367254099983,2,Yes,11.6,-1,Correct Rejection,0.502283999987,False,True,stimulusKLRU16_2IFCnew_2019_Jun_17_1643_97,stimulusKLRU16_2IFCnew_2019_Jun_17_1643_98,False,2019_Jun_17_1643,2IFCnew,3,KLRU16,
2IFCnew,49,0,49,0,0.266781700018,1,No,11.6,-1,Hit,0.534342999978,True,False,stimulusKLRU16_2IFCnew_2019_Jun_17_1643_99,stimulusKLRU16_2IFCnew_2019_Jun_17_1643_100,False,2019_Jun_17_1643,2IFCnew,3,KLRU16,
2IFCnew,50,0,50,0,0.300748999987,2,Yes,11.6,-1,Correct Rejection,0.567821899953,False,True,stimulusKLRU16_2IFCnew_2019_Jun_17_1643_101,stimulusKLRU16_2IFCnew_2019_Jun_17_1643_102,False,2019_Jun_17_1643,2IFCnew,3,KLRU16,
2IFCnew,51,0,51,0,0.300460900005,1,No,11.6,-1,Hit,0.500813400024,True,False,stimulusKLRU16_2IFCnew_2019_Jun_17_1643_103,stimulusKLRU16_2IFCnew_2019_Jun_17_1643_104,False,2019_Jun_17_1643,2IFCnew,3,KLRU16,
2IFCnew,52,0,52,0,0.400336699968,2,Yes,11.6,-1,Correct Rejection,0.500588199997,False,True,stimulusKLRU16_2IFCnew_2019_Jun_17_1643_105,stimulusKLRU16_2IFCnew_2019_Jun_17_1643_106,False,2019_Jun_17_1643,2IFCnew,3,KLRU16,
2IFCnew,53,0,53,0,0.400424899999,1,No,11.6,-1,Hit,0.400568000041,True,False,stimulusKLRU16_2IFCnew_2019_Jun_17_1643_107,stimulusKLRU16_2IFCnew_2019_Jun_17_1643_108,False,2019_Jun_17_1643,2IFCnew,3,KLRU16,
2IFCnew,54,0,54,0,0.367148699996,2,Yes,11.6,-1,Correct Rejection,0.534127399966,False,True,stimulusKLRU16_2IFCnew_2019_Jun_17_1643_109,stimulusKLRU16_2IFCnew_2019_Jun_17_1643_110,False,2019_Jun_17_1643,2IFCnew,3,KLRU16,
2IFCnew,55,0,55,0,0.433899199998,2,Yes,11.6,-1,Correct Rejection,0.56789050001,False,True,stimulusKLRU16_2IFCnew_2019_Jun_17_1643_111,stimulusKLRU16_2IFCnew_2019_Jun_17_1643_112,False,2019_Jun_17_1643,2IFCnew,3,KLRU16,
2IFCnew,56,0,56,0,0.367261399981,1,No,11.6,-1,Hit,0.600953199959,True,False,stimulusKLRU16_2IFCnew_2019_Jun_17_1643_113,stimulusKLRU16_2IFCnew_2019_Jun_17_1643_114,False,2019_Jun_17_1643,2IFCnew,3,KLRU16,
2IFCnew,57,0,57,0,0.334156700002,2,Yes,11.6,-1,Correct Rejection,0.533593399974,False,True,stimulusKLRU16_2IFCnew_2019_Jun_17_1643_115,stimulusKLRU16_2IFCnew_2019_Jun_17_1643_116,False,2019_Jun_17_1643,2IFCnew,3,KLRU16,
2IFCnew,58,0,58,0,0.4003715,1,No,11.6,-1,Hit,0.499943100032,True,False,stimulusKLRU16_2IFCnew_2019_Jun_17_1643_117,stimulusKLRU16_2IFCnew_2019_Jun_17_1643_118,False,2019_Jun_17_1643,2IFCnew,3,KLRU16,
2IFCnew,59,0,59,0,0.4000581,1,No,11.6,-1,Hit,0.434401699982,True,False,stimulusKLRU16_2IFCnew_2019_Jun_17_1643_119,stimulusKLRU16_2IFCnew_2019_Jun_17_1643_120,False,2019_Jun_17_1643,2IFCnew,3,KLRU16,
2IFCnew,60,0,60,0,0.335779300018,1,No,11.6,-1,Hit,0.500918500009,True,False,stimulusKLRU16_2IFCnew_2019_Jun_17_1643_121,stimulusKLRU16_2IFCnew_2019_Jun_17_1643_122,False,2019_Jun_17_1643,2IFCnew,3,KLRU16,
2IFCnew,61,0,61,0,0.367322599981,2,Yes,11.6,-1,Correct Rejection,0.56590310001,False,True,stimulusKLRU16_2IFCnew_2019_Jun_17_1643_123,stimulusKLRU16_2IFCnew_2019_Jun_17_1643_124,False,2019_Jun_17_1643,2IFCnew,3,KLRU16,
2IFCnew,62,0,62,0,0.233706199971,1,No,11.6,-1,Hit,0.465786400018,True,False,stimulusKLRU16_2IFCnew_2019_Jun_17_1643_125,stimulusKLRU16_2IFCnew_2019_Jun_17_1643_126,False,2019_Jun_17_1643,2IFCnew,3,KLRU16,
2IFCnew,63,0,63,0,0.30067560001,1,No,11.6,-1,Hit,0.434300399967,True,False,stimulusKLRU16_2IFCnew_2019_Jun_17_1643_127,stimulusKLRU16_2IFCnew_2019_Jun_17_1643_128,False,2019_Jun_17_1643,2IFCnew,3,KLRU16,
2IFCnew,64,0,64,0,0.333790400007,2,Yes,11.6,-1,Correct Rejection,0.567644299997,False,True,stimulusKLRU16_2IFCnew_2019_Jun_17_1643_129,stimulusKLRU16_2IFCnew_2019_Jun_17_1643_130,False,2019_Jun_17_1643,2IFCnew,3,KLRU16,
2IFCnew,65,0,65,0,0.267116800009,2,Yes,11.6,-1,Correct Rejection,0.467079400027,False,True,stimulusKLRU16_2IFCnew_2019_Jun_17_1643_131,stimulusKLRU16_2IFCnew_2019_Jun_17_1643_132,False,2019_Jun_17_1643,2IFCnew,3,KLRU16,
2IFCnew,66,0,66,0,0.200191699958,1,No,11.6,-1,Hit,0.467784000037,True,False,stimulusKLRU16_2IFCnew_2019_Jun_17_1643_133,stimulusKLRU16_2IFCnew_2019_Jun_17_1643_134,False,2019_Jun_17_1643,2IFCnew,3,KLRU16,
2IFCnew,67,0,67,0,0.401880499965,2,Yes,11.6,-1,Correct Rejection,0.567234099959,False,True,stimulusKLRU16_2IFCnew_2019_Jun_17_1643_135,stimulusKLRU16_2IFCnew_2019_Jun_17_1643_136,False,2019_Jun_17_1643,2IFCnew,3,KLRU16,
2IFCnew,68,0,68,0,0.266788900015,1,No,11.6,-1,Hit,0.466696900025,True,False,stimulusKLRU16_2IFCnew_2019_Jun_17_1643_137,stimulusKLRU16_2IFCnew_2019_Jun_17_1643_138,False,2019_Jun_17_1643,2IFCnew,3,KLRU16,
2IFCnew,69,0,69,0,0.367152700026,1,No,11.6,-1,Hit,0.66787169996,True,False,stimulusKLRU16_2IFCnew_2019_Jun_17_1643_139,stimulusKLRU16_2IFCnew_2019_Jun_17_1643_140,False,2019_Jun_17_1643,2IFCnew,3,KLRU16,
2IFCnew,70,0,70,0,0.433688799967,5,Yes,11.6,-1,False Alarm,0.533788700006,False,True,stimulusKLRU16_2IFCnew_2019_Jun_17_1643_141,stimulusKLRU16_2IFCnew_2019_Jun_17_1643_142,False,2019_Jun_17_1643,2IFCnew,3,KLRU16,
2IFCnew,71,0,71,0,0.333726099983,1,No,11.6,-1,Hit,0.567443599983,True,False,stimulusKLRU16_2IFCnew_2019_Jun_17_1643_143,stimulusKLRU16_2IFCnew_2019_Jun_17_1643_144,False,2019_Jun_17_1643,2IFCnew,3,KLRU16,
2IFCnew,72,0,72,0,0.267250999983,1,No,11.6,-1,Hit,0.50090579997,True,False,stimulusKLRU16_2IFCnew_2019_Jun_17_1643_145,stimulusKLRU16_2IFCnew_2019_Jun_17_1643_146,False,2019_Jun_17_1643,2IFCnew,3,KLRU16,
2IFCnew,73,0,73,0,0.267108200002,1,No,11.6,-1,Hit,0.434876599989,True,False,stimulusKLRU16_2IFCnew_2019_Jun_17_1643_147,stimulusKLRU16_2IFCnew_2019_Jun_17_1643_148,False,2019_Jun_17_1643,2IFCnew,3,KLRU16,
2IFCnew,74,0,74,0,0.267227500037,1,No,11.6,-1,Hit,0.467186600028,True,False,stimulusKLRU16_2IFCnew_2019_Jun_17_1643_149,stimulusKLRU16_2IFCnew_2019_Jun_17_1643_150,False,2019_Jun_17_1643,2IFCnew,3,KLRU16,
2IFCnew,0,0,0,0,-1,0,No,10.4,-1,No Answer,-1,False,True,stimulusKLRU16_2IFCnew_2019_Jun_17_1643_151,stimulusKLRU16_2IFCnew_2019_Jun_17_1643_152,False,2019_Jun_17_1643,2IFCnew,3,KLRU16,
2IFCnew,1,0,1,0,0.200508199981,1,No,10.4,-1,Hit,0.5339255,True,False,stimulusKLRU16_2IFCnew_2019_Jun_17_1643_153,stimulusKLRU16_2IFCnew_2019_Jun_17_1643_154,False,2019_Jun_17_1643,2IFCnew,3,KLRU16,
2IFCnew,2,0,2,0,0.267323100008,2,Yes,10.4,-1,Correct Rejection,0.500530499965,False,True,stimulusKLRU16_2IFCnew_2019_Jun_17_1643_155,stimulusKLRU16_2IFCnew_2019_Jun_17_1643_156,False,2019_Jun_17_1643,2IFCnew,3,KLRU16,
2IFCnew,3,0,3,0,0.466658699967,2,Yes,10.4,-1,Correct Rejection,0.767712200002,False,True,stimulusKLRU16_2IFCnew_2019_Jun_17_1643_157,stimulusKLRU16_2IFCnew_2019_Jun_17_1643_158,False,2019_Jun_17_1643,2IFCnew,3,KLRU16,
2IFCnew,4,0,4,0,-1,1,Yes,10.4,-1,Hit,0.433641000011,True,False,stimulusKLRU16_2IFCnew_2019_Jun_17_1643_159,stimulusKLRU16_2IFCnew_2019_Jun_17_1643_160,False,2019_Jun_17_1643,2IFCnew,3,KLRU16,
2IFCnew,5,0,5,0,0.601199200028,1,No,10.4,-1,Hit,0.667182500008,True,False,stimulusKLRU16_2IFCnew_2019_Jun_17_1643_161,stimulusKLRU16_2IFCnew_2019_Jun_17_1643_162,False,2019_Jun_17_1643,2IFCnew,3,KLRU16,
2IFCnew,6,0,6,0,0.333898000012,1,No,10.4,-1,Hit,0.501667900011,True,False,stimulusKLRU16_2IFCnew_2019_Jun_17_1643_163,stimulusKLRU16_2IFCnew_2019_Jun_17_1643_164,False,2019_Jun_17_1643,2IFCnew,3,KLRU16,
2IFCnew,7,0,7,0,0.300414800004,1,No,10.4,-1,Hit,0.53403759998,True,False,stimulusKLRU16_2IFCnew_2019_Jun_17_1643_165,stimulusKLRU16_2IFCnew_2019_Jun_17_1643_166,False,2019_Jun_17_1643,2IFCnew,3,KLRU16,
2IFCnew,8,0,8,0,0.369338400022,1,No,10.4,-1,Hit,0.600641400029,True,False,stimulusKLRU16_2IFCnew_2019_Jun_17_1643_167,stimulusKLRU16_2IFCnew_2019_Jun_17_1643_168,False,2019_Jun_17_1643,2IFCnew,3,KLRU16,
2IFCnew,9,0,9,0,0.366959800012,2,Yes,10.4,-1,Correct Rejection,0.500574100006,False,True,stimulusKLRU16_2IFCnew_2019_Jun_17_1643_169,stimulusKLRU16_2IFCnew_2019_Jun_17_1643_170,False,2019_Jun_17_1643,2IFCnew,3,KLRU16,
2IFCnew,10,0,10,0,0.433641500014,5,Yes,10.4,-1,False Alarm,0.667548500001,False,True,stimulusKLRU16_2IFCnew_2019_Jun_17_1643_171,stimulusKLRU16_2IFCnew_2019_Jun_17_1643_172,False,2019_Jun_17_1643,2IFCnew,3,KLRU16,
2IFCnew,11,0,11,0,0.300534900045,1,No,10.4,-1,Hit,0.534101600002,True,False,stimulusKLRU16_2IFCnew_2019_Jun_17_1643_173,stimulusKLRU16_2IFCnew_2019_Jun_17_1643_174,False,2019_Jun_17_1643,2IFCnew,3,KLRU16,
2IFCnew,12,0,12,0,0.299960200035,1,No,10.4,-1,Hit,0.533857400005,True,False,stimulusKLRU16_2IFCnew_2019_Jun_17_1643_175,stimulusKLRU16_2IFCnew_2019_Jun_17_1643_176,False,2019_Jun_17_1643,2IFCnew,3,KLRU16,
2IFCnew,13,0,13,0,0.435271399969,2,Yes,10.4,-1,Correct Rejection,0.667206800019,False,True,stimulusKLRU16_2IFCnew_2019_Jun_17_1643_177,stimulusKLRU16_2IFCnew_2019_Jun_17_1643_178,False,2019_Jun_17_1643,2IFCnew,3,KLRU16,
2IFCnew,14,0,14,0,0.400480099954,2,Yes,10.4,-1,Correct Rejection,0.534149300016,False,True,stimulusKLRU16_2IFCnew_2019_Jun_17_1643_179,stimulusKLRU16_2IFCnew_2019_Jun_17_1643_180,False,2019_Jun_17_1643,2IFCnew,3,KLRU16,
2IFCnew,15,0,15,0,0.367082800018,2,Yes,10.4,-1,Correct Rejection,0.467048800027,False,True,stimulusKLRU16_2IFCnew_2019_Jun_17_1643_181,stimulusKLRU16_2IFCnew_2019_Jun_17_1643_182,False,2019_Jun_17_1643,2IFCnew,3,KLRU16,
2IFCnew,16,0,16,0,0.567719399987,5,Yes,10.4,-1,False Alarm,0.600655300019,False,True,stimulusKLRU16_2IFCnew_2019_Jun_17_1643_183,stimulusKLRU16_2IFCnew_2019_Jun_17_1643_184,False,2019_Jun_17_1643,2IFCnew,3,KLRU16,
2IFCnew,17,0,17,0,0.26856539998,1,No,10.4,-1,Hit,0.533259999997,True,False,stimulusKLRU16_2IFCnew_2019_Jun_17_1643_185,stimulusKLRU16_2IFCnew_2019_Jun_17_1643_186,False,2019_Jun_17_1643,2IFCnew,3,KLRU16,
2IFCnew,18,0,18,0,0.26694489998,2,Yes,10.4,-1,Correct Rejection,0.499910399958,False,True,stimulusKLRU16_2IFCnew_2019_Jun_17_1643_187,stimulusKLRU16_2IFCnew_2019_Jun_17_1643_188,False,2019_Jun_17_1643,2IFCnew,3,KLRU16,
2IFCnew,19,0,19,0,0.267068799993,1,No,10.4,-1,Hit,0.400699799997,True,False,stimulusKLRU16_2IFCnew_2019_Jun_17_1643_189,stimulusKLRU16_2IFCnew_2019_Jun_17_1643_190,False,2019_Jun_17_1643,2IFCnew,3,KLRU16,
2IFCnew,20,0,20,0,0.333473699982,1,No,10.4,-1,Hit,0.667675399978,True,False,stimulusKLRU16_2IFCnew_2019_Jun_17_1643_191,stimulusKLRU16_2IFCnew_2019_Jun_17_1643_192,False,2019_Jun_17_1643,2IFCnew,3,KLRU16,
2IFCnew,21,0,21,0,0.267077299999,1,No,10.4,-1,Hit,0.50075409998,True,False,stimulusKLRU16_2IFCnew_2019_Jun_17_1643_193,stimulusKLRU16_2IFCnew_2019_Jun_17_1643_194,False,2019_Jun_17_1643,2IFCnew,3,KLRU16,
2IFCnew,22,0,22,0,0.366888899996,2,Yes,10.4,-1,Correct Rejection,0.600608999957,False,True,stimulusKLRU16_2IFCnew_2019_Jun_17_1643_195,stimulusKLRU16_2IFCnew_2019_Jun_17_1643_196,False,2019_Jun_17_1643,2IFCnew,3,KLRU16,
2IFCnew,23,0,23,0,0.334064499999,2,Yes,10.4,-1,Correct Rejection,0.668298500008,False,True,stimulusKLRU16_2IFCnew_2019_Jun_17_1643_197,stimulusKLRU16_2IFCnew_2019_Jun_17_1643_198,False,2019_Jun_17_1643,2IFCnew,3,KLRU16,
2IFCnew,24,0,24,0,0.300531299959,2,Yes,10.4,-1,Correct Rejection,0.50364760001,False,True,stimulusKLRU16_2IFCnew_2019_Jun_17_1643_199,stimulusKLRU16_2IFCnew_2019_Jun_17_1643_200,False,2019_Jun_17_1643,2IFCnew,3,KLRU16,
2IFCnew,25,0,25,0,0.297810299962,1,No,10.4,-1,Hit,0.43500930001,True,False,stimulusKLRU16_2IFCnew_2019_Jun_17_1643_201,stimulusKLRU16_2IFCnew_2019_Jun_17_1643_202,False,2019_Jun_17_1643,2IFCnew,3,KLRU16,
2IFCnew,26,0,26,0,0.402023899951,2,Yes,10.4,-1,Correct Rejection,0.600561300002,False,True,stimulusKLRU16_2IFCnew_2019_Jun_17_1643_203,stimulusKLRU16_2IFCnew_2019_Jun_17_1643_204,False,2019_Jun_17_1643,2IFCnew,3,KLRU16,
2IFCnew,27,0,27,0,0.433827299974,2,Yes,10.4,-1,Correct Rejection,0.667332199984,False,True,stimulusKLRU16_2IFCnew_2019_Jun_17_1643_205,stimulusKLRU16_2IFCnew_2019_Jun_17_1643_206,False,2019_Jun_17_1643,2IFCnew,3,KLRU16,
2IFCnew,28,0,28,0,0.400988400041,2,Yes,10.4,-1,Correct Rejection,0.600694900029,False,True,stimulusKLRU16_2IFCnew_2019_Jun_17_1643_207,stimulusKLRU16_2IFCnew_2019_Jun_17_1643_208,False,2019_Jun_17_1643,2IFCnew,3,KLRU16,
2IFCnew,29,0,29,0,0.300705000001,1,No,10.4,-1,Hit,0.466665799962,True,False,stimulusKLRU16_2IFCnew_2019_Jun_17_1643_209,stimulusKLRU16_2IFCnew_2019_Jun_17_1643_210,False,2019_Jun_17_1643,2IFCnew,3,KLRU16,
2IFCnew,30,0,30,0,0.30095449998,1,No,10.4,-1,Hit,0.600942300051,True,False,stimulusKLRU16_2IFCnew_2019_Jun_17_1643_211,stimulusKLRU16_2IFCnew_2019_Jun_17_1643_212,False,2019_Jun_17_1643,2IFCnew,3,KLRU16,
2IFCnew,31,0,31,0,0.233510199992,1,No,10.4,-1,Hit,0.536548200005,True,False,stimulusKLRU16_2IFCnew_2019_Jun_17_1643_213,stimulusKLRU16_2IFCnew_2019_Jun_17_1643_214,False,2019_Jun_17_1643,2IFCnew,3,KLRU16,
2IFCnew,32,0,32,0,0.26709660003,2,Yes,10.4,-1,Correct Rejection,0.567126200011,False,True,stimulusKLRU16_2IFCnew_2019_Jun_17_1643_215,stimulusKLRU16_2IFCnew_2019_Jun_17_1643_216,False,2019_Jun_17_1643,2IFCnew,3,KLRU16,
2IFCnew,33,0,33,0,0.200441199995,1,No,10.4,-1,Hit,0.499411600002,True,False,stimulusKLRU16_2IFCnew_2019_Jun_17_1643_217,stimulusKLRU16_2IFCnew_2019_Jun_17_1643_218,False,2019_Jun_17_1643,2IFCnew,3,KLRU16,
2IFCnew,34,0,34,0,0.30041690002,2,Yes,10.4,-1,Correct Rejection,0.533658900007,False,True,stimulusKLRU16_2IFCnew_2019_Jun_17_1643_219,stimulusKLRU16_2IFCnew_2019_Jun_17_1643_220,False,2019_Jun_17_1643,2IFCnew,3,KLRU16,
2IFCnew,35,0,35,0,0.233331400028,1,No,10.4,-1,Hit,0.401848899957,True,False,stimulusKLRU16_2IFCnew_2019_Jun_17_1643_221,stimulusKLRU16_2IFCnew_2019_Jun_17_1643_222,False,2019_Jun_17_1643,2IFCnew,3,KLRU16,
2IFCnew,36,0,36,0,0.29999020003,2,Yes,10.4,-1,Correct Rejection,0.500420099997,False,True,stimulusKLRU16_2IFCnew_2019_Jun_17_1643_223,stimulusKLRU16_2IFCnew_2019_Jun_17_1643_224,False,2019_Jun_17_1643,2IFCnew,3,KLRU16,
2IFCnew,37,0,37,0,0.367147299985,1,No,10.4,-1,Hit,0.668068600004,True,False,stimulusKLRU16_2IFCnew_2019_Jun_17_1643_225,stimulusKLRU16_2IFCnew_2019_Jun_17_1643_226,False,2019_Jun_17_1643,2IFCnew,3,KLRU16,
2IFCnew,38,0,38,0,0.50033390004,5,Yes,10.4,-1,False Alarm,0.333904800005,False,True,stimulusKLRU16_2IFCnew_2019_Jun_17_1643_227,stimulusKLRU16_2IFCnew_2019_Jun_17_1643_228,False,2019_Jun_17_1643,2IFCnew,3,KLRU16,
2IFCnew,39,0,39,0,0.50146270002,2,Yes,10.4,-1,Correct Rejection,0.600533799967,False,True,stimulusKLRU16_2IFCnew_2019_Jun_17_1643_229,stimulusKLRU16_2IFCnew_2019_Jun_17_1643_230,False,2019_Jun_17_1643,2IFCnew,3,KLRU16,
2IFCnew,40,0,40,0,0.300415899954,2,Yes,10.4,-1,Correct Rejection,0.500570499978,False,True,stimulusKLRU16_2IFCnew_2019_Jun_17_1643_231,stimulusKLRU16_2IFCnew_2019_Jun_17_1643_232,False,2019_Jun_17_1643,2IFCnew,3,KLRU16,
2IFCnew,41,0,41,0,0.367779499968,1,No,10.4,-1,Hit,0.434097199992,True,False,stimulusKLRU16_2IFCnew_2019_Jun_17_1643_233,stimulusKLRU16_2IFCnew_2019_Jun_17_1643_234,False,2019_Jun_17_1643,2IFCnew,3,KLRU16,
2IFCnew,42,0,42,0,0.267130399996,2,Yes,10.4,-1,Correct Rejection,0.499444900022,False,True,stimulusKLRU16_2IFCnew_2019_Jun_17_1643_235,stimulusKLRU16_2IFCnew_2019_Jun_17_1643_236,False,2019_Jun_17_1643,2IFCnew,3,KLRU16,
2IFCnew,43,0,43,0,0.499068000005,1,No,10.4,-1,Hit,0.501031099993,True,False,stimulusKLRU16_2IFCnew_2019_Jun_17_1643_237,stimulusKLRU16_2IFCnew_2019_Jun_17_1643_238,False,2019_Jun_17_1643,2IFCnew,3,KLRU16,
2IFCnew,44,0,44,0,0.333416500012,1,No,10.4,-1,Hit,0.467061200005,True,False,stimulusKLRU16_2IFCnew_2019_Jun_17_1643_239,stimulusKLRU16_2IFCnew_2019_Jun_17_1643_240,False,2019_Jun_17_1643,2IFCnew,3,KLRU16,
2IFCnew,45,0,45,0,0.333343699982,1,No,10.4,-1,Hit,0.467788699956,True,False,stimulusKLRU16_2IFCnew_2019_Jun_17_1643_241,stimulusKLRU16_2IFCnew_2019_Jun_17_1643_242,False,2019_Jun_17_1643,2IFCnew,3,KLRU16,
2IFCnew,46,0,46,0,0.367514099984,2,Yes,10.4,-1,Correct Rejection,0.600598399993,False,True,stimulusKLRU16_2IFCnew_2019_Jun_17_1643_243,stimulusKLRU16_2IFCnew_2019_Jun_17_1643_244,False,2019_Jun_17_1643,2IFCnew,3,KLRU16,
2IFCnew,47,0,47,0,0.267264400027,1,No,10.4,-1,Hit,0.500928800029,True,False,stimulusKLRU16_2IFCnew_2019_Jun_17_1643_245,stimulusKLRU16_2IFCnew_2019_Jun_17_1643_246,False,2019_Jun_17_1643,2IFCnew,3,KLRU16,
2IFCnew,48,0,48,0,0.333741600043,1,No,10.4,-1,Hit,0.4672059,True,False,stimulusKLRU16_2IFCnew_2019_Jun_17_1643_247,stimulusKLRU16_2IFCnew_2019_Jun_17_1643_248,False,2019_Jun_17_1643,2IFCnew,3,KLRU16,
2IFCnew,49,0,49,0,0.300391600002,2,Yes,10.4,-1,Correct Rejection,0.534018400009,False,True,stimulusKLRU16_2IFCnew_2019_Jun_17_1643_249,stimulusKLRU16_2IFCnew_2019_Jun_17_1643_250,False,2019_Jun_17_1643,2IFCnew,3,KLRU16,
2IFCnew,50,0,50,0,0.46770909999,2,Yes,10.4,-1,Correct Rejection,0.500332200027,False,True,stimulusKLRU16_2IFCnew_2019_Jun_17_1643_251,stimulusKLRU16_2IFCnew_2019_Jun_17_1643_252,False,2019_Jun_17_1643,2IFCnew,3,KLRU16,
2IFCnew,51,0,51,0,0.30084879999,1,No,10.4,-1,Hit,0.501747400034,True,False,stimulusKLRU16_2IFCnew_2019_Jun_17_1643_253,stimulusKLRU16_2IFCnew_2019_Jun_17_1643_254,False,2019_Jun_17_1643,2IFCnew,3,KLRU16,
2IFCnew,52,0,52,0,0.334623900009,2,Yes,10.4,-1,Correct Rejection,0.503495400015,False,True,stimulusKLRU16_2IFCnew_2019_Jun_17_1643_255,stimulusKLRU16_2IFCnew_2019_Jun_17_1643_256,False,2019_Jun_17_1643,2IFCnew,3,KLRU16,
2IFCnew,53,0,53,0,0.300276299997,1,No,10.4,-1,Hit,0.600592000003,True,False,stimulusKLRU16_2IFCnew_2019_Jun_17_1643_257,stimulusKLRU16_2IFCnew_2019_Jun_17_1643_258,False,2019_Jun_17_1643,2IFCnew,3,KLRU16,
2IFCnew,54,0,54,0,0.26717940002,3,No,10.4,-1,False Alarm,0.434466000006,False,True,stimulusKLRU16_2IFCnew_2019_Jun_17_1643_259,stimulusKLRU16_2IFCnew_2019_Jun_17_1643_260,False,2019_Jun_17_1643,2IFCnew,3,KLRU16,
2IFCnew,55,0,55,0,0.433928999992,1,No,10.4,-1,Hit,0.467533499992,True,False,stimulusKLRU16_2IFCnew_2019_Jun_17_1643_261,stimulusKLRU16_2IFCnew_2019_Jun_17_1643_262,False,2019_Jun_17_1643,2IFCnew,3,KLRU16,
2IFCnew,56,0,56,0,0.533965400013,1,No,10.4,-1,Hit,0.534491400002,True,False,stimulusKLRU16_2IFCnew_2019_Jun_17_1643_263,stimulusKLRU16_2IFCnew_2019_Jun_17_1643_264,False,2019_Jun_17_1643,2IFCnew,3,KLRU16,
2IFCnew,57,0,57,0,0.433662399999,2,Yes,10.4,-1,Correct Rejection,0.634702699957,False,True,stimulusKLRU16_2IFCnew_2019_Jun_17_1643_265,stimulusKLRU16_2IFCnew_2019_Jun_17_1643_266,False,2019_Jun_17_1643,2IFCnew,3,KLRU16,
2IFCnew,58,0,58,0,0.40031399997,2,Yes,10.4,-1,Correct Rejection,0.500611399999,False,True,stimulusKLRU16_2IFCnew_2019_Jun_17_1643_267,stimulusKLRU16_2IFCnew_2019_Jun_17_1643_268,False,2019_Jun_17_1643,2IFCnew,3,KLRU16,
2IFCnew,59,0,59,0,0.300287100021,2,Yes,10.4,-1,Correct Rejection,0.501116400003,False,True,stimulusKLRU16_2IFCnew_2019_Jun_17_1643_269,stimulusKLRU16_2IFCnew_2019_Jun_17_1643_270,False,2019_Jun_17_1643,2IFCnew,3,KLRU16,
2IFCnew,60,0,60,0,0.300330700004,1,No,10.4,-1,Hit,0.533845900034,True,False,stimulusKLRU16_2IFCnew_2019_Jun_17_1643_271,stimulusKLRU16_2IFCnew_2019_Jun_17_1643_272,False,2019_Jun_17_1643,2IFCnew,3,KLRU16,
2IFCnew,61,0,61,0,0.367223799985,1,No,10.4,-1,Hit,0.435004600033,True,False,stimulusKLRU16_2IFCnew_2019_Jun_17_1643_273,stimulusKLRU16_2IFCnew_2019_Jun_17_1643_274,False,2019_Jun_17_1643,2IFCnew,3,KLRU16,
2IFCnew,62,0,62,0,0.367366599967,1,No,10.4,-1,Hit,0.500875699974,True,False,stimulusKLRU16_2IFCnew_2019_Jun_17_1643_275,stimulusKLRU16_2IFCnew_2019_Jun_17_1643_276,False,2019_Jun_17_1643,2IFCnew,3,KLRU16,
2IFCnew,63,0,63,0,0.300502699974,2,Yes,10.4,-1,Correct Rejection,0.53392919997,False,True,stimulusKLRU16_2IFCnew_2019_Jun_17_1643_277,stimulusKLRU16_2IFCnew_2019_Jun_17_1643_278,False,2019_Jun_17_1643,2IFCnew,3,KLRU16,
2IFCnew,64,0,64,0,0.401121800009,1,No,10.4,-1,Hit,0.834758199984,True,False,stimulusKLRU16_2IFCnew_2019_Jun_17_1643_279,stimulusKLRU16_2IFCnew_2019_Jun_17_1643_280,False,2019_Jun_17_1643,2IFCnew,3,KLRU16,
2IFCnew,65,0,65,0,0.2331366,2,Yes,10.4,-1,Correct Rejection,0.467308100022,False,True,stimulusKLRU16_2IFCnew_2019_Jun_17_1643_281,stimulusKLRU16_2IFCnew_2019_Jun_17_1643_282,False,2019_Jun_17_1643,2IFCnew,3,KLRU16,
2IFCnew,66,0,66,0,0.29925339995,1,No,10.4,-1,Hit,0.469904600002,True,False,stimulusKLRU16_2IFCnew_2019_Jun_17_1643_283,stimulusKLRU16_2IFCnew_2019_Jun_17_1643_284,False,2019_Jun_17_1643,2IFCnew,3,KLRU16,
2IFCnew,67,0,67,0,0.36755049997,2,Yes,10.4,-1,Correct Rejection,0.500288199983,False,True,stimulusKLRU16_2IFCnew_2019_Jun_17_1643_285,stimulusKLRU16_2IFCnew_2019_Jun_17_1643_286,False,2019_Jun_17_1643,2IFCnew,3,KLRU16,
2IFCnew,68,0,68,0,0.333870200033,1,No,10.4,-1,Hit,0.5339255,True,False,stimulusKLRU16_2IFCnew_2019_Jun_17_1643_287,stimulusKLRU16_2IFCnew_2019_Jun_17_1643_288,False,2019_Jun_17_1643,2IFCnew,3,KLRU16,
2IFCnew,69,0,69,0,0.234248000022,1,No,10.4,-1,Hit,0.500649499998,True,False,stimulusKLRU16_2IFCnew_2019_Jun_17_1643_289,stimulusKLRU16_2IFCnew_2019_Jun_17_1643_290,False,2019_Jun_17_1643,2IFCnew,3,KLRU16,
2IFCnew,70,0,70,0,0.167129599955,1,No,10.4,-1,Hit,0.500080999976,True,False,stimulusKLRU16_2IFCnew_2019_Jun_17_1643_291,stimulusKLRU16_2IFCnew_2019_Jun_17_1643_292,False,2019_Jun_17_1643,2IFCnew,3,KLRU16,
2IFCnew,71,0,71,0,0.234801099985,1,No,10.4,-1,Hit,0.634233799996,True,False,stimulusKLRU16_2IFCnew_2019_Jun_17_1643_293,stimulusKLRU16_2IFCnew_2019_Jun_17_1643_294,False,2019_Jun_17_1643,2IFCnew,3,KLRU16,
2IFCnew,72,0,72,0,0.266971300007,2,Yes,10.4,-1,Correct Rejection,0.5003134,False,True,stimulusKLRU16_2IFCnew_2019_Jun_17_1643_295,stimulusKLRU16_2IFCnew_2019_Jun_17_1643_296,False,2019_Jun_17_1643,2IFCnew,3,KLRU16,
2IFCnew,73,0,73,0,0.499497100012,2,Yes,10.4,-1,Correct Rejection,0.499805600033,False,True,stimulusKLRU16_2IFCnew_2019_Jun_17_1643_297,stimulusKLRU16_2IFCnew_2019_Jun_17_1643_298,False,2019_Jun_17_1643,2IFCnew,3,KLRU16,
2IFCnew,74,0,74,0,0.266873099958,1,No,10.4,-1,Hit,0.500926399953,True,False,stimulusKLRU16_2IFCnew_2019_Jun_17_1643_299,stimulusKLRU16_2IFCnew_2019_Jun_17_1643_300,False,2019_Jun_17_1643,2IFCnew,3,KLRU16,
2IFCnew,0,0,0,0,-1,0,No,9.3,-1,No Answer,-1,True,False,stimulusKLRU16_2IFCnew_2019_Jun_17_1643_301,stimulusKLRU16_2IFCnew_2019_Jun_17_1643_302,False,2019_Jun_17_1643,2IFCnew,3,KLRU16,
2IFCnew,1,0,1,0,0.66715449997,2,Yes,9.3,-1,Correct Rejection,0.568493900006,False,True,stimulusKLRU16_2IFCnew_2019_Jun_17_1643_303,stimulusKLRU16_2IFCnew_2019_Jun_17_1643_304,False,2019_Jun_17_1643,2IFCnew,3,KLRU16,
2IFCnew,2,0,2,0,0.634511600016,2,Yes,9.3,-1,Correct Rejection,0.600452499988,False,True,stimulusKLRU16_2IFCnew_2019_Jun_17_1643_305,stimulusKLRU16_2IFCnew_2019_Jun_17_1643_306,False,2019_Jun_17_1643,2IFCnew,3,KLRU16,
2IFCnew,3,0,3,0,0.534271000011,2,Yes,9.3,-1,Correct Rejection,0.533464300039,False,True,stimulusKLRU16_2IFCnew_2019_Jun_17_1643_307,stimulusKLRU16_2IFCnew_2019_Jun_17_1643_308,False,2019_Jun_17_1643,2IFCnew,3,KLRU16,
2IFCnew,4,0,4,0,0.532922199985,2,Yes,9.3,-1,Correct Rejection,0.60219200002,False,True,stimulusKLRU16_2IFCnew_2019_Jun_17_1643_309,stimulusKLRU16_2IFCnew_2019_Jun_17_1643_310,False,2019_Jun_17_1643,2IFCnew,3,KLRU16,
2IFCnew,5,0,5,0,0.367025300045,2,Yes,9.3,-1,Correct Rejection,0.667581799964,False,True,stimulusKLRU16_2IFCnew_2019_Jun_17_1643_311,stimulusKLRU16_2IFCnew_2019_Jun_17_1643_312,False,2019_Jun_17_1643,2IFCnew,3,KLRU16,
2IFCnew,6,0,6,0,0.533654599974,2,Yes,9.3,-1,Correct Rejection,0.53333950002,False,True,stimulusKLRU16_2IFCnew_2019_Jun_17_1643_313,stimulusKLRU16_2IFCnew_2019_Jun_17_1643_314,False,2019_Jun_17_1643,2IFCnew,3,KLRU16,
2IFCnew,7,0,7,0,0.468870299985,1,No,9.3,-1,Hit,0.601706299989,True,False,stimulusKLRU16_2IFCnew_2019_Jun_17_1643_315,stimulusKLRU16_2IFCnew_2019_Jun_17_1643_316,False,2019_Jun_17_1643,2IFCnew,3,KLRU16,
2IFCnew,8,0,8,0,0.2672227,1,No,9.3,-1,Hit,0.50083590002,True,False,stimulusKLRU16_2IFCnew_2019_Jun_17_1643_317,stimulusKLRU16_2IFCnew_2019_Jun_17_1643_318,False,2019_Jun_17_1643,2IFCnew,3,KLRU16,
2IFCnew,9,0,9,0,0.433802699961,1,No,9.3,-1,Hit,0.501312999986,True,False,stimulusKLRU16_2IFCnew_2019_Jun_17_1643_319,stimulusKLRU16_2IFCnew_2019_Jun_17_1643_320,False,2019_Jun_17_1643,2IFCnew,3,KLRU16,
2IFCnew,10,0,10,0,-1,4,No,9.3,-1,Miss,0.601628299977,True,False,stimulusKLRU16_2IFCnew_2019_Jun_17_1643_321,stimulusKLRU16_2IFCnew_2019_Jun_17_1643_322,False,2019_Jun_17_1643,2IFCnew,3,KLRU16,
2IFCnew,11,0,11,0,0.70085329999,6,No,9.3,-1,Miss,0.532954800001,True,False,stimulusKLRU16_2IFCnew_2019_Jun_17_1643_323,stimulusKLRU16_2IFCnew_2019_Jun_17_1643_324,False,2019_Jun_17_1643,2IFCnew,3,KLRU16,
2IFCnew,12,0,12,0,0.700757400016,2,Yes,9.3,-1,Correct Rejection,0.500889200019,False,True,stimulusKLRU16_2IFCnew_2019_Jun_17_1643_325,stimulusKLRU16_2IFCnew_2019_Jun_17_1643_326,False,2019_Jun_17_1643,2IFCnew,3,KLRU16,
2IFCnew,13,0,13,0,0.26732330001,1,No,9.3,-1,Hit,0.568267100025,True,False,stimulusKLRU16_2IFCnew_2019_Jun_17_1643_327,stimulusKLRU16_2IFCnew_2019_Jun_17_1643_328,False,2019_Jun_17_1643,2IFCnew,3,KLRU16,
2IFCnew,14,0,14,0,0.434731799993,2,Yes,9.3,-1,Correct Rejection,0.568868599948,False,True,stimulusKLRU16_2IFCnew_2019_Jun_17_1643_329,stimulusKLRU16_2IFCnew_2019_Jun_17_1643_330,False,2019_Jun_17_1643,2IFCnew,3,KLRU16,
2IFCnew,15,0,15,0,0.500696400006,2,Yes,9.3,-1,Correct Rejection,0.633735499985,False,True,stimulusKLRU16_2IFCnew_2019_Jun_17_1643_331,stimulusKLRU16_2IFCnew_2019_Jun_17_1643_332,False,2019_Jun_17_1643,2IFCnew,3,KLRU16,
2IFCnew,16,0,16,0,0.333919099998,2,Yes,9.3,-1,Correct Rejection,0.467298399948,False,True,stimulusKLRU16_2IFCnew_2019_Jun_17_1643_333,stimulusKLRU16_2IFCnew_2019_Jun_17_1643_334,False,2019_Jun_17_1643,2IFCnew,3,KLRU16,
2IFCnew,17,0,17,0,0.432922900014,2,Yes,9.3,-1,Correct Rejection,0.567068000033,False,True,stimulusKLRU16_2IFCnew_2019_Jun_17_1643_335,stimulusKLRU16_2IFCnew_2019_Jun_17_1643_336,False,2019_Jun_17_1643,2IFCnew,3,KLRU16,
2IFCnew,18,0,18,0,0.333962899982,1,No,9.3,-1,Hit,0.501457799983,True,False,stimulusKLRU16_2IFCnew_2019_Jun_17_1643_337,stimulusKLRU16_2IFCnew_2019_Jun_17_1643_338,False,2019_Jun_17_1643,2IFCnew,3,KLRU16,
2IFCnew,19,0,19,0,0.467304499994,2,Yes,9.3,-1,Correct Rejection,0.568185499986,False,True,stimulusKLRU16_2IFCnew_2019_Jun_17_1643_339,stimulusKLRU16_2IFCnew_2019_Jun_17_1643_340,False,2019_Jun_17_1643,2IFCnew,3,KLRU16,
2IFCnew,20,0,20,0,0.167185399972,1,No,9.3,-1,Hit,0.500848600001,True,False,stimulusKLRU16_2IFCnew_2019_Jun_17_1643_341,stimulusKLRU16_2IFCnew_2019_Jun_17_1643_342,False,2019_Jun_17_1643,2IFCnew,3,KLRU16,
2IFCnew,21,0,21,0,0.698598899995,3,No,9.3,-1,False Alarm,0.700720199966,False,True,stimulusKLRU16_2IFCnew_2019_Jun_17_1643_343,stimulusKLRU16_2IFCnew_2019_Jun_17_1643_344,False,2019_Jun_17_1643,2IFCnew,3,KLRU16,
2IFCnew,22,0,22,0,-1,3,No,9.3,-1,Correct Rejection,0.800825899991,False,True,stimulusKLRU16_2IFCnew_2019_Jun_17_1643_345,stimulusKLRU16_2IFCnew_2019_Jun_17_1643_346,False,2019_Jun_17_1643,2IFCnew,3,KLRU16,
2IFCnew,23,0,23,0,0.433910400025,1,No,9.3,-1,Hit,0.634876700002,True,False,stimulusKLRU16_2IFCnew_2019_Jun_17_1643_347,stimulusKLRU16_2IFCnew_2019_Jun_17_1643_348,False,2019_Jun_17_1643,2IFCnew,3,KLRU16,
2IFCnew,24,0,24,0,0.400631500001,2,Yes,9.3,-1,Correct Rejection,0.633749200031,False,True,stimulusKLRU16_2IFCnew_2019_Jun_17_1643_349,stimulusKLRU16_2IFCnew_2019_Jun_17_1643_350,False,2019_Jun_17_1643,2IFCnew,3,KLRU16,
2IFCnew,25,0,25,0,0.400688600028,2,Yes,9.3,-1,Correct Rejection,0.501483600005,False,True,stimulusKLRU16_2IFCnew_2019_Jun_17_1643_351,stimulusKLRU16_2IFCnew_2019_Jun_17_1643_352,False,2019_Jun_17_1643,2IFCnew,3,KLRU16,
2IFCnew,26,0,26,0,0.400419299956,2,Yes,9.3,-1,Correct Rejection,0.500509200036,False,True,stimulusKLRU16_2IFCnew_2019_Jun_17_1643_353,stimulusKLRU16_2IFCnew_2019_Jun_17_1643_354,False,2019_Jun_17_1643,2IFCnew,3,KLRU16,
2IFCnew,27,0,27,0,0.767165699974,8,No,9.3,-1,Correct Rejection,0.767427000043,False,True,stimulusKLRU16_2IFCnew_2019_Jun_17_1643_355,stimulusKLRU16_2IFCnew_2019_Jun_17_1643_356,False,2019_Jun_17_1643,2IFCnew,3,KLRU16,
2IFCnew,28,0,28,0,0.533902499999,1,No,9.3,-1,Hit,0.768707299954,True,False,stimulusKLRU16_2IFCnew_2019_Jun_17_1643_357,stimulusKLRU16_2IFCnew_2019_Jun_17_1643_358,False,2019_Jun_17_1643,2IFCnew,3,KLRU16,
2IFCnew,29,0,29,0,0.433752699988,1,No,9.3,-1,Hit,0.568864699977,True,False,stimulusKLRU16_2IFCnew_2019_Jun_17_1643_359,stimulusKLRU16_2IFCnew_2019_Jun_17_1643_360,False,2019_Jun_17_1643,2IFCnew,3,KLRU16,
2IFCnew,30,0,30,0,0.233543099952,1,No,9.3,-1,Hit,0.566233300022,True,False,stimulusKLRU16_2IFCnew_2019_Jun_17_1643_361,stimulusKLRU16_2IFCnew_2019_Jun_17_1643_362,False,2019_Jun_17_1643,2IFCnew,3,KLRU16,
2IFCnew,31,0,31,0,0.300322299998,1,No,9.3,-1,Hit,0.567413299985,True,False,stimulusKLRU16_2IFCnew_2019_Jun_17_1643_363,stimulusKLRU16_2IFCnew_2019_Jun_17_1643_364,False,2019_Jun_17_1643,2IFCnew,3,KLRU16,
2IFCnew,32,0,32,0,0.334149099945,2,Yes,9.3,-1,Correct Rejection,0.633469399996,False,True,stimulusKLRU16_2IFCnew_2019_Jun_17_1643_365,stimulusKLRU16_2IFCnew_2019_Jun_17_1643_366,False,2019_Jun_17_1643,2IFCnew,3,KLRU16,
2IFCnew,33,0,33,0,0.299688900006,2,Yes,9.3,-1,Correct Rejection,0.566995400004,False,True,stimulusKLRU16_2IFCnew_2019_Jun_17_1643_367,stimulusKLRU16_2IFCnew_2019_Jun_17_1643_368,False,2019_Jun_17_1643,2IFCnew,3,KLRU16,
2IFCnew,34,0,34,0,0.367801900022,1,No,9.3,-1,Hit,0.568306799978,True,False,stimulusKLRU16_2IFCnew_2019_Jun_17_1643_369,stimulusKLRU16_2IFCnew_2019_Jun_17_1643_370,False,2019_Jun_17_1643,2IFCnew,3,KLRU16,
2IFCnew,35,0,35,0,0.334394500009,1,No,9.3,-1,Hit,0.567503200029,True,False,stimulusKLRU16_2IFCnew_2019_Jun_17_1643_371,stimulusKLRU16_2IFCnew_2019_Jun_17_1643_372,False,2019_Jun_17_1643,2IFCnew,3,KLRU16,
2IFCnew,36,0,36,0,0.333849799994,1,No,9.3,-1,Hit,0.500548999989,True,False,stimulusKLRU16_2IFCnew_2019_Jun_17_1643_373,stimulusKLRU16_2IFCnew_2019_Jun_17_1643_374,False,2019_Jun_17_1643,2IFCnew,3,KLRU16,
2IFCnew,37,0,37,0,0.33390810003,2,Yes,9.3,-1,Correct Rejection,0.534056000004,False,True,stimulusKLRU16_2IFCnew_2019_Jun_17_1643_375,stimulusKLRU16_2IFCnew_2019_Jun_17_1643_376,False,2019_Jun_17_1643,2IFCnew,3,KLRU16,
2IFCnew,38,0,38,0,0.400586600008,2,Yes,9.3,-1,Correct Rejection,0.600349699962,False,True,stimulusKLRU16_2IFCnew_2019_Jun_17_1643_377,stimulusKLRU16_2IFCnew_2019_Jun_17_1643_378,False,2019_Jun_17_1643,2IFCnew,3,KLRU16,
2IFCnew,39,0,39,0,0.300455100019,1,No,9.3,-1,Hit,0.567753200012,True,False,stimulusKLRU16_2IFCnew_2019_Jun_17_1643_379,stimulusKLRU16_2IFCnew_2019_Jun_17_1643_380,False,2019_Jun_17_1643,2IFCnew,3,KLRU16,
2IFCnew,40,0,40,0,0.400287700002,2,Yes,9.3,-1,Correct Rejection,0.469299599994,False,True,stimulusKLRU16_2IFCnew_2019_Jun_17_1643_381,stimulusKLRU16_2IFCnew_2019_Jun_17_1643_382,False,2019_Jun_17_1643,2IFCnew,3,KLRU16,
2IFCnew,41,0,41,0,0.566744499956,6,No,9.3,-1,Miss,0.701959900034,True,False,stimulusKLRU16_2IFCnew_2019_Jun_17_1643_383,stimulusKLRU16_2IFCnew_2019_Jun_17_1643_384,False,2019_Jun_17_1643,2IFCnew,3,KLRU16,
2IFCnew,42,0,42,0,0.501039800001,2,Yes,9.3,-1,Correct Rejection,0.433869900007,False,True,stimulusKLRU16_2IFCnew_2019_Jun_17_1643_385,stimulusKLRU16_2IFCnew_2019_Jun_17_1643_386,False,2019_Jun_17_1643,2IFCnew,3,KLRU16,
2IFCnew,43,0,43,0,0.299866300018,1,No,9.3,-1,Hit,0.535794899974,True,False,stimulusKLRU16_2IFCnew_2019_Jun_17_1643_387,stimulusKLRU16_2IFCnew_2019_Jun_17_1643_388,False,2019_Jun_17_1643,2IFCnew,3,KLRU16,
2IFCnew,44,0,44,0,0.500774600019,1,No,9.3,-1,Hit,0.568358300021,True,False,stimulusKLRU16_2IFCnew_2019_Jun_17_1643_389,stimulusKLRU16_2IFCnew_2019_Jun_17_1643_390,False,2019_Jun_17_1643,2IFCnew,3,KLRU16,
2IFCnew,45,0,45,0,0.733460700023,2,Yes,9.3,-1,Correct Rejection,0.5342236,False,True,stimulusKLRU16_2IFCnew_2019_Jun_17_1643_391,stimulusKLRU16_2IFCnew_2019_Jun_17_1643_392,False,2019_Jun_17_1643,2IFCnew,3,KLRU16,
2IFCnew,46,0,46,0,0.267392599955,2,Yes,9.3,-1,Correct Rejection,0.600740700029,False,True,stimulusKLRU16_2IFCnew_2019_Jun_17_1643_393,stimulusKLRU16_2IFCnew_2019_Jun_17_1643_394,False,2019_Jun_17_1643,2IFCnew,3,KLRU16,
2IFCnew,47,0,47,0,0.333882100007,2,Yes,9.3,-1,Correct Rejection,0.467365499993,False,True,stimulusKLRU16_2IFCnew_2019_Jun_17_1643_395,stimulusKLRU16_2IFCnew_2019_Jun_17_1643_396,False,2019_Jun_17_1643,2IFCnew,3,KLRU16,
2IFCnew,48,0,48,0,0.264008600032,1,No,9.3,-1,Hit,0.567253699992,True,False,stimulusKLRU16_2IFCnew_2019_Jun_17_1643_397,stimulusKLRU16_2IFCnew_2019_Jun_17_1643_398,False,2019_Jun_17_1643,2IFCnew,3,KLRU16,
2IFCnew,49,0,49,0,0.300303400028,1,No,9.3,-1,Hit,0.500561200024,True,False,stimulusKLRU16_2IFCnew_2019_Jun_17_1643_399,stimulusKLRU16_2IFCnew_2019_Jun_17_1643_400,False,2019_Jun_17_1643,2IFCnew,3,KLRU16,
2IFCnew,50,0,50,0,0.368634999963,2,Yes,9.3,-1,Correct Rejection,0.499908400001,False,True,stimulusKLRU16_2IFCnew_2019_Jun_17_1643_401,stimulusKLRU16_2IFCnew_2019_Jun_17_1643_402,False,2019_Jun_17_1643,2IFCnew,3,KLRU16,
2IFCnew,51,0,51,0,0.565489299945,2,Yes,9.3,-1,Correct Rejection,0.534054299991,False,True,stimulusKLRU16_2IFCnew_2019_Jun_17_1643_403,stimulusKLRU16_2IFCnew_2019_Jun_17_1643_404,False,2019_Jun_17_1643,2IFCnew,3,KLRU16,
2IFCnew,52,0,52,0,0.600283400039,6,No,9.3,-1,Miss,0.701153499947,True,False,stimulusKLRU16_2IFCnew_2019_Jun_17_1643_405,stimulusKLRU16_2IFCnew_2019_Jun_17_1643_406,False,2019_Jun_17_1643,2IFCnew,3,KLRU16,
2IFCnew,53,0,53,0,-1,0,No,9.3,-1,No Answer,-1,False,True,stimulusKLRU16_2IFCnew_2019_Jun_17_1643_407,stimulusKLRU16_2IFCnew_2019_Jun_17_1643_408,False,2019_Jun_17_1643,2IFCnew,3,KLRU16,
2IFCnew,54,0,54,0,0.266607700032,2,Yes,9.3,-1,Correct Rejection,0.635417599988,False,True,stimulusKLRU16_2IFCnew_2019_Jun_17_1643_409,stimulusKLRU16_2IFCnew_2019_Jun_17_1643_410,False,2019_Jun_17_1643,2IFCnew,3,KLRU16,
2IFCnew,55,0,55,0,0.800673499994,2,Yes,9.3,-1,Correct Rejection,0.569277399976,False,True,stimulusKLRU16_2IFCnew_2019_Jun_17_1643_411,stimulusKLRU16_2IFCnew_2019_Jun_17_1643_412,False,2019_Jun_17_1643,2IFCnew,3,KLRU16,
2IFCnew,56,0,56,0,0.200606000028,1,No,9.3,-1,Hit,0.500020699983,True,False,stimulusKLRU16_2IFCnew_2019_Jun_17_1643_413,stimulusKLRU16_2IFCnew_2019_Jun_17_1643_414,False,2019_Jun_17_1643,2IFCnew,3,KLRU16,
2IFCnew,57,0,57,0,0.467707600037,1,No,9.3,-1,Hit,0.667530499981,True,False,stimulusKLRU16_2IFCnew_2019_Jun_17_1643_415,stimulusKLRU16_2IFCnew_2019_Jun_17_1643_416,False,2019_Jun_17_1643,2IFCnew,3,KLRU16,
2IFCnew,58,0,58,0,0.40026710002,2,Yes,9.3,-1,Correct Rejection,0.600676900009,False,True,stimulusKLRU16_2IFCnew_2019_Jun_17_1643_417,stimulusKLRU16_2IFCnew_2019_Jun_17_1643_418,False,2019_Jun_17_1643,2IFCnew,3,KLRU16,
2IFCnew,59,0,59,0,0.400466600026,2,Yes,9.3,-1,Correct Rejection,0.499966699979,False,True,stimulusKLRU16_2IFCnew_2019_Jun_17_1643_419,stimulusKLRU16_2IFCnew_2019_Jun_17_1643_420,False,2019_Jun_17_1643,2IFCnew,3,KLRU16,
2IFCnew,60,0,60,0,0.533915899985,2,Yes,9.3,-1,Correct Rejection,0.567605499993,False,True,stimulusKLRU16_2IFCnew_2019_Jun_17_1643_421,stimulusKLRU16_2IFCnew_2019_Jun_17_1643_422,False,2019_Jun_17_1643,2IFCnew,3,KLRU16,
2IFCnew,61,0,61,0,0.633466699976,5,Yes,9.3,-1,False Alarm,0.59958660003,False,True,stimulusKLRU16_2IFCnew_2019_Jun_17_1643_423,stimulusKLRU16_2IFCnew_2019_Jun_17_1643_424,False,2019_Jun_17_1643,2IFCnew,3,KLRU16,
2IFCnew,62,0,62,0,0.336020099989,2,Yes,9.3,-1,Correct Rejection,0.533742400003,False,True,stimulusKLRU16_2IFCnew_2019_Jun_17_1643_425,stimulusKLRU16_2IFCnew_2019_Jun_17_1643_426,False,2019_Jun_17_1643,2IFCnew,3,KLRU16,
2IFCnew,63,0,63,0,0.332592700026,1,No,9.3,-1,Hit,0.567633500032,True,False,stimulusKLRU16_2IFCnew_2019_Jun_17_1643_427,stimulusKLRU16_2IFCnew_2019_Jun_17_1643_428,False,2019_Jun_17_1643,2IFCnew,3,KLRU16,
2IFCnew,64,0,64,0,0.333404999983,2,Yes,9.3,-1,Correct Rejection,0.500714799971,False,True,stimulusKLRU16_2IFCnew_2019_Jun_17_1643_429,stimulusKLRU16_2IFCnew_2019_Jun_17_1643_430,False,2019_Jun_17_1643,2IFCnew,3,KLRU16,
2IFCnew,65,0,65,0,0.600415300054,2,Yes,9.3,-1,Correct Rejection,0.502060699975,False,True,stimulusKLRU16_2IFCnew_2019_Jun_17_1643_431,stimulusKLRU16_2IFCnew_2019_Jun_17_1643_432,False,2019_Jun_17_1643,2IFCnew,3,KLRU16,
2IFCnew,66,0,66,0,0.400413200026,2,Yes,9.3,-1,Correct Rejection,0.465384599986,False,True,stimulusKLRU16_2IFCnew_2019_Jun_17_1643_433,stimulusKLRU16_2IFCnew_2019_Jun_17_1643_434,False,2019_Jun_17_1643,2IFCnew,3,KLRU16,
2IFCnew,67,0,67,0,0.302404099959,1,No,9.3,-1,Hit,0.601491599984,True,False,stimulusKLRU16_2IFCnew_2019_Jun_17_1643_435,stimulusKLRU16_2IFCnew_2019_Jun_17_1643_436,False,2019_Jun_17_1643,2IFCnew,3,KLRU16,
2IFCnew,68,0,68,0,0.766875200032,6,No,9.3,-1,Miss,0.831829600036,True,False,stimulusKLRU16_2IFCnew_2019_Jun_17_1643_437,stimulusKLRU16_2IFCnew_2019_Jun_17_1643_438,False,2019_Jun_17_1643,2IFCnew,3,KLRU16,
2IFCnew,69,0,69,0,0.734193700016,1,No,9.3,-1,Hit,0.602443500014,True,False,stimulusKLRU16_2IFCnew_2019_Jun_17_1643_439,stimulusKLRU16_2IFCnew_2019_Jun_17_1643_440,False,2019_Jun_17_1643,2IFCnew,3,KLRU16,
2IFCnew,70,0,70,0,0.500440999982,1,No,9.3,-1,Hit,0.568123199977,True,False,stimulusKLRU16_2IFCnew_2019_Jun_17_1643_441,stimulusKLRU16_2IFCnew_2019_Jun_17_1643_442,False,2019_Jun_17_1643,2IFCnew,3,KLRU16,
2IFCnew,71,0,71,0,0.367032799986,2,Yes,9.3,-1,Correct Rejection,0.667274600011,False,True,stimulusKLRU16_2IFCnew_2019_Jun_17_1643_443,stimulusKLRU16_2IFCnew_2019_Jun_17_1643_444,False,2019_Jun_17_1643,2IFCnew,3,KLRU16,
2IFCnew,72,0,72,0,0.300520600053,1,No,9.3,-1,Hit,0.501440600026,True,False,stimulusKLRU16_2IFCnew_2019_Jun_17_1643_445,stimulusKLRU16_2IFCnew_2019_Jun_17_1643_446,False,2019_Jun_17_1643,2IFCnew,3,KLRU16,
2IFCnew,73,0,73,0,0.500630999974,2,Yes,9.3,-1,Correct Rejection,0.567932500038,False,True,stimulusKLRU16_2IFCnew_2019_Jun_17_1643_447,stimulusKLRU16_2IFCnew_2019_Jun_17_1643_448,False,2019_Jun_17_1643,2IFCnew,3,KLRU16,
2IFCnew,74,0,74,0,0.333086500003,2,Yes,9.3,-1,Correct Rejection,0.534102300007,False,True,stimulusKLRU16_2IFCnew_2019_Jun_17_1643_449,stimulusKLRU16_2IFCnew_2019_Jun_17_1643_450,False,2019_Jun_17_1643,2IFCnew,3,KLRU16,
2IFCnew,0,0,0,0,0.801064800005,8,No,8.4,-1,Correct Rejection,0.799413200002,False,True,stimulusKLRU16_2IFCnew_2019_Jun_17_1643_451,stimulusKLRU16_2IFCnew_2019_Jun_17_1643_452,False,2019_Jun_17_1643,2IFCnew,3,KLRU16,
2IFCnew,1,0,1,0,0.300303599972,1,No,8.4,-1,Hit,0.601627499971,True,False,stimulusKLRU16_2IFCnew_2019_Jun_17_1643_453,stimulusKLRU16_2IFCnew_2019_Jun_17_1643_454,False,2019_Jun_17_1643,2IFCnew,3,KLRU16,
2IFCnew,2,0,2,0,0.301729600003,6,No,8.4,-1,Miss,0.533822999976,True,False,stimulusKLRU16_2IFCnew_2019_Jun_17_1643_455,stimulusKLRU16_2IFCnew_2019_Jun_17_1643_456,False,2019_Jun_17_1643,2IFCnew,3,KLRU16,
2IFCnew,3,0,3,0,0.23366279999,1,No,8.4,-1,Hit,0.567648800032,True,False,stimulusKLRU16_2IFCnew_2019_Jun_17_1643_457,stimulusKLRU16_2IFCnew_2019_Jun_17_1643_458,False,2019_Jun_17_1643,2IFCnew,3,KLRU16,
2IFCnew,4,0,4,0,0.199125799991,1,No,8.4,-1,Hit,0.500649499998,True,False,stimulusKLRU16_2IFCnew_2019_Jun_17_1643_459,stimulusKLRU16_2IFCnew_2019_Jun_17_1643_460,False,2019_Jun_17_1643,2IFCnew,3,KLRU16,
2IFCnew,5,0,5,0,0.534173600026,2,Yes,8.4,-1,Correct Rejection,0.700642799959,False,True,stimulusKLRU16_2IFCnew_2019_Jun_17_1643_461,stimulusKLRU16_2IFCnew_2019_Jun_17_1643_462,False,2019_Jun_17_1643,2IFCnew,3,KLRU16,
2IFCnew,6,0,6,0,0.700515000033,2,Yes,8.4,-1,Correct Rejection,0.498634000018,False,True,stimulusKLRU16_2IFCnew_2019_Jun_17_1643_463,stimulusKLRU16_2IFCnew_2019_Jun_17_1643_464,False,2019_Jun_17_1643,2IFCnew,3,KLRU16,
2IFCnew,7,0,7,0,0.199223599979,1,No,8.4,-1,Hit,0.567476700002,True,False,stimulusKLRU16_2IFCnew_2019_Jun_17_1643_465,stimulusKLRU16_2IFCnew_2019_Jun_17_1643_466,False,2019_Jun_17_1643,2IFCnew,3,KLRU16,
2IFCnew,8,0,8,0,0.201461500023,1,No,8.4,-1,Hit,0.5035776,True,False,stimulusKLRU16_2IFCnew_2019_Jun_17_1643_467,stimulusKLRU16_2IFCnew_2019_Jun_17_1643_468,False,2019_Jun_17_1643,2IFCnew,3,KLRU16,
2IFCnew,9,0,9,0,0.234527699999,1,No,8.4,-1,Hit,0.567950700002,True,False,stimulusKLRU16_2IFCnew_2019_Jun_17_1643_469,stimulusKLRU16_2IFCnew_2019_Jun_17_1643_470,False,2019_Jun_17_1643,2IFCnew,3,KLRU16,
2IFCnew,10,0,10,0,0.199689699977,1,No,8.4,-1,Hit,0.500310800038,True,False,stimulusKLRU16_2IFCnew_2019_Jun_17_1643_471,stimulusKLRU16_2IFCnew_2019_Jun_17_1643_472,False,2019_Jun_17_1643,2IFCnew,3,KLRU16,
2IFCnew,11,0,11,0,0.232024399971,2,Yes,8.4,-1,Correct Rejection,0.499817300006,False,True,stimulusKLRU16_2IFCnew_2019_Jun_17_1643_473,stimulusKLRU16_2IFCnew_2019_Jun_17_1643_474,False,2019_Jun_17_1643,2IFCnew,3,KLRU16,
2IFCnew,12,0,12,0,0.599850099999,5,Yes,8.4,-1,False Alarm,0.535507399996,False,True,stimulusKLRU16_2IFCnew_2019_Jun_17_1643_475,stimulusKLRU16_2IFCnew_2019_Jun_17_1643_476,False,2019_Jun_17_1643,2IFCnew,3,KLRU16,
2IFCnew,13,0,13,0,0.500661699974,2,Yes,8.4,-1,Correct Rejection,0.468398800003,False,True,stimulusKLRU16_2IFCnew_2019_Jun_17_1643_477,stimulusKLRU16_2IFCnew_2019_Jun_17_1643_478,False,2019_Jun_17_1643,2IFCnew,3,KLRU16,
2IFCnew,14,0,14,0,0.433613399975,2,Yes,8.4,-1,Correct Rejection,0.43504250003,False,True,stimulusKLRU16_2IFCnew_2019_Jun_17_1643_479,stimulusKLRU16_2IFCnew_2019_Jun_17_1643_480,False,2019_Jun_17_1643,2IFCnew,3,KLRU16,
2IFCnew,15,0,15,0,0.235703199985,1,No,8.4,-1,Hit,0.53815540002,True,False,stimulusKLRU16_2IFCnew_2019_Jun_17_1643_481,stimulusKLRU16_2IFCnew_2019_Jun_17_1643_482,False,2019_Jun_17_1643,2IFCnew,3,KLRU16,
2IFCnew,16,0,16,0,0.36623850005,2,Yes,8.4,-1,Correct Rejection,0.466755100002,False,True,stimulusKLRU16_2IFCnew_2019_Jun_17_1643_483,stimulusKLRU16_2IFCnew_2019_Jun_17_1643_484,False,2019_Jun_17_1643,2IFCnew,3,KLRU16,
2IFCnew,17,0,17,0,0.267384300008,2,Yes,8.4,-1,Correct Rejection,0.501359699992,False,True,stimulusKLRU16_2IFCnew_2019_Jun_17_1643_485,stimulusKLRU16_2IFCnew_2019_Jun_17_1643_486,False,2019_Jun_17_1643,2IFCnew,3,KLRU16,
2IFCnew,18,0,18,0,0.234146100003,1,No,8.4,-1,Hit,0.433478599996,True,False,stimulusKLRU16_2IFCnew_2019_Jun_17_1643_487,stimulusKLRU16_2IFCnew_2019_Jun_17_1643_488,False,2019_Jun_17_1643,2IFCnew,3,KLRU16,
2IFCnew,19,0,19,0,0.234771099989,1,No,8.4,-1,Hit,0.468778099981,True,False,stimulusKLRU16_2IFCnew_2019_Jun_17_1643_489,stimulusKLRU16_2IFCnew_2019_Jun_17_1643_490,False,2019_Jun_17_1643,2IFCnew,3,KLRU16,
2IFCnew,20,0,20,0,0.300965500006,2,Yes,8.4,-1,Correct Rejection,0.566983699973,False,True,stimulusKLRU16_2IFCnew_2019_Jun_17_1643_491,stimulusKLRU16_2IFCnew_2019_Jun_17_1643_492,False,2019_Jun_17_1643,2IFCnew,3,KLRU16,
2IFCnew,21,0,21,0,0.466365200002,2,Yes,8.4,-1,Correct Rejection,0.567554900015,False,True,stimulusKLRU16_2IFCnew_2019_Jun_17_1643_493,stimulusKLRU16_2IFCnew_2019_Jun_17_1643_494,False,2019_Jun_17_1643,2IFCnew,3,KLRU16,
2IFCnew,22,0,22,0,0.299827299954,1,No,8.4,-1,Hit,0.499823699996,True,False,stimulusKLRU16_2IFCnew_2019_Jun_17_1643_495,stimulusKLRU16_2IFCnew_2019_Jun_17_1643_496,False,2019_Jun_17_1643,2IFCnew,3,KLRU16,
2IFCnew,23,0,23,0,0.334192600043,2,Yes,8.4,-1,Correct Rejection,0.534771099978,False,True,stimulusKLRU16_2IFCnew_2019_Jun_17_1643_497,stimulusKLRU16_2IFCnew_2019_Jun_17_1643_498,False,2019_Jun_17_1643,2IFCnew,3,KLRU16,
2IFCnew,24,0,24,0,0.368322699971,2,Yes,8.4,-1,Correct Rejection,0.568261800043,False,True,stimulusKLRU16_2IFCnew_2019_Jun_17_1643_499,stimulusKLRU16_2IFCnew_2019_Jun_17_1643_500,False,2019_Jun_17_1643,2IFCnew,3,KLRU16,
2IFCnew,25,0,25,0,0.402254900022,1,No,8.4,-1,Hit,0.766653199971,True,False,stimulusKLRU16_2IFCnew_2019_Jun_17_1643_501,stimulusKLRU16_2IFCnew_2019_Jun_17_1643_502,False,2019_Jun_17_1643,2IFCnew,3,KLRU16,
2IFCnew,26,0,26,0,0.367247300048,1,No,8.4,-1,Hit,0.467273699993,True,False,stimulusKLRU16_2IFCnew_2019_Jun_17_1643_503,stimulusKLRU16_2IFCnew_2019_Jun_17_1643_504,False,2019_Jun_17_1643,2IFCnew,3,KLRU16,
2IFCnew,27,0,27,0,0.333900100028,1,No,8.4,-1,Hit,0.466340299987,True,False,stimulusKLRU16_2IFCnew_2019_Jun_17_1643_505,stimulusKLRU16_2IFCnew_2019_Jun_17_1643_506,False,2019_Jun_17_1643,2IFCnew,3,KLRU16,
2IFCnew,28,0,28,0,0.30071349995,1,No,8.4,-1,Hit,0.467649600003,True,False,stimulusKLRU16_2IFCnew_2019_Jun_17_1643_507,stimulusKLRU16_2IFCnew_2019_Jun_17_1643_508,False,2019_Jun_17_1643,2IFCnew,3,KLRU16,
2IFCnew,29,0,29,0,0.301299200044,2,Yes,8.4,-1,Correct Rejection,0.701222500007,False,True,stimulusKLRU16_2IFCnew_2019_Jun_17_1643_509,stimulusKLRU16_2IFCnew_2019_Jun_17_1643_510,False,2019_Jun_17_1643,2IFCnew,3,KLRU16,
2IFCnew,30,0,30,0,0.700761299988,5,Yes,8.4,-1,False Alarm,0.534048500005,False,True,stimulusKLRU16_2IFCnew_2019_Jun_17_1643_511,stimulusKLRU16_2IFCnew_2019_Jun_17_1643_512,False,2019_Jun_17_1643,2IFCnew,3,KLRU16,
2IFCnew,31,0,31,0,0.366929900018,2,Yes,8.4,-1,Correct Rejection,0.499776000041,False,True,stimulusKLRU16_2IFCnew_2019_Jun_17_1643_513,stimulusKLRU16_2IFCnew_2019_Jun_17_1643_514,False,2019_Jun_17_1643,2IFCnew,3,KLRU16,
2IFCnew,32,0,32,0,0.567030699982,1,No,8.4,-1,Hit,0.634230099968,True,False,stimulusKLRU16_2IFCnew_2019_Jun_17_1643_515,stimulusKLRU16_2IFCnew_2019_Jun_17_1643_516,False,2019_Jun_17_1643,2IFCnew,3,KLRU16,
2IFCnew,33,0,33,0,0.36692120001,2,Yes,8.4,-1,Correct Rejection,0.568305999972,False,True,stimulusKLRU16_2IFCnew_2019_Jun_17_1643_517,stimulusKLRU16_2IFCnew_2019_Jun_17_1643_518,False,2019_Jun_17_1643,2IFCnew,3,KLRU16,
2IFCnew,34,0,34,0,0.467699600034,2,Yes,8.4,-1,Correct Rejection,0.56800920004,False,True,stimulusKLRU16_2IFCnew_2019_Jun_17_1643_519,stimulusKLRU16_2IFCnew_2019_Jun_17_1643_520,False,2019_Jun_17_1643,2IFCnew,3,KLRU16,
2IFCnew,35,0,35,0,0.367918800039,1,No,8.4,-1,Hit,0.567671499972,True,False,stimulusKLRU16_2IFCnew_2019_Jun_17_1643_521,stimulusKLRU16_2IFCnew_2019_Jun_17_1643_522,False,2019_Jun_17_1643,2IFCnew,3,KLRU16,
2IFCnew,36,0,36,0,0.33523789997,1,No,8.4,-1,Hit,0.504546399985,True,False,stimulusKLRU16_2IFCnew_2019_Jun_17_1643_523,stimulusKLRU16_2IFCnew_2019_Jun_17_1643_524,False,2019_Jun_17_1643,2IFCnew,3,KLRU16,
2IFCnew,37,0,37,0,0.465972399979,2,Yes,8.4,-1,Correct Rejection,0.602494199993,False,True,stimulusKLRU16_2IFCnew_2019_Jun_17_1643_525,stimulusKLRU16_2IFCnew_2019_Jun_17_1643_526,False,2019_Jun_17_1643,2IFCnew,3,KLRU16,
2IFCnew,38,0,38,0,0.300556499977,1,No,8.4,-1,Hit,0.467386500037,True,False,stimulusKLRU16_2IFCnew_2019_Jun_17_1643_527,stimulusKLRU16_2IFCnew_2019_Jun_17_1643_528,False,2019_Jun_17_1643,2IFCnew,3,KLRU16,
2IFCnew,39,0,39,0,0.265746899997,1,No,8.4,-1,Hit,0.46829530003,True,False,stimulusKLRU16_2IFCnew_2019_Jun_17_1643_529,stimulusKLRU16_2IFCnew_2019_Jun_17_1643_530,False,2019_Jun_17_1643,2IFCnew,3,KLRU16,
2IFCnew,40,0,40,0,0.433895499969,1,No,8.4,-1,Hit,0.533510899986,True,False,stimulusKLRU16_2IFCnew_2019_Jun_17_1643_531,stimulusKLRU16_2IFCnew_2019_Jun_17_1643_532,False,2019_Jun_17_1643,2IFCnew,3,KLRU16,
2IFCnew,41,0,41,0,0.332982100022,1,No,8.4,-1,Hit,0.569929399993,True,False,stimulusKLRU16_2IFCnew_2019_Jun_17_1643_533,stimulusKLRU16_2IFCnew_2019_Jun_17_1643_534,False,2019_Jun_17_1643,2IFCnew,3,KLRU16,
2IFCnew,42,0,42,0,0.333216700004,2,Yes,8.4,-1,Correct Rejection,0.602465100004,False,True,stimulusKLRU16_2IFCnew_2019_Jun_17_1643_535,stimulusKLRU16_2IFCnew_2019_Jun_17_1643_536,False,2019_Jun_17_1643,2IFCnew,3,KLRU16,
2IFCnew,43,0,43,0,0.467231599963,1,No,8.4,-1,Hit,0.598389399995,True,False,stimulusKLRU16_2IFCnew_2019_Jun_17_1643_537,stimulusKLRU16_2IFCnew_2019_Jun_17_1643_538,False,2019_Jun_17_1643,2IFCnew,3,KLRU16,
2IFCnew,44,0,44,0,0.300827200001,1,No,8.4,-1,Hit,0.500767099962,True,False,stimulusKLRU16_2IFCnew_2019_Jun_17_1643_539,stimulusKLRU16_2IFCnew_2019_Jun_17_1643_540,False,2019_Jun_17_1643,2IFCnew,3,KLRU16,
2IFCnew,45,0,45,0,0.433740000008,5,Yes,8.4,-1,False Alarm,0.370102800021,False,True,stimulusKLRU16_2IFCnew_2019_Jun_17_1643_541,stimulusKLRU16_2IFCnew_2019_Jun_17_1643_542,False,2019_Jun_17_1643,2IFCnew,3,KLRU16,
2IFCnew,46,0,46,0,0.468699600024,4,Yes,8.4,-1,Miss,0.533056800021,True,False,stimulusKLRU16_2IFCnew_2019_Jun_17_1643_543,stimulusKLRU16_2IFCnew_2019_Jun_17_1643_544,False,2019_Jun_17_1643,2IFCnew,3,KLRU16,
2IFCnew,47,0,47,0,0.500869700045,5,Yes,8.4,-1,False Alarm,0.636149299971,False,True,stimulusKLRU16_2IFCnew_2019_Jun_17_1643_545,stimulusKLRU16_2IFCnew_2019_Jun_17_1643_546,False,2019_Jun_17_1643,2IFCnew,3,KLRU16,
2IFCnew,48,0,48,0,0.399622900004,1,No,8.4,-1,Hit,0.602446700039,True,False,stimulusKLRU16_2IFCnew_2019_Jun_17_1643_547,stimulusKLRU16_2IFCnew_2019_Jun_17_1643_548,False,2019_Jun_17_1643,2IFCnew,3,KLRU16,
2IFCnew,49,0,49,0,0.364702699997,1,No,8.4,-1,Hit,0.566816099978,True,False,stimulusKLRU16_2IFCnew_2019_Jun_17_1643_549,stimulusKLRU16_2IFCnew_2019_Jun_17_1643_550,False,2019_Jun_17_1643,2IFCnew,3,KLRU16,
2IFCnew,50,0,50,0,0.132780299988,1,No,8.4,-1,Hit,0.50207789999,True,False,stimulusKLRU16_2IFCnew_2019_Jun_17_1643_551,stimulusKLRU16_2IFCnew_2019_Jun_17_1643_552,False,2019_Jun_17_1643,2IFCnew,3,KLRU16,
2IFCnew,51,0,51,0,0.399709800025,1,No,8.4,-1,Hit,0.602391700028,True,False,stimulusKLRU16_2IFCnew_2019_Jun_17_1643_553,stimulusKLRU16_2IFCnew_2019_Jun_17_1643_554,False,2019_Jun_17_1643,2IFCnew,3,KLRU16,
2IFCnew,52,0,52,0,0.701034100028,5,Yes,8.4,-1,False Alarm,0.531155300036,False,True,stimulusKLRU16_2IFCnew_2019_Jun_17_1643_555,stimulusKLRU16_2IFCnew_2019_Jun_17_1643_556,False,2019_Jun_17_1643,2IFCnew,3,KLRU16,
2IFCnew,53,0,53,0,0.870603499992,6,No,8.4,-1,Miss,0.700537199969,True,False,stimulusKLRU16_2IFCnew_2019_Jun_17_1643_557,stimulusKLRU16_2IFCnew_2019_Jun_17_1643_558,False,2019_Jun_17_1643,2IFCnew,3,KLRU16,
2IFCnew,54,0,54,0,0.699304799957,2,Yes,8.4,-1,Correct Rejection,0.598587699991,False,True,stimulusKLRU16_2IFCnew_2019_Jun_17_1643_559,stimulusKLRU16_2IFCnew_2019_Jun_17_1643_560,False,2019_Jun_17_1643,2IFCnew,3,KLRU16,
2IFCnew,55,0,55,0,0.19916020002,1,No,8.4,-1,Hit,0.500813699968,True,False,stimulusKLRU16_2IFCnew_2019_Jun_17_1643_561,stimulusKLRU16_2IFCnew_2019_Jun_17_1643_562,False,2019_Jun_17_1643,2IFCnew,3,KLRU16,
2IFCnew,56,0,56,0,0.368397300015,2,Yes,8.4,-1,Correct Rejection,0.535687499971,False,True,stimulusKLRU16_2IFCnew_2019_Jun_17_1643_563,stimulusKLRU16_2IFCnew_2019_Jun_17_1643_564,False,2019_Jun_17_1643,2IFCnew,3,KLRU16,
2IFCnew,57,0,57,0,0.400969799957,2,Yes,8.4,-1,Correct Rejection,0.536103699997,False,True,stimulusKLRU16_2IFCnew_2019_Jun_17_1643_565,stimulusKLRU16_2IFCnew_2019_Jun_17_1643_566,False,2019_Jun_17_1643,2IFCnew,3,KLRU16,
2IFCnew,58,0,58,0,0.597024299961,1,No,8.4,-1,Hit,0.467786099995,True,False,stimulusKLRU16_2IFCnew_2019_Jun_17_1643_567,stimulusKLRU16_2IFCnew_2019_Jun_17_1643_568,False,2019_Jun_17_1643,2IFCnew,3,KLRU16,
2IFCnew,59,0,59,0,0.668034300033,1,No,8.4,-1,Hit,0.699978700024,True,False,stimulusKLRU16_2IFCnew_2019_Jun_17_1643_569,stimulusKLRU16_2IFCnew_2019_Jun_17_1643_570,False,2019_Jun_17_1643,2IFCnew,3,KLRU16,
2IFCnew,60,0,60,0,0.366140500002,1,No,8.4,-1,Hit,0.53399560001,True,False,stimulusKLRU16_2IFCnew_2019_Jun_17_1643_571,stimulusKLRU16_2IFCnew_2019_Jun_17_1643_572,False,2019_Jun_17_1643,2IFCnew,3,KLRU16,
2IFCnew,61,0,61,0,0.666509400005,5,Yes,8.4,-1,False Alarm,0.600390899985,False,True,stimulusKLRU16_2IFCnew_2019_Jun_17_1643_573,stimulusKLRU16_2IFCnew_2019_Jun_17_1643_574,False,2019_Jun_17_1643,2IFCnew,3,KLRU16,
2IFCnew,62,0,62,0,0.59963110002,1,No,8.4,-1,Hit,0.53091609996,True,False,stimulusKLRU16_2IFCnew_2019_Jun_17_1643_575,stimulusKLRU16_2IFCnew_2019_Jun_17_1643_576,False,2019_Jun_17_1643,2IFCnew,3,KLRU16,
2IFCnew,63,0,63,0,0.500070400012,2,Yes,8.4,-1,Correct Rejection,0.633388800023,False,True,stimulusKLRU16_2IFCnew_2019_Jun_17_1643_577,stimulusKLRU16_2IFCnew_2019_Jun_17_1643_578,False,2019_Jun_17_1643,2IFCnew,3,KLRU16,
2IFCnew,64,0,64,0,0.470194900001,2,Yes,8.4,-1,Correct Rejection,0.567822000012,False,True,stimulusKLRU16_2IFCnew_2019_Jun_17_1643_579,stimulusKLRU16_2IFCnew_2019_Jun_17_1643_580,False,2019_Jun_17_1643,2IFCnew,3,KLRU16,
2IFCnew,65,0,65,0,0.534320599982,2,Yes,8.4,-1,Correct Rejection,0.767138800002,False,True,stimulusKLRU16_2IFCnew_2019_Jun_17_1643_581,stimulusKLRU16_2IFCnew_2019_Jun_17_1643_582,False,2019_Jun_17_1643,2IFCnew,3,KLRU16,
2IFCnew,66,0,66,0,0.402154799958,1,No,8.4,-1,Hit,0.467557800002,True,False,stimulusKLRU16_2IFCnew_2019_Jun_17_1643_583,stimulusKLRU16_2IFCnew_2019_Jun_17_1643_584,False,2019_Jun_17_1643,2IFCnew,3,KLRU16,
2IFCnew,67,0,67,0,0.400630699995,2,Yes,8.4,-1,Correct Rejection,0.634384999983,False,True,stimulusKLRU16_2IFCnew_2019_Jun_17_1643_585,stimulusKLRU16_2IFCnew_2019_Jun_17_1643_586,False,2019_Jun_17_1643,2IFCnew,3,KLRU16,
2IFCnew,68,0,68,0,0.432580299967,2,Yes,8.4,-1,Correct Rejection,0.600601000013,False,True,stimulusKLRU16_2IFCnew_2019_Jun_17_1643_587,stimulusKLRU16_2IFCnew_2019_Jun_17_1643_588,False,2019_Jun_17_1643,2IFCnew,3,KLRU16,
2IFCnew,69,0,69,0,0.333283099986,1,No,8.4,-1,Hit,0.50071220001,True,False,stimulusKLRU16_2IFCnew_2019_Jun_17_1643_589,stimulusKLRU16_2IFCnew_2019_Jun_17_1643_590,False,2019_Jun_17_1643,2IFCnew,3,KLRU16,
2IFCnew,70,0,70,0,0.267943000013,2,Yes,8.4,-1,Correct Rejection,0.633866399992,False,True,stimulusKLRU16_2IFCnew_2019_Jun_17_1643_591,stimulusKLRU16_2IFCnew_2019_Jun_17_1643_592,False,2019_Jun_17_1643,2IFCnew,3,KLRU16,
2IFCnew,71,0,71,0,0.335272700002,1,No,8.4,-1,Hit,0.568559100037,True,False,stimulusKLRU16_2IFCnew_2019_Jun_17_1643_593,stimulusKLRU16_2IFCnew_2019_Jun_17_1643_594,False,2019_Jun_17_1643,2IFCnew,3,KLRU16,
2IFCnew,72,0,72,0,0.400314500032,1,No,8.4,-1,Hit,0.5342925,True,False,stimulusKLRU16_2IFCnew_2019_Jun_17_1643_595,stimulusKLRU16_2IFCnew_2019_Jun_17_1643_596,False,2019_Jun_17_1643,2IFCnew,3,KLRU16,
2IFCnew,73,0,73,0,0.734204099979,2,Yes,8.4,-1,Correct Rejection,0.534721700009,False,True,stimulusKLRU16_2IFCnew_2019_Jun_17_1643_597,stimulusKLRU16_2IFCnew_2019_Jun_17_1643_598,False,2019_Jun_17_1643,2IFCnew,3,KLRU16,
2IFCnew,74,0,74,0,0.636312099989,2,Yes,8.4,-1,Correct Rejection,0.534563199966,False,True,stimulusKLRU16_2IFCnew_2019_Jun_17_1643_599,stimulusKLRU16_2IFCnew_2019_Jun_17_1643_600,False,2019_Jun_17_1643,2IFCnew,3,KLRU16,
2IFCnew,0,0,0,0,0.366466199979,2,Yes,3.5,-1,Correct Rejection,0.467276599957,False,True,stimulusKLRU16_2IFCnew_2019_Jun_17_1643_601,stimulusKLRU16_2IFCnew_2019_Jun_17_1643_602,False,2019_Jun_17_1643,2IFCnew,3,KLRU16,
2IFCnew,1,0,1,0,0.299805000017,3,No,3.5,-1,False Alarm,0.667577499989,False,True,stimulusKLRU16_2IFCnew_2019_Jun_17_1643_603,stimulusKLRU16_2IFCnew_2019_Jun_17_1643_604,False,2019_Jun_17_1643,2IFCnew,3,KLRU16,
2IFCnew,2,0,2,0,0.567599400005,4,Yes,3.5,-1,Miss,0.500612100004,True,False,stimulusKLRU16_2IFCnew_2019_Jun_17_1643_605,stimulusKLRU16_2IFCnew_2019_Jun_17_1643_606,False,2019_Jun_17_1643,2IFCnew,3,KLRU16,
2IFCnew,3,0,3,0,0.799147200014,2,Yes,3.5,-1,Correct Rejection,0.566881600011,False,True,stimulusKLRU16_2IFCnew_2019_Jun_17_1643_607,stimulusKLRU16_2IFCnew_2019_Jun_17_1643_608,False,2019_Jun_17_1643,2IFCnew,3,KLRU16,
2IFCnew,4,0,4,0,0.233645000029,1,No,3.5,-1,Hit,0.567435499979,True,False,stimulusKLRU16_2IFCnew_2019_Jun_17_1643_609,stimulusKLRU16_2IFCnew_2019_Jun_17_1643_610,False,2019_Jun_17_1643,2IFCnew,3,KLRU16,
2IFCnew,5,0,5,0,0.467414100014,1,No,3.5,-1,Hit,0.56725979998,True,False,stimulusKLRU16_2IFCnew_2019_Jun_17_1643_611,stimulusKLRU16_2IFCnew_2019_Jun_17_1643_612,False,2019_Jun_17_1643,2IFCnew,3,KLRU16,
2IFCnew,6,0,6,0,0.167088699993,1,No,3.5,-1,Hit,0.501126800023,True,False,stimulusKLRU16_2IFCnew_2019_Jun_17_1643_613,stimulusKLRU16_2IFCnew_2019_Jun_17_1643_614,False,2019_Jun_17_1643,2IFCnew,3,KLRU16,
2IFCnew,7,0,7,0,0.83423170005,8,No,3.5,-1,Correct Rejection,0.63318569999,False,True,stimulusKLRU16_2IFCnew_2019_Jun_17_1643_615,stimulusKLRU16_2IFCnew_2019_Jun_17_1643_616,False,2019_Jun_17_1643,2IFCnew,3,KLRU16,
2IFCnew,8,0,8,0,0.666296600015,2,Yes,3.5,-1,Correct Rejection,0.900972100033,False,True,stimulusKLRU16_2IFCnew_2019_Jun_17_1643_617,stimulusKLRU16_2IFCnew_2019_Jun_17_1643_618,False,2019_Jun_17_1643,2IFCnew,3,KLRU16,
2IFCnew,9,0,9,0,0.200931500003,1,No,3.5,-1,Hit,0.667617800005,True,False,stimulusKLRU16_2IFCnew_2019_Jun_17_1643_619,stimulusKLRU16_2IFCnew_2019_Jun_17_1643_620,False,2019_Jun_17_1643,2IFCnew,3,KLRU16,
2IFCnew,10,0,10,0,0.500697100011,2,Yes,3.5,-1,Correct Rejection,0.599280999973,False,True,stimulusKLRU16_2IFCnew_2019_Jun_17_1643_621,stimulusKLRU16_2IFCnew_2019_Jun_17_1643_622,False,2019_Jun_17_1643,2IFCnew,3,KLRU16,
2IFCnew,11,0,11,0,0.433589299966,1,No,3.5,-1,Hit,0.634195499995,True,False,stimulusKLRU16_2IFCnew_2019_Jun_17_1643_623,stimulusKLRU16_2IFCnew_2019_Jun_17_1643_624,False,2019_Jun_17_1643,2IFCnew,3,KLRU16,
2IFCnew,12,0,12,0,0.400927699986,2,Yes,3.5,-1,Correct Rejection,0.4676033,False,True,stimulusKLRU16_2IFCnew_2019_Jun_17_1643_625,stimulusKLRU16_2IFCnew_2019_Jun_17_1643_626,False,2019_Jun_17_1643,2IFCnew,3,KLRU16,
2IFCnew,13,0,13,0,0.200398100016,1,No,3.5,-1,Hit,0.533630900027,True,False,stimulusKLRU16_2IFCnew_2019_Jun_17_1643_627,stimulusKLRU16_2IFCnew_2019_Jun_17_1643_628,False,2019_Jun_17_1643,2IFCnew,3,KLRU16,
2IFCnew,14,0,14,0,0.266526100051,1,No,3.5,-1,Hit,0.500810800004,True,False,stimulusKLRU16_2IFCnew_2019_Jun_17_1643_629,stimulusKLRU16_2IFCnew_2019_Jun_17_1643_630,False,2019_Jun_17_1643,2IFCnew,3,KLRU16,
2IFCnew,15,0,15,0,0.733953300049,8,No,3.5,-1,Correct Rejection,0.567244399979,False,True,stimulusKLRU16_2IFCnew_2019_Jun_17_1643_631,stimulusKLRU16_2IFCnew_2019_Jun_17_1643_632,False,2019_Jun_17_1643,2IFCnew,3,KLRU16,
2IFCnew,16,0,16,0,0.83480250003,6,No,3.5,-1,Miss,0.6019371,True,False,stimulusKLRU16_2IFCnew_2019_Jun_17_1643_633,stimulusKLRU16_2IFCnew_2019_Jun_17_1643_634,False,2019_Jun_17_1643,2IFCnew,3,KLRU16,
2IFCnew,17,0,17,0,0.900957399979,3,No,3.5,-1,False Alarm,0.700698399974,False,True,stimulusKLRU16_2IFCnew_2019_Jun_17_1643_635,stimulusKLRU16_2IFCnew_2019_Jun_17_1643_636,False,2019_Jun_17_1643,2IFCnew,3,KLRU16,
2IFCnew,18,0,18,0,0.534165799967,4,Yes,3.5,-1,Miss,0.869197799999,True,False,stimulusKLRU16_2IFCnew_2019_Jun_17_1643_637,stimulusKLRU16_2IFCnew_2019_Jun_17_1643_638,False,2019_Jun_17_1643,2IFCnew,3,KLRU16,
2IFCnew,19,0,19,0,0.333667900006,1,No,3.5,-1,Hit,0.601382300025,True,False,stimulusKLRU16_2IFCnew_2019_Jun_17_1643_639,stimulusKLRU16_2IFCnew_2019_Jun_17_1643_640,False,2019_Jun_17_1643,2IFCnew,3,KLRU16,
2IFCnew,20,0,20,0,0.634010500042,6,No,3.5,-1,Miss,0.533558499999,True,False,stimulusKLRU16_2IFCnew_2019_Jun_17_1643_641,stimulusKLRU16_2IFCnew_2019_Jun_17_1643_642,False,2019_Jun_17_1643,2IFCnew,3,KLRU16,
2IFCnew,21,0,21,0,0.500656299992,2,Yes,3.5,-1,Correct Rejection,0.533656399988,False,True,stimulusKLRU16_2IFCnew_2019_Jun_17_1643_643,stimulusKLRU16_2IFCnew_2019_Jun_17_1643_644,False,2019_Jun_17_1643,2IFCnew,3,KLRU16,
2IFCnew,22,0,22,0,0.601209799992,2,Yes,3.5,-1,Correct Rejection,0.567164000007,False,True,stimulusKLRU16_2IFCnew_2019_Jun_17_1643_645,stimulusKLRU16_2IFCnew_2019_Jun_17_1643_646,False,2019_Jun_17_1643,2IFCnew,3,KLRU16,
2IFCnew,23,0,23,0,0.700615599984,4,Yes,3.5,-1,Miss,0.463935800013,True,False,stimulusKLRU16_2IFCnew_2019_Jun_17_1643_647,stimulusKLRU16_2IFCnew_2019_Jun_17_1643_648,False,2019_Jun_17_1643,2IFCnew,3,KLRU16,
2IFCnew,24,0,24,0,0.700935999979,5,Yes,3.5,-1,False Alarm,0.734202999971,False,True,stimulusKLRU16_2IFCnew_2019_Jun_17_1643_649,stimulusKLRU16_2IFCnew_2019_Jun_17_1643_650,False,2019_Jun_17_1643,2IFCnew,3,KLRU16,
2IFCnew,25,0,25,0,0.50145609997,2,Yes,3.5,-1,Correct Rejection,0.567926399992,False,True,stimulusKLRU16_2IFCnew_2019_Jun_17_1643_651,stimulusKLRU16_2IFCnew_2019_Jun_17_1643_652,False,2019_Jun_17_1643,2IFCnew,3,KLRU16,
2IFCnew,26,0,26,0,0.567250199965,2,Yes,3.5,-1,Correct Rejection,0.63333599997,False,True,stimulusKLRU16_2IFCnew_2019_Jun_17_1643_653,stimulusKLRU16_2IFCnew_2019_Jun_17_1643_654,False,2019_Jun_17_1643,2IFCnew,3,KLRU16,
2IFCnew,27,0,27,0,0.467457999999,4,Yes,3.5,-1,Miss,0.601052500017,True,False,stimulusKLRU16_2IFCnew_2019_Jun_17_1643_655,stimulusKLRU16_2IFCnew_2019_Jun_17_1643_656,False,2019_Jun_17_1643,2IFCnew,3,KLRU16,
2IFCnew,28,0,28,0,0.668841899955,5,Yes,3.5,-1,False Alarm,0.667212500004,False,True,stimulusKLRU16_2IFCnew_2019_Jun_17_1643_657,stimulusKLRU16_2IFCnew_2019_Jun_17_1643_658,False,2019_Jun_17_1643,2IFCnew,3,KLRU16,
2IFCnew,29,0,29,0,0.666585899948,2,Yes,3.5,-1,Correct Rejection,0.499789300025,False,True,stimulusKLRU16_2IFCnew_2019_Jun_17_1643_659,stimulusKLRU16_2IFCnew_2019_Jun_17_1643_660,False,2019_Jun_17_1643,2IFCnew,3,KLRU16,
2IFCnew,30,0,30,0,0.800771900045,8,No,3.5,-1,Correct Rejection,0.634122000018,False,True,stimulusKLRU16_2IFCnew_2019_Jun_17_1643_661,stimulusKLRU16_2IFCnew_2019_Jun_17_1643_662,False,2019_Jun_17_1643,2IFCnew,3,KLRU16,
2IFCnew,31,0,31,0,0.532318800048,1,No,3.5,-1,Hit,0.767508600024,True,False,stimulusKLRU16_2IFCnew_2019_Jun_17_1643_663,stimulusKLRU16_2IFCnew_2019_Jun_17_1643_664,False,2019_Jun_17_1643,2IFCnew,3,KLRU16,
2IFCnew,32,0,32,0,0.700267100008,8,No,3.5,-1,Correct Rejection,0.634077699971,False,True,stimulusKLRU16_2IFCnew_2019_Jun_17_1643_665,stimulusKLRU16_2IFCnew_2019_Jun_17_1643_666,False,2019_Jun_17_1643,2IFCnew,3,KLRU16,
2IFCnew,33,0,33,0,0.868044600007,4,Yes,3.5,-1,Miss,0.568268099974,True,False,stimulusKLRU16_2IFCnew_2019_Jun_17_1643_667,stimulusKLRU16_2IFCnew_2019_Jun_17_1643_668,False,2019_Jun_17_1643,2IFCnew,3,KLRU16,
2IFCnew,34,0,34,0,0.66776869999,5,Yes,3.5,-1,False Alarm,0.700593699992,False,True,stimulusKLRU16_2IFCnew_2019_Jun_17_1643_669,stimulusKLRU16_2IFCnew_2019_Jun_17_1643_670,False,2019_Jun_17_1643,2IFCnew,3,KLRU16,
2IFCnew,35,0,35,0,0.701648100046,2,Yes,3.5,-1,Correct Rejection,0.633850699989,False,True,stimulusKLRU16_2IFCnew_2019_Jun_17_1643_671,stimulusKLRU16_2IFCnew_2019_Jun_17_1643_672,False,2019_Jun_17_1643,2IFCnew,3,KLRU16,
2IFCnew,36,0,36,0,0.467447999981,1,No,3.5,-1,Hit,0.500381199992,True,False,stimulusKLRU16_2IFCnew_2019_Jun_17_1643_673,stimulusKLRU16_2IFCnew_2019_Jun_17_1643_674,False,2019_Jun_17_1643,2IFCnew,3,KLRU16,
2IFCnew,37,0,37,0,0.633784000005,5,Yes,3.5,-1,False Alarm,0.667585799994,False,True,stimulusKLRU16_2IFCnew_2019_Jun_17_1643_675,stimulusKLRU16_2IFCnew_2019_Jun_17_1643_676,False,2019_Jun_17_1643,2IFCnew,3,KLRU16,
2IFCnew,38,0,38,0,0.73339280003,1,No,3.5,-1,Hit,0.567481699982,True,False,stimulusKLRU16_2IFCnew_2019_Jun_17_1643_677,stimulusKLRU16_2IFCnew_2019_Jun_17_1643_678,False,2019_Jun_17_1643,2IFCnew,3,KLRU16,
2IFCnew,39,0,39,0,0.70032459998,1,No,3.5,-1,Hit,0.500955299998,True,False,stimulusKLRU16_2IFCnew_2019_Jun_17_1643_679,stimulusKLRU16_2IFCnew_2019_Jun_17_1643_680,False,2019_Jun_17_1643,2IFCnew,3,KLRU16,
2IFCnew,40,0,40,0,0.567248200008,2,Yes,3.5,-1,Correct Rejection,0.634029600013,False,True,stimulusKLRU16_2IFCnew_2019_Jun_17_1643_681,stimulusKLRU16_2IFCnew_2019_Jun_17_1643_682,False,2019_Jun_17_1643,2IFCnew,3,KLRU16,
2IFCnew,41,0,41,0,0.500658200006,2,Yes,3.5,-1,Correct Rejection,0.566261700005,False,True,stimulusKLRU16_2IFCnew_2019_Jun_17_1643_683,stimulusKLRU16_2IFCnew_2019_Jun_17_1643_684,False,2019_Jun_17_1643,2IFCnew,3,KLRU16,
2IFCnew,42,0,42,0,0.433184000023,3,No,3.5,-1,False Alarm,0.534669900022,False,True,stimulusKLRU16_2IFCnew_2019_Jun_17_1643_685,stimulusKLRU16_2IFCnew_2019_Jun_17_1643_686,False,2019_Jun_17_1643,2IFCnew,3,KLRU16,
2IFCnew,43,0,43,0,0.534055199998,2,Yes,3.5,-1,Correct Rejection,0.600920700002,False,True,stimulusKLRU16_2IFCnew_2019_Jun_17_1643_687,stimulusKLRU16_2IFCnew_2019_Jun_17_1643_688,False,2019_Jun_17_1643,2IFCnew,3,KLRU16,
2IFCnew,44,0,44,0,0.53379799996,2,Yes,3.5,-1,Correct Rejection,0.768782500003,False,True,stimulusKLRU16_2IFCnew_2019_Jun_17_1643_689,stimulusKLRU16_2IFCnew_2019_Jun_17_1643_690,False,2019_Jun_17_1643,2IFCnew,3,KLRU16,
2IFCnew,45,0,45,0,0.600700500014,1,No,3.5,-1,Hit,0.732647299999,True,False,stimulusKLRU16_2IFCnew_2019_Jun_17_1643_691,stimulusKLRU16_2IFCnew_2019_Jun_17_1643_692,False,2019_Jun_17_1643,2IFCnew,3,KLRU16,
2IFCnew,46,0,46,0,0.533067299984,1,No,3.5,-1,Hit,0.534919099999,True,False,stimulusKLRU16_2IFCnew_2019_Jun_17_1643_693,stimulusKLRU16_2IFCnew_2019_Jun_17_1643_694,False,2019_Jun_17_1643,2IFCnew,3,KLRU16,
2IFCnew,47,0,47,0,0.565689899959,2,Yes,3.5,-1,Correct Rejection,0.633775100054,False,True,stimulusKLRU16_2IFCnew_2019_Jun_17_1643_695,stimulusKLRU16_2IFCnew_2019_Jun_17_1643_696,False,2019_Jun_17_1643,2IFCnew,3,KLRU16,
2IFCnew,48,0,48,0,0.600513299985,1,No,3.5,-1,Hit,0.701185400016,True,False,stimulusKLRU16_2IFCnew_2019_Jun_17_1643_697,stimulusKLRU16_2IFCnew_2019_Jun_17_1643_698,False,2019_Jun_17_1643,2IFCnew,3,KLRU16,
2IFCnew,49,0,49,0,0.633814600005,8,No,3.5,-1,Correct Rejection,0.732884900004,False,True,stimulusKLRU16_2IFCnew_2019_Jun_17_1643_699,stimulusKLRU16_2IFCnew_2019_Jun_17_1643_700,False,2019_Jun_17_1643,2IFCnew,3,KLRU16,
2IFCnew,50,0,50,0,0.767189999984,6,No,3.5,-1,Miss,0.667181500001,True,False,stimulusKLRU16_2IFCnew_2019_Jun_17_1643_701,stimulusKLRU16_2IFCnew_2019_Jun_17_1643_702,False,2019_Jun_17_1643,2IFCnew,3,KLRU16,
2IFCnew,51,0,51,0,0.767638200021,4,Yes,3.5,-1,Miss,0.601710200019,True,False,stimulusKLRU16_2IFCnew_2019_Jun_17_1643_703,stimulusKLRU16_2IFCnew_2019_Jun_17_1643_704,False,2019_Jun_17_1643,2IFCnew,3,KLRU16,
2IFCnew,52,0,52,0,0.768108699995,6,No,3.5,-1,Miss,0.765240000037,True,False,stimulusKLRU16_2IFCnew_2019_Jun_17_1643_705,stimulusKLRU16_2IFCnew_2019_Jun_17_1643_706,False,2019_Jun_17_1643,2IFCnew,3,KLRU16,
2IFCnew,53,0,53,0,0.632382300042,5,Yes,3.5,-1,False Alarm,0.701025300019,False,True,stimulusKLRU16_2IFCnew_2019_Jun_17_1643_707,stimulusKLRU16_2IFCnew_2019_Jun_17_1643_708,False,2019_Jun_17_1643,2IFCnew,3,KLRU16,
2IFCnew,54,0,54,0,0.567191199982,2,Yes,3.5,-1,Correct Rejection,0.534119800024,False,True,stimulusKLRU16_2IFCnew_2019_Jun_17_1643_709,stimulusKLRU16_2IFCnew_2019_Jun_17_1643_710,False,2019_Jun_17_1643,2IFCnew,3,KLRU16,
2IFCnew,55,0,55,0,0.80170120002,1,No,3.5,-1,Hit,0.567720899999,True,False,stimulusKLRU16_2IFCnew_2019_Jun_17_1643_711,stimulusKLRU16_2IFCnew_2019_Jun_17_1643_712,False,2019_Jun_17_1643,2IFCnew,3,KLRU16,
2IFCnew,56,0,56,0,0.567157300015,2,Yes,3.5,-1,Correct Rejection,0.50089049997,False,True,stimulusKLRU16_2IFCnew_2019_Jun_17_1643_713,stimulusKLRU16_2IFCnew_2019_Jun_17_1643_714,False,2019_Jun_17_1643,2IFCnew,3,KLRU16,
2IFCnew,57,0,57,0,0.567154399992,1,No,3.5,-1,Hit,0.633849100035,True,False,stimulusKLRU16_2IFCnew_2019_Jun_17_1643_715,stimulusKLRU16_2IFCnew_2019_Jun_17_1643_716,False,2019_Jun_17_1643,2IFCnew,3,KLRU16,
2IFCnew,58,0,58,0,0.700564800005,5,Yes,3.5,-1,False Alarm,0.601317699999,False,True,stimulusKLRU16_2IFCnew_2019_Jun_17_1643_717,stimulusKLRU16_2IFCnew_2019_Jun_17_1643_718,False,2019_Jun_17_1643,2IFCnew,3,KLRU16,
2IFCnew,59,0,59,0,0.331812100019,4,Yes,3.5,-1,Miss,0.53394470003,True,False,stimulusKLRU16_2IFCnew_2019_Jun_17_1643_719,stimulusKLRU16_2IFCnew_2019_Jun_17_1643_720,False,2019_Jun_17_1643,2IFCnew,3,KLRU16,
2IFCnew,60,0,60,0,0.600224900001,1,No,3.5,-1,Hit,0.634738699999,True,False,stimulusKLRU16_2IFCnew_2019_Jun_17_1643_721,stimulusKLRU16_2IFCnew_2019_Jun_17_1643_722,False,2019_Jun_17_1643,2IFCnew,3,KLRU16,
2IFCnew,61,0,61,0,0.500695900002,1,No,3.5,-1,Hit,0.633769600012,True,False,stimulusKLRU16_2IFCnew_2019_Jun_17_1643_723,stimulusKLRU16_2IFCnew_2019_Jun_17_1643_724,False,2019_Jun_17_1643,2IFCnew,3,KLRU16,
2IFCnew,62,0,62,0,0.466405099956,1,No,3.5,-1,Hit,0.50058339996,True,False,stimulusKLRU16_2IFCnew_2019_Jun_17_1643_725,stimulusKLRU16_2IFCnew_2019_Jun_17_1643_726,False,2019_Jun_17_1643,2IFCnew,3,KLRU16,
2IFCnew,63,0,63,0,0.4671829,2,Yes,3.5,-1,Correct Rejection,0.800913299958,False,True,stimulusKLRU16_2IFCnew_2019_Jun_17_1643_727,stimulusKLRU16_2IFCnew_2019_Jun_17_1643_728,False,2019_Jun_17_1643,2IFCnew,3,KLRU16,
2IFCnew,64,0,64,0,0.467787300004,2,Yes,3.5,-1,Correct Rejection,0.632739299966,False,True,stimulusKLRU16_2IFCnew_2019_Jun_17_1643_729,stimulusKLRU16_2IFCnew_2019_Jun_17_1643_730,False,2019_Jun_17_1643,2IFCnew,3,KLRU16,
2IFCnew,65,0,65,0,0.468708999979,4,Yes,3.5,-1,Miss,0.767508499965,True,False,stimulusKLRU16_2IFCnew_2019_Jun_17_1643_731,stimulusKLRU16_2IFCnew_2019_Jun_17_1643_732,False,2019_Jun_17_1643,2IFCnew,3,KLRU16,
2IFCnew,66,0,66,0,0.800709699979,6,No,3.5,-1,Miss,0.698045599973,True,False,stimulusKLRU16_2IFCnew_2019_Jun_17_1643_733,stimulusKLRU16_2IFCnew_2019_Jun_17_1643_734,False,2019_Jun_17_1643,2IFCnew,3,KLRU16,
2IFCnew,67,0,67,0,0.434862900001,2,Yes,3.5,-1,Correct Rejection,0.500695299997,False,True,stimulusKLRU16_2IFCnew_2019_Jun_17_1643_735,stimulusKLRU16_2IFCnew_2019_Jun_17_1643_736,False,2019_Jun_17_1643,2IFCnew,3,KLRU16,
2IFCnew,68,0,68,0,0.701709099987,1,No,3.5,-1,Hit,0.500873499957,True,False,stimulusKLRU16_2IFCnew_2019_Jun_17_1643_737,stimulusKLRU16_2IFCnew_2019_Jun_17_1643_738,False,2019_Jun_17_1643,2IFCnew,3,KLRU16,
2IFCnew,69,0,69,0,0.667306800024,3,No,3.5,-1,False Alarm,0.468800300034,False,True,stimulusKLRU16_2IFCnew_2019_Jun_17_1643_739,stimulusKLRU16_2IFCnew_2019_Jun_17_1643_740,False,2019_Jun_17_1643,2IFCnew,3,KLRU16,
2IFCnew,70,0,70,0,0.500281699991,2,Yes,3.5,-1,Correct Rejection,0.53292149998,False,True,stimulusKLRU16_2IFCnew_2019_Jun_17_1643_741,stimulusKLRU16_2IFCnew_2019_Jun_17_1643_742,False,2019_Jun_17_1643,2IFCnew,3,KLRU16,
2IFCnew,71,0,71,0,0.468322200002,1,No,3.5,-1,Hit,0.600989700004,True,False,stimulusKLRU16_2IFCnew_2019_Jun_17_1643_743,stimulusKLRU16_2IFCnew_2019_Jun_17_1643_744,False,2019_Jun_17_1643,2IFCnew,3,KLRU16,
2IFCnew,72,0,72,0,0.66751900001,1,No,3.5,-1,Hit,0.899941099982,True,False,stimulusKLRU16_2IFCnew_2019_Jun_17_1643_745,stimulusKLRU16_2IFCnew_2019_Jun_17_1643_746,False,2019_Jun_17_1643,2IFCnew,3,KLRU16,
2IFCnew,73,0,73,0,0.500684900035,3,No,3.5,-1,False Alarm,0.666938299953,False,True,stimulusKLRU16_2IFCnew_2019_Jun_17_1643_747,stimulusKLRU16_2IFCnew_2019_Jun_17_1643_748,False,2019_Jun_17_1643,2IFCnew,3,KLRU16,
2IFCnew,74,0,74,0,0.400481000019,2,Yes,3.5,-1,Correct Rejection,0.600999599963,False,True,stimulusKLRU16_2IFCnew_2019_Jun_17_1643_749,stimulusKLRU16_2IFCnew_2019_Jun_17_1643_750,False,2019_Jun_17_1643,2IFCnew,3,KLRU16,
2IFCnew,0,0,0,0,0.598421600007,6,No,7.4,-1,Miss,0.534013099968,True,False,stimulusKLRU16_2IFCnew_2019_Jun_17_1643_751,stimulusKLRU16_2IFCnew_2019_Jun_17_1643_752,False,2019_Jun_17_1643,2IFCnew,3,KLRU16,
2IFCnew,1,0,1,0,0.533799499972,2,Yes,7.4,-1,Correct Rejection,0.533835600014,False,True,stimulusKLRU16_2IFCnew_2019_Jun_17_1643_753,stimulusKLRU16_2IFCnew_2019_Jun_17_1643_754,False,2019_Jun_17_1643,2IFCnew,3,KLRU16,
2IFCnew,2,0,2,0,0.468580299988,2,Yes,7.4,-1,Correct Rejection,0.567330799997,False,True,stimulusKLRU16_2IFCnew_2019_Jun_17_1643_755,stimulusKLRU16_2IFCnew_2019_Jun_17_1643_756,False,2019_Jun_17_1643,2IFCnew,3,KLRU16,
2IFCnew,3,0,3,0,0.36735060002,2,Yes,7.4,-1,Correct Rejection,0.467063599965,False,True,stimulusKLRU16_2IFCnew_2019_Jun_17_1643_757,stimulusKLRU16_2IFCnew_2019_Jun_17_1643_758,False,2019_Jun_17_1643,2IFCnew,3,KLRU16,
2IFCnew,4,0,4,0,0.467225300032,8,No,7.4,-1,Correct Rejection,0.501024800004,False,True,stimulusKLRU16_2IFCnew_2019_Jun_17_1643_759,stimulusKLRU16_2IFCnew_2019_Jun_17_1643_760,False,2019_Jun_17_1643,2IFCnew,3,KLRU16,
2IFCnew,5,0,5,0,0.200177599967,1,No,7.4,-1,Hit,0.567781299993,True,False,stimulusKLRU16_2IFCnew_2019_Jun_17_1643_761,stimulusKLRU16_2IFCnew_2019_Jun_17_1643_762,False,2019_Jun_17_1643,2IFCnew,3,KLRU16,
2IFCnew,6,0,6,0,0.0650336999679,1,No,7.4,-1,Hit,0.50076949998,True,False,stimulusKLRU16_2IFCnew_2019_Jun_17_1643_763,stimulusKLRU16_2IFCnew_2019_Jun_17_1643_764,False,2019_Jun_17_1643,2IFCnew,3,KLRU16,
2IFCnew,7,0,7,0,0.26697300002,3,No,7.4,-1,False Alarm,0.666574300034,False,True,stimulusKLRU16_2IFCnew_2019_Jun_17_1643_765,stimulusKLRU16_2IFCnew_2019_Jun_17_1643_766,False,2019_Jun_17_1643,2IFCnew,3,KLRU16,
2IFCnew,8,0,8,0,0.433705099975,2,Yes,7.4,-1,Correct Rejection,0.567368299991,False,True,stimulusKLRU16_2IFCnew_2019_Jun_17_1643_767,stimulusKLRU16_2IFCnew_2019_Jun_17_1643_768,False,2019_Jun_17_1643,2IFCnew,3,KLRU16,
2IFCnew,9,0,9,0,0.500354800024,2,Yes,7.4,-1,Correct Rejection,0.500472899992,False,True,stimulusKLRU16_2IFCnew_2019_Jun_17_1643_769,stimulusKLRU16_2IFCnew_2019_Jun_17_1643_770,False,2019_Jun_17_1643,2IFCnew,3,KLRU16,
2IFCnew,10,0,10,0,0.600427699974,3,No,7.4,-1,False Alarm,0.567470200011,False,True,stimulusKLRU16_2IFCnew_2019_Jun_17_1643_771,stimulusKLRU16_2IFCnew_2019_Jun_17_1643_772,False,2019_Jun_17_1643,2IFCnew,3,KLRU16,
2IFCnew,11,0,11,0,0.400319299952,1,No,7.4,-1,Hit,0.599688899994,True,False,stimulusKLRU16_2IFCnew_2019_Jun_17_1643_773,stimulusKLRU16_2IFCnew_2019_Jun_17_1643_774,False,2019_Jun_17_1643,2IFCnew,3,KLRU16,
2IFCnew,12,0,12,0,0.533037899993,5,Yes,7.4,-1,False Alarm,0.536517600005,False,True,stimulusKLRU16_2IFCnew_2019_Jun_17_1643_775,stimulusKLRU16_2IFCnew_2019_Jun_17_1643_776,False,2019_Jun_17_1643,2IFCnew,3,KLRU16,
2IFCnew,13,0,13,0,0.569550000015,1,No,7.4,-1,Hit,0.56908049999,True,False,stimulusKLRU16_2IFCnew_2019_Jun_17_1643_777,stimulusKLRU16_2IFCnew_2019_Jun_17_1643_778,False,2019_Jun_17_1643,2IFCnew,3,KLRU16,
2IFCnew,14,0,14,0,0.367010499991,2,Yes,7.4,-1,Correct Rejection,0.601270799991,False,True,stimulusKLRU16_2IFCnew_2019_Jun_17_1643_779,stimulusKLRU16_2IFCnew_2019_Jun_17_1643_780,False,2019_Jun_17_1643,2IFCnew,3,KLRU16,
2IFCnew,15,0,15,0,0.500398500008,1,No,7.4,-1,Hit,0.567659199995,True,False,stimulusKLRU16_2IFCnew_2019_Jun_17_1643_781,stimulusKLRU16_2IFCnew_2019_Jun_17_1643_782,False,2019_Jun_17_1643,2IFCnew,3,KLRU16,
2IFCnew,16,0,16,0,0.467392100021,1,No,7.4,-1,Hit,0.504372800002,True,False,stimulusKLRU16_2IFCnew_2019_Jun_17_1643_783,stimulusKLRU16_2IFCnew_2019_Jun_17_1643_784,False,2019_Jun_17_1643,2IFCnew,3,KLRU16,
2IFCnew,17,0,17,0,0.467114700004,3,No,7.4,-1,False Alarm,0.670579399972,False,True,stimulusKLRU16_2IFCnew_2019_Jun_17_1643_785,stimulusKLRU16_2IFCnew_2019_Jun_17_1643_786,False,2019_Jun_17_1643,2IFCnew,3,KLRU16,
2IFCnew,18,0,18,0,0.330539000046,2,Yes,7.4,-1,Correct Rejection,0.500533500046,False,True,stimulusKLRU16_2IFCnew_2019_Jun_17_1643_787,stimulusKLRU16_2IFCnew_2019_Jun_17_1643_788,False,2019_Jun_17_1643,2IFCnew,3,KLRU16,
2IFCnew,19,0,19,0,0.40052049997,1,No,7.4,-1,Hit,0.500339399965,True,False,stimulusKLRU16_2IFCnew_2019_Jun_17_1643_789,stimulusKLRU16_2IFCnew_2019_Jun_17_1643_790,False,2019_Jun_17_1643,2IFCnew,3,KLRU16,
2IFCnew,20,0,20,0,0.363719700021,2,Yes,7.4,-1,Correct Rejection,0.602395599999,False,True,stimulusKLRU16_2IFCnew_2019_Jun_17_1643_791,stimulusKLRU16_2IFCnew_2019_Jun_17_1643_792,False,2019_Jun_17_1643,2IFCnew,3,KLRU16,
2IFCnew,21,0,21,0,0.4012506,2,Yes,7.4,-1,Correct Rejection,0.501130299992,False,True,stimulusKLRU16_2IFCnew_2019_Jun_17_1643_793,stimulusKLRU16_2IFCnew_2019_Jun_17_1643_794,False,2019_Jun_17_1643,2IFCnew,3,KLRU16,
2IFCnew,22,0,22,0,0.40054860001,4,Yes,7.4,-1,Miss,0.466059800005,True,False,stimulusKLRU16_2IFCnew_2019_Jun_17_1643_795,stimulusKLRU16_2IFCnew_2019_Jun_17_1643_796,False,2019_Jun_17_1643,2IFCnew,3,KLRU16,
2IFCnew,23,0,23,0,0.200273499999,1,No,7.4,-1,Hit,0.434107700014,True,False,stimulusKLRU16_2IFCnew_2019_Jun_17_1643_797,stimulusKLRU16_2IFCnew_2019_Jun_17_1643_798,False,2019_Jun_17_1643,2IFCnew,3,KLRU16,
2IFCnew,24,0,24,0,0.467569299974,1,No,7.4,-1,Hit,0.567307999998,True,False,stimulusKLRU16_2IFCnew_2019_Jun_17_1643_799,stimulusKLRU16_2IFCnew_2019_Jun_17_1643_800,False,2019_Jun_17_1643,2IFCnew,3,KLRU16,
2IFCnew,25,0,25,0,0.433970400016,1,No,7.4,-1,Hit,0.500091399997,True,False,stimulusKLRU16_2IFCnew_2019_Jun_17_1643_801,stimulusKLRU16_2IFCnew_2019_Jun_17_1643_802,False,2019_Jun_17_1643,2IFCnew,3,KLRU16,
2IFCnew,26,0,26,0,0.333665199985,1,No,7.4,-1,Hit,0.500812600018,True,False,stimulusKLRU16_2IFCnew_2019_Jun_17_1643_803,stimulusKLRU16_2IFCnew_2019_Jun_17_1643_804,False,2019_Jun_17_1643,2IFCnew,3,KLRU16,
2IFCnew,27,0,27,0,0.367320299963,1,No,7.4,-1,Hit,0.433155199979,True,False,stimulusKLRU16_2IFCnew_2019_Jun_17_1643_805,stimulusKLRU16_2IFCnew_2019_Jun_17_1643_806,False,2019_Jun_17_1643,2IFCnew,3,KLRU16,
2IFCnew,28,0,28,0,0.43396970001,2,Yes,7.4,-1,Correct Rejection,0.634595400013,False,True,stimulusKLRU16_2IFCnew_2019_Jun_17_1643_807,stimulusKLRU16_2IFCnew_2019_Jun_17_1643_808,False,2019_Jun_17_1643,2IFCnew,3,KLRU16,
2IFCnew,29,0,29,0,0.268145899987,1,No,7.4,-1,Hit,0.467273499991,True,False,stimulusKLRU16_2IFCnew_2019_Jun_17_1643_809,stimulusKLRU16_2IFCnew_2019_Jun_17_1643_810,False,2019_Jun_17_1643,2IFCnew,3,KLRU16,
2IFCnew,30,0,30,0,0.500734500005,2,Yes,7.4,-1,Correct Rejection,0.633807800012,False,True,stimulusKLRU16_2IFCnew_2019_Jun_17_1643_811,stimulusKLRU16_2IFCnew_2019_Jun_17_1643_812,False,2019_Jun_17_1643,2IFCnew,3,KLRU16,
2IFCnew,31,0,31,0,0.700899699994,8,No,7.4,-1,Correct Rejection,0.433862100006,False,True,stimulusKLRU16_2IFCnew_2019_Jun_17_1643_813,stimulusKLRU16_2IFCnew_2019_Jun_17_1643_814,False,2019_Jun_17_1643,2IFCnew,3,KLRU16,
2IFCnew,32,0,32,0,0.367155499989,2,Yes,7.4,-1,Correct Rejection,0.433185300033,False,True,stimulusKLRU16_2IFCnew_2019_Jun_17_1643_815,stimulusKLRU16_2IFCnew_2019_Jun_17_1643_816,False,2019_Jun_17_1643,2IFCnew,3,KLRU16,
2IFCnew,33,0,33,0,0.433924000012,1,No,7.4,-1,Hit,0.467917500006,True,False,stimulusKLRU16_2IFCnew_2019_Jun_17_1643_817,stimulusKLRU16_2IFCnew_2019_Jun_17_1643_818,False,2019_Jun_17_1643,2IFCnew,3,KLRU16,
2IFCnew,34,0,34,0,0.433780699968,1,No,7.4,-1,Hit,0.499569199979,True,False,stimulusKLRU16_2IFCnew_2019_Jun_17_1643_819,stimulusKLRU16_2IFCnew_2019_Jun_17_1643_820,False,2019_Jun_17_1643,2IFCnew,3,KLRU16,
2IFCnew,35,0,35,0,0.368038400018,2,Yes,7.4,-1,Correct Rejection,0.600585200009,False,True,stimulusKLRU16_2IFCnew_2019_Jun_17_1643_821,stimulusKLRU16_2IFCnew_2019_Jun_17_1643_822,False,2019_Jun_17_1643,2IFCnew,3,KLRU16,
2IFCnew,36,0,36,0,0.433869900007,2,Yes,7.4,-1,Correct Rejection,0.433896200033,False,True,stimulusKLRU16_2IFCnew_2019_Jun_17_1643_823,stimulusKLRU16_2IFCnew_2019_Jun_17_1643_824,False,2019_Jun_17_1643,2IFCnew,3,KLRU16,
2IFCnew,37,0,37,0,0.900821799994,3,No,7.4,-1,False Alarm,0.534828400007,False,True,stimulusKLRU16_2IFCnew_2019_Jun_17_1643_825,stimulusKLRU16_2IFCnew_2019_Jun_17_1643_826,False,2019_Jun_17_1643,2IFCnew,3,KLRU16,
2IFCnew,38,0,38,0,0.902609699988,6,No,7.4,-1,Miss,0.734008600004,True,False,stimulusKLRU16_2IFCnew_2019_Jun_17_1643_827,stimulusKLRU16_2IFCnew_2019_Jun_17_1643_828,False,2019_Jun_17_1643,2IFCnew,3,KLRU16,
2IFCnew,39,0,39,0,0.434119599988,2,Yes,7.4,-1,Correct Rejection,0.533901300048,False,True,stimulusKLRU16_2IFCnew_2019_Jun_17_1643_829,stimulusKLRU16_2IFCnew_2019_Jun_17_1643_830,False,2019_Jun_17_1643,2IFCnew,3,KLRU16,
2IFCnew,40,0,40,0,0.297377599985,2,Yes,7.4,-1,Correct Rejection,0.433958499983,False,True,stimulusKLRU16_2IFCnew_2019_Jun_17_1643_831,stimulusKLRU16_2IFCnew_2019_Jun_17_1643_832,False,2019_Jun_17_1643,2IFCnew,3,KLRU16,
2IFCnew,41,0,41,0,0.534297999984,6,No,7.4,-1,Miss,0.566886999994,True,False,stimulusKLRU16_2IFCnew_2019_Jun_17_1643_833,stimulusKLRU16_2IFCnew_2019_Jun_17_1643_834,False,2019_Jun_17_1643,2IFCnew,3,KLRU16,
2IFCnew,42,0,42,0,0.399445399991,2,Yes,7.4,-1,Correct Rejection,0.500647299981,False,True,stimulusKLRU16_2IFCnew_2019_Jun_17_1643_835,stimulusKLRU16_2IFCnew_2019_Jun_17_1643_836,False,2019_Jun_17_1643,2IFCnew,3,KLRU16,
2IFCnew,43,0,43,0,0.433921299991,2,Yes,7.4,-1,Correct Rejection,0.500596400001,False,True,stimulusKLRU16_2IFCnew_2019_Jun_17_1643_837,stimulusKLRU16_2IFCnew_2019_Jun_17_1643_838,False,2019_Jun_17_1643,2IFCnew,3,KLRU16,
2IFCnew,44,0,44,0,0.333972399996,2,Yes,7.4,-1,Correct Rejection,0.433864100021,False,True,stimulusKLRU16_2IFCnew_2019_Jun_17_1643_839,stimulusKLRU16_2IFCnew_2019_Jun_17_1643_840,False,2019_Jun_17_1643,2IFCnew,3,KLRU16,
2IFCnew,45,0,45,0,0.399997800007,1,No,7.4,-1,Hit,0.700536899967,True,False,stimulusKLRU16_2IFCnew_2019_Jun_17_1643_841,stimulusKLRU16_2IFCnew_2019_Jun_17_1643_842,False,2019_Jun_17_1643,2IFCnew,3,KLRU16,
2IFCnew,46,0,46,0,0.833324100007,6,No,7.4,-1,Miss,0.633091799973,True,False,stimulusKLRU16_2IFCnew_2019_Jun_17_1643_843,stimulusKLRU16_2IFCnew_2019_Jun_17_1643_844,False,2019_Jun_17_1643,2IFCnew,3,KLRU16,
2IFCnew,47,0,47,0,0.569516899996,2,Yes,7.4,-1,Correct Rejection,0.59799889999,False,True,stimulusKLRU16_2IFCnew_2019_Jun_17_1643_845,stimulusKLRU16_2IFCnew_2019_Jun_17_1643_846,False,2019_Jun_17_1643,2IFCnew,3,KLRU16,
2IFCnew,48,0,48,0,0.467495699995,2,Yes,7.4,-1,Correct Rejection,0.70221790002,False,True,stimulusKLRU16_2IFCnew_2019_Jun_17_1643_847,stimulusKLRU16_2IFCnew_2019_Jun_17_1643_848,False,2019_Jun_17_1643,2IFCnew,3,KLRU16,
2IFCnew,49,0,49,0,0.400282399962,4,Yes,7.4,-1,Miss,0.633687899972,True,False,stimulusKLRU16_2IFCnew_2019_Jun_17_1643_849,stimulusKLRU16_2IFCnew_2019_Jun_17_1643_850,False,2019_Jun_17_1643,2IFCnew,3,KLRU16,
2IFCnew,50,0,50,0,0.834270799998,3,No,7.4,-1,False Alarm,0.534029499977,False,True,stimulusKLRU16_2IFCnew_2019_Jun_17_1643_851,stimulusKLRU16_2IFCnew_2019_Jun_17_1643_852,False,2019_Jun_17_1643,2IFCnew,3,KLRU16,
2IFCnew,51,0,51,0,0.534314199991,4,Yes,7.4,-1,Miss,0.434138000011,True,False,stimulusKLRU16_2IFCnew_2019_Jun_17_1643_853,stimulusKLRU16_2IFCnew_2019_Jun_17_1643_854,False,2019_Jun_17_1643,2IFCnew,3,KLRU16,
2IFCnew,52,0,52,0,0.56685090001,1,No,7.4,-1,Hit,0.667316000035,True,False,stimulusKLRU16_2IFCnew_2019_Jun_17_1643_855,stimulusKLRU16_2IFCnew_2019_Jun_17_1643_856,False,2019_Jun_17_1643,2IFCnew,3,KLRU16,
2IFCnew,53,0,53,0,0.434340899985,2,Yes,7.4,-1,Correct Rejection,0.6332023,False,True,stimulusKLRU16_2IFCnew_2019_Jun_17_1643_857,stimulusKLRU16_2IFCnew_2019_Jun_17_1643_858,False,2019_Jun_17_1643,2IFCnew,3,KLRU16,
2IFCnew,54,0,54,0,0.600839099963,2,Yes,7.4,-1,Correct Rejection,0.567883200012,False,True,stimulusKLRU16_2IFCnew_2019_Jun_17_1643_859,stimulusKLRU16_2IFCnew_2019_Jun_17_1643_860,False,2019_Jun_17_1643,2IFCnew,3,KLRU16,
2IFCnew,55,0,55,0,0.667057299986,2,Yes,7.4,-1,Correct Rejection,0.534045700042,False,True,stimulusKLRU16_2IFCnew_2019_Jun_17_1643_861,stimulusKLRU16_2IFCnew_2019_Jun_17_1643_862,False,2019_Jun_17_1643,2IFCnew,3,KLRU16,
2IFCnew,56,0,56,0,0.567369900004,1,No,7.4,-1,Hit,0.634434999956,True,False,stimulusKLRU16_2IFCnew_2019_Jun_17_1643_863,stimulusKLRU16_2IFCnew_2019_Jun_17_1643_864,False,2019_Jun_17_1643,2IFCnew,3,KLRU16,
2IFCnew,57,0,57,0,0.400534400018,2,Yes,7.4,-1,Correct Rejection,0.568136900023,False,True,stimulusKLRU16_2IFCnew_2019_Jun_17_1643_865,stimulusKLRU16_2IFCnew_2019_Jun_17_1643_866,False,2019_Jun_17_1643,2IFCnew,3,KLRU16,
2IFCnew,58,0,58,0,0.200486099988,1,No,7.4,-1,Hit,0.434654599987,True,False,stimulusKLRU16_2IFCnew_2019_Jun_17_1643_867,stimulusKLRU16_2IFCnew_2019_Jun_17_1643_868,False,2019_Jun_17_1643,2IFCnew,3,KLRU16,
2IFCnew,59,0,59,0,0.600578400015,3,No,7.4,-1,False Alarm,0.401153100014,False,True,stimulusKLRU16_2IFCnew_2019_Jun_17_1643_869,stimulusKLRU16_2IFCnew_2019_Jun_17_1643_870,False,2019_Jun_17_1643,2IFCnew,3,KLRU16,
2IFCnew,60,0,60,0,0.634150099999,2,Yes,7.4,-1,Correct Rejection,0.601139599981,False,True,stimulusKLRU16_2IFCnew_2019_Jun_17_1643_871,stimulusKLRU16_2IFCnew_2019_Jun_17_1643_872,False,2019_Jun_17_1643,2IFCnew,3,KLRU16,
2IFCnew,61,0,61,0,0.467188199982,2,Yes,7.4,-1,Correct Rejection,0.667356099992,False,True,stimulusKLRU16_2IFCnew_2019_Jun_17_1643_873,stimulusKLRU16_2IFCnew_2019_Jun_17_1643_874,False,2019_Jun_17_1643,2IFCnew,3,KLRU16,
2IFCnew,62,0,62,0,0.534282999986,2,Yes,7.4,-1,Correct Rejection,0.60083739995,False,True,stimulusKLRU16_2IFCnew_2019_Jun_17_1643_875,stimulusKLRU16_2IFCnew_2019_Jun_17_1643_876,False,2019_Jun_17_1643,2IFCnew,3,KLRU16,
2IFCnew,63,0,63,0,0.29969309998,1,No,7.4,-1,Hit,0.568223499984,True,False,stimulusKLRU16_2IFCnew_2019_Jun_17_1643_877,stimulusKLRU16_2IFCnew_2019_Jun_17_1643_878,False,2019_Jun_17_1643,2IFCnew,3,KLRU16,
2IFCnew,64,0,64,0,0.468421600002,6,No,7.4,-1,Miss,0.803098600009,True,False,stimulusKLRU16_2IFCnew_2019_Jun_17_1643_879,stimulusKLRU16_2IFCnew_2019_Jun_17_1643_880,False,2019_Jun_17_1643,2IFCnew,3,KLRU16,
2IFCnew,65,0,65,0,0.433785500005,6,No,7.4,-1,Miss,0.633798299998,True,False,stimulusKLRU16_2IFCnew_2019_Jun_17_1643_881,stimulusKLRU16_2IFCnew_2019_Jun_17_1643_882,False,2019_Jun_17_1643,2IFCnew,3,KLRU16,
2IFCnew,66,0,66,0,0.399358699971,1,No,7.4,-1,Hit,0.633931000018,True,False,stimulusKLRU16_2IFCnew_2019_Jun_17_1643_883,stimulusKLRU16_2IFCnew_2019_Jun_17_1643_884,False,2019_Jun_17_1643,2IFCnew,3,KLRU16,
2IFCnew,67,0,67,0,0.266635500011,2,Yes,7.4,-1,Correct Rejection,0.500911200012,False,True,stimulusKLRU16_2IFCnew_2019_Jun_17_1643_885,stimulusKLRU16_2IFCnew_2019_Jun_17_1643_886,False,2019_Jun_17_1643,2IFCnew,3,KLRU16,
2IFCnew,68,0,68,0,0.333512800047,2,Yes,7.4,-1,Correct Rejection,0.500437200011,False,True,stimulusKLRU16_2IFCnew_2019_Jun_17_1643_887,stimulusKLRU16_2IFCnew_2019_Jun_17_1643_888,False,2019_Jun_17_1643,2IFCnew,3,KLRU16,
2IFCnew,69,0,69,0,0.434060200001,4,Yes,7.4,-1,Miss,0.500595599995,True,False,stimulusKLRU16_2IFCnew_2019_Jun_17_1643_889,stimulusKLRU16_2IFCnew_2019_Jun_17_1643_890,False,2019_Jun_17_1643,2IFCnew,3,KLRU16,
2IFCnew,70,0,70,0,0.333872800053,1,No,7.4,-1,Hit,0.767661199963,True,False,stimulusKLRU16_2IFCnew_2019_Jun_17_1643_891,stimulusKLRU16_2IFCnew_2019_Jun_17_1643_892,False,2019_Jun_17_1643,2IFCnew,3,KLRU16,
2IFCnew,71,0,71,0,0.400437299977,2,Yes,7.4,-1,Correct Rejection,0.467089399986,False,True,stimulusKLRU16_2IFCnew_2019_Jun_17_1643_893,stimulusKLRU16_2IFCnew_2019_Jun_17_1643_894,False,2019_Jun_17_1643,2IFCnew,3,KLRU16,
2IFCnew,72,0,72,0,0.268154899997,1,No,7.4,-1,Hit,0.500877299986,True,False,stimulusKLRU16_2IFCnew_2019_Jun_17_1643_895,stimulusKLRU16_2IFCnew_2019_Jun_17_1643_896,False,2019_Jun_17_1643,2IFCnew,3,KLRU16,
2IFCnew,73,0,73,0,0.367226000002,1,No,7.4,-1,Hit,0.501151999983,True,False,stimulusKLRU16_2IFCnew_2019_Jun_17_1643_897,stimulusKLRU16_2IFCnew_2019_Jun_17_1643_898,False,2019_Jun_17_1643,2IFCnew,3,KLRU16,
2IFCnew,74,0,74,0,0.333653499954,6,No,7.4,-1,Miss,0.533823300037,True,False,stimulusKLRU16_2IFCnew_2019_Jun_17_1643_899,stimulusKLRU16_2IFCnew_2019_Jun_17_1643_900,False,2019_Jun_17_1643,2IFCnew,3,KLRU16,
2IFCnew,0,0,0,0,0.23387310002,4,Yes,5.1,-1,Miss,0.400626200018,True,False,stimulusKLRU16_2IFCnew_2019_Jun_17_1643_901,stimulusKLRU16_2IFCnew_2019_Jun_17_1643_902,False,2019_Jun_17_1643,2IFCnew,3,KLRU16,
2IFCnew,1,0,1,0,0.500869099982,2,Yes,5.1,-1,Correct Rejection,0.634835299978,False,True,stimulusKLRU16_2IFCnew_2019_Jun_17_1643_903,stimulusKLRU16_2IFCnew_2019_Jun_17_1643_904,False,2019_Jun_17_1643,2IFCnew,3,KLRU16,
2IFCnew,2,0,2,0,0.433772300021,1,No,5.1,-1,Hit,0.533478300029,True,False,stimulusKLRU16_2IFCnew_2019_Jun_17_1643_905,stimulusKLRU16_2IFCnew_2019_Jun_17_1643_906,False,2019_Jun_17_1643,2IFCnew,3,KLRU16,
2IFCnew,3,0,3,0,0.200433699996,1,No,5.1,-1,Hit,0.567356200016,True,False,stimulusKLRU16_2IFCnew_2019_Jun_17_1643_907,stimulusKLRU16_2IFCnew_2019_Jun_17_1643_908,False,2019_Jun_17_1643,2IFCnew,3,KLRU16,
2IFCnew,4,0,4,0,0.233456599992,1,No,5.1,-1,Hit,0.499948900018,True,False,stimulusKLRU16_2IFCnew_2019_Jun_17_1643_909,stimulusKLRU16_2IFCnew_2019_Jun_17_1643_910,False,2019_Jun_17_1643,2IFCnew,3,KLRU16,
2IFCnew,5,0,5,0,0.500605599955,5,Yes,5.1,-1,False Alarm,0.667637100036,False,True,stimulusKLRU16_2IFCnew_2019_Jun_17_1643_911,stimulusKLRU16_2IFCnew_2019_Jun_17_1643_912,False,2019_Jun_17_1643,2IFCnew,3,KLRU16,
2IFCnew,6,0,6,0,0.734899199975,4,Yes,5.1,-1,Miss,0.367220000015,True,False,stimulusKLRU16_2IFCnew_2019_Jun_17_1643_913,stimulusKLRU16_2IFCnew_2019_Jun_17_1643_914,False,2019_Jun_17_1643,2IFCnew,3,KLRU16,
2IFCnew,7,0,7,0,0.767383700004,5,Yes,5.1,-1,False Alarm,0.767311899981,False,True,stimulusKLRU16_2IFCnew_2019_Jun_17_1643_915,stimulusKLRU16_2IFCnew_2019_Jun_17_1643_916,False,2019_Jun_17_1643,2IFCnew,3,KLRU16,
2IFCnew,8,0,8,0,0.500270800025,1,No,5.1,-1,Hit,0.633587899967,True,False,stimulusKLRU16_2IFCnew_2019_Jun_17_1643_917,stimulusKLRU16_2IFCnew_2019_Jun_17_1643_918,False,2019_Jun_17_1643,2IFCnew,3,KLRU16,
2IFCnew,9,0,9,0,0.867076300026,1,No,5.1,-1,Hit,0.634125499986,True,False,stimulusKLRU16_2IFCnew_2019_Jun_17_1643_919,stimulusKLRU16_2IFCnew_2019_Jun_17_1643_920,False,2019_Jun_17_1643,2IFCnew,3,KLRU16,
2IFCnew,10,0,10,0,0.465112599952,1,No,5.1,-1,Hit,0.66664000001,True,False,stimulusKLRU16_2IFCnew_2019_Jun_17_1643_921,stimulusKLRU16_2IFCnew_2019_Jun_17_1643_922,False,2019_Jun_17_1643,2IFCnew,3,KLRU16,
2IFCnew,11,0,11,0,0.466155299975,1,No,5.1,-1,Hit,0.56756289996,True,False,stimulusKLRU16_2IFCnew_2019_Jun_17_1643_923,stimulusKLRU16_2IFCnew_2019_Jun_17_1643_924,False,2019_Jun_17_1643,2IFCnew,3,KLRU16,
2IFCnew,12,0,12,0,0.767860199965,5,Yes,5.1,-1,False Alarm,0.666987000033,False,True,stimulusKLRU16_2IFCnew_2019_Jun_17_1643_925,stimulusKLRU16_2IFCnew_2019_Jun_17_1643_926,False,2019_Jun_17_1643,2IFCnew,3,KLRU16,
2IFCnew,13,0,13,0,0.300621400005,2,Yes,5.1,-1,Correct Rejection,0.467050099978,False,True,stimulusKLRU16_2IFCnew_2019_Jun_17_1643_927,stimulusKLRU16_2IFCnew_2019_Jun_17_1643_928,False,2019_Jun_17_1643,2IFCnew,3,KLRU16,
2IFCnew,14,0,14,0,0.435049199965,3,No,5.1,-1,False Alarm,0.534178000002,False,True,stimulusKLRU16_2IFCnew_2019_Jun_17_1643_929,stimulusKLRU16_2IFCnew_2019_Jun_17_1643_930,False,2019_Jun_17_1643,2IFCnew,3,KLRU16,
2IFCnew,15,0,15,0,0.533922200033,1,No,5.1,-1,Hit,0.667254999978,True,False,stimulusKLRU16_2IFCnew_2019_Jun_17_1643_931,stimulusKLRU16_2IFCnew_2019_Jun_17_1643_932,False,2019_Jun_17_1643,2IFCnew,3,KLRU16,
2IFCnew,16,0,16,0,0.634979600029,4,Yes,5.1,-1,Miss,0.668389600003,True,False,stimulusKLRU16_2IFCnew_2019_Jun_17_1643_933,stimulusKLRU16_2IFCnew_2019_Jun_17_1643_934,False,2019_Jun_17_1643,2IFCnew,3,KLRU16,
2IFCnew,17,0,17,0,0.701140000019,5,Yes,5.1,-1,False Alarm,0.700138699962,False,True,stimulusKLRU16_2IFCnew_2019_Jun_17_1643_935,stimulusKLRU16_2IFCnew_2019_Jun_17_1643_936,False,2019_Jun_17_1643,2IFCnew,3,KLRU16,
2IFCnew,18,0,18,0,0.33377779997,1,No,5.1,-1,Hit,0.633516700007,True,False,stimulusKLRU16_2IFCnew_2019_Jun_17_1643_937,stimulusKLRU16_2IFCnew_2019_Jun_17_1643_938,False,2019_Jun_17_1643,2IFCnew,3,KLRU16,
2IFCnew,19,0,19,0,0.467422300018,3,No,5.1,-1,False Alarm,0.500778099988,False,True,stimulusKLRU16_2IFCnew_2019_Jun_17_1643_939,stimulusKLRU16_2IFCnew_2019_Jun_17_1643_940,False,2019_Jun_17_1643,2IFCnew,3,KLRU16,
2IFCnew,20,0,20,0,0.568015499972,5,Yes,5.1,-1,False Alarm,0.666840600024,False,True,stimulusKLRU16_2IFCnew_2019_Jun_17_1643_941,stimulusKLRU16_2IFCnew_2019_Jun_17_1643_942,False,2019_Jun_17_1643,2IFCnew,3,KLRU16,
2IFCnew,21,0,21,0,0.433869800007,1,No,5.1,-1,Hit,0.466538799985,True,False,stimulusKLRU16_2IFCnew_2019_Jun_17_1643_943,stimulusKLRU16_2IFCnew_2019_Jun_17_1643_944,False,2019_Jun_17_1643,2IFCnew,3,KLRU16,
2IFCnew,22,0,22,0,0.400290799967,2,Yes,5.1,-1,Correct Rejection,0.567126199952,False,True,stimulusKLRU16_2IFCnew_2019_Jun_17_1643_945,stimulusKLRU16_2IFCnew_2019_Jun_17_1643_946,False,2019_Jun_17_1643,2IFCnew,3,KLRU16,
2IFCnew,23,0,23,0,0.3989879,2,Yes,5.1,-1,Correct Rejection,0.501182999986,False,True,stimulusKLRU16_2IFCnew_2019_Jun_17_1643_947,stimulusKLRU16_2IFCnew_2019_Jun_17_1643_948,False,2019_Jun_17_1643,2IFCnew,3,KLRU16,
