Task,trials.thisRepN,trials.thisTrialN,trials.thisN,trials.thisIndex,signal_intensity,constant Value,response,time_response,signal_on_stimuluspos1,signal_on_stimuluspos2,stimulus_name_pos1,stimulus_name_pos2,random_intensity,date,expName,session,participant,
2IFC,0,0,0,0,3.5,-1,correct answer,0.53395260009,True,False,stimulusKLRU16_2IFC_2019_Jun_13_1429_1,stimulusKLRU16_2IFC_2019_Jun_13_1429_2,True,2019_Jun_13_1429,2IFC,2,KLRU16,
2IFC,1,0,1,0,11.6,-1,correct answer,0.301361900056,True,False,stimulusKLRU16_2IFC_2019_Jun_13_1429_3,stimulusKLRU16_2IFC_2019_Jun_13_1429_4,True,2019_Jun_13_1429,2IFC,2,KLRU16,
2IFC,2,0,2,0,9.3,-1,correct answer,0.600588399917,False,True,stimulusKLRU16_2IFC_2019_Jun_13_1429_5,stimulusKLRU16_2IFC_2019_Jun_13_1429_6,True,2019_Jun_13_1429,2IFC,2,KLRU16,
2IFC,3,0,3,0,6.4,-1,correct answer,0.534694100032,True,False,stimulusKLRU16_2IFC_2019_Jun_13_1429_7,stimulusKLRU16_2IFC_2019_Jun_13_1429_8,True,2019_Jun_13_1429,2IFC,2,KLRU16,
2IFC,4,0,4,0,3.5,-1,correct answer,0.435110599967,True,False,stimulusKLRU16_2IFC_2019_Jun_13_1429_9,stimulusKLRU16_2IFC_2019_Jun_13_1429_10,True,2019_Jun_13_1429,2IFC,2,KLRU16,
2IFC,5,0,5,0,6.4,-1,correct answer,0.501119300025,True,False,stimulusKLRU16_2IFC_2019_Jun_13_1429_11,stimulusKLRU16_2IFC_2019_Jun_13_1429_12,True,2019_Jun_13_1429,2IFC,2,KLRU16,
2IFC,6,0,6,0,5.1,-1,correct answer,0.667515499983,False,True,stimulusKLRU16_2IFC_2019_Jun_13_1429_13,stimulusKLRU16_2IFC_2019_Jun_13_1429_14,True,2019_Jun_13_1429,2IFC,2,KLRU16,
2IFC,7,0,7,0,11.6,-1,correct answer,0.668918999843,False,True,stimulusKLRU16_2IFC_2019_Jun_13_1429_15,stimulusKLRU16_2IFC_2019_Jun_13_1429_16,True,2019_Jun_13_1429,2IFC,2,KLRU16,
2IFC,8,0,8,0,5.1,-1,wrong answer,0.634122900199,True,False,stimulusKLRU16_2IFC_2019_Jun_13_1429_17,stimulusKLRU16_2IFC_2019_Jun_13_1429_18,True,2019_Jun_13_1429,2IFC,2,KLRU16,
2IFC,9,0,9,0,10.4,-1,correct answer,0.567903200164,True,False,stimulusKLRU16_2IFC_2019_Jun_13_1429_19,stimulusKLRU16_2IFC_2019_Jun_13_1429_20,True,2019_Jun_13_1429,2IFC,2,KLRU16,
2IFC,10,0,10,0,7.4,-1,correct answer,0.568911100039,True,False,stimulusKLRU16_2IFC_2019_Jun_13_1429_21,stimulusKLRU16_2IFC_2019_Jun_13_1429_22,True,2019_Jun_13_1429,2IFC,2,KLRU16,
2IFC,11,0,11,0,10.4,-1,correct answer,0.500621000072,True,False,stimulusKLRU16_2IFC_2019_Jun_13_1429_23,stimulusKLRU16_2IFC_2019_Jun_13_1429_24,True,2019_Jun_13_1429,2IFC,2,KLRU16,
2IFC,12,0,12,0,9.3,-1,wrong answer,0.60075620003,False,True,stimulusKLRU16_2IFC_2019_Jun_13_1429_25,stimulusKLRU16_2IFC_2019_Jun_13_1429_26,True,2019_Jun_13_1429,2IFC,2,KLRU16,
2IFC,13,0,13,0,8.4,-1,correct answer,0.567472199909,False,True,stimulusKLRU16_2IFC_2019_Jun_13_1429_27,stimulusKLRU16_2IFC_2019_Jun_13_1429_28,True,2019_Jun_13_1429,2IFC,2,KLRU16,
2IFC,14,0,14,0,9.3,-1,correct answer,0.666999100009,False,True,stimulusKLRU16_2IFC_2019_Jun_13_1429_29,stimulusKLRU16_2IFC_2019_Jun_13_1429_30,True,2019_Jun_13_1429,2IFC,2,KLRU16,
2IFC,15,0,15,0,10.4,-1,correct answer,0.634213299956,False,True,stimulusKLRU16_2IFC_2019_Jun_13_1429_31,stimulusKLRU16_2IFC_2019_Jun_13_1429_32,True,2019_Jun_13_1429,2IFC,2,KLRU16,
2IFC,16,0,16,0,3.5,-1,wrong answer,0.700629200088,True,False,stimulusKLRU16_2IFC_2019_Jun_13_1429_33,stimulusKLRU16_2IFC_2019_Jun_13_1429_34,True,2019_Jun_13_1429,2IFC,2,KLRU16,
2IFC,17,0,17,0,7.4,-1,wrong answer,0.598175999941,False,True,stimulusKLRU16_2IFC_2019_Jun_13_1429_35,stimulusKLRU16_2IFC_2019_Jun_13_1429_36,True,2019_Jun_13_1429,2IFC,2,KLRU16,
2IFC,18,0,18,0,5.1,-1,correct answer,0.800068399869,False,True,stimulusKLRU16_2IFC_2019_Jun_13_1429_37,stimulusKLRU16_2IFC_2019_Jun_13_1429_38,True,2019_Jun_13_1429,2IFC,2,KLRU16,
2IFC,19,0,19,0,7.4,-1,wrong answer,0.599245799938,False,True,stimulusKLRU16_2IFC_2019_Jun_13_1429_39,stimulusKLRU16_2IFC_2019_Jun_13_1429_40,True,2019_Jun_13_1429,2IFC,2,KLRU16,
2IFC,20,0,20,0,9.3,-1,wrong answer,0.734167999821,True,False,stimulusKLRU16_2IFC_2019_Jun_13_1429_41,stimulusKLRU16_2IFC_2019_Jun_13_1429_42,True,2019_Jun_13_1429,2IFC,2,KLRU16,
2IFC,21,0,21,0,3.5,-1,correct answer,0.801574900048,True,False,stimulusKLRU16_2IFC_2019_Jun_13_1429_43,stimulusKLRU16_2IFC_2019_Jun_13_1429_44,True,2019_Jun_13_1429,2IFC,2,KLRU16,
2IFC,22,0,22,0,7.4,-1,correct answer,0.63408540003,False,True,stimulusKLRU16_2IFC_2019_Jun_13_1429_45,stimulusKLRU16_2IFC_2019_Jun_13_1429_46,True,2019_Jun_13_1429,2IFC,2,KLRU16,
2IFC,23,0,23,0,11.6,-1,correct answer,0.534484399948,True,False,stimulusKLRU16_2IFC_2019_Jun_13_1429_47,stimulusKLRU16_2IFC_2019_Jun_13_1429_48,True,2019_Jun_13_1429,2IFC,2,KLRU16,
2IFC,24,0,24,0,8.4,-1,correct answer,0.567242200021,False,True,stimulusKLRU16_2IFC_2019_Jun_13_1429_49,stimulusKLRU16_2IFC_2019_Jun_13_1429_50,True,2019_Jun_13_1429,2IFC,2,KLRU16,
2IFC,25,0,25,0,3.5,-1,wrong answer,0.833816800034,False,True,stimulusKLRU16_2IFC_2019_Jun_13_1429_51,stimulusKLRU16_2IFC_2019_Jun_13_1429_52,True,2019_Jun_13_1429,2IFC,2,KLRU16,
2IFC,26,0,26,0,3.5,-1,no answer,-1,False,True,stimulusKLRU16_2IFC_2019_Jun_13_1429_53,stimulusKLRU16_2IFC_2019_Jun_13_1429_54,True,2019_Jun_13_1429,2IFC,2,KLRU16,
2IFC,27,0,27,0,6.4,-1,correct answer,0.132963400101,False,True,stimulusKLRU16_2IFC_2019_Jun_13_1429_55,stimulusKLRU16_2IFC_2019_Jun_13_1429_56,True,2019_Jun_13_1429,2IFC,2,KLRU16,
2IFC,28,0,28,0,11.6,-1,correct answer,0.804966400145,False,True,stimulusKLRU16_2IFC_2019_Jun_13_1429_57,stimulusKLRU16_2IFC_2019_Jun_13_1429_58,True,2019_Jun_13_1429,2IFC,2,KLRU16,
2IFC,29,0,29,0,10.4,-1,correct answer,0.567218299955,True,False,stimulusKLRU16_2IFC_2019_Jun_13_1429_59,stimulusKLRU16_2IFC_2019_Jun_13_1429_60,True,2019_Jun_13_1429,2IFC,2,KLRU16,
2IFC,30,0,30,0,9.3,-1,wrong answer,0.567332900129,False,True,stimulusKLRU16_2IFC_2019_Jun_13_1429_61,stimulusKLRU16_2IFC_2019_Jun_13_1429_62,True,2019_Jun_13_1429,2IFC,2,KLRU16,
2IFC,31,0,31,0,10.4,-1,correct answer,0.835318699945,True,False,stimulusKLRU16_2IFC_2019_Jun_13_1429_63,stimulusKLRU16_2IFC_2019_Jun_13_1429_64,True,2019_Jun_13_1429,2IFC,2,KLRU16,
2IFC,32,0,32,0,10.4,-1,correct answer,0.534330799943,True,False,stimulusKLRU16_2IFC_2019_Jun_13_1429_65,stimulusKLRU16_2IFC_2019_Jun_13_1429_66,True,2019_Jun_13_1429,2IFC,2,KLRU16,
2IFC,33,0,33,0,8.4,-1,correct answer,0.566973600071,True,False,stimulusKLRU16_2IFC_2019_Jun_13_1429_67,stimulusKLRU16_2IFC_2019_Jun_13_1429_68,True,2019_Jun_13_1429,2IFC,2,KLRU16,
2IFC,34,0,34,0,10.4,-1,correct answer,0.500730300089,True,False,stimulusKLRU16_2IFC_2019_Jun_13_1429_69,stimulusKLRU16_2IFC_2019_Jun_13_1429_70,True,2019_Jun_13_1429,2IFC,2,KLRU16,
2IFC,35,0,35,0,9.3,-1,correct answer,0.569264699938,True,False,stimulusKLRU16_2IFC_2019_Jun_13_1429_71,stimulusKLRU16_2IFC_2019_Jun_13_1429_72,True,2019_Jun_13_1429,2IFC,2,KLRU16,
2IFC,36,0,36,0,9.3,-1,correct answer,0.667454499984,False,True,stimulusKLRU16_2IFC_2019_Jun_13_1429_73,stimulusKLRU16_2IFC_2019_Jun_13_1429_74,True,2019_Jun_13_1429,2IFC,2,KLRU16,
2IFC,37,0,37,0,8.4,-1,correct answer,0.634060800076,True,False,stimulusKLRU16_2IFC_2019_Jun_13_1429_75,stimulusKLRU16_2IFC_2019_Jun_13_1429_76,True,2019_Jun_13_1429,2IFC,2,KLRU16,
2IFC,38,0,38,0,6.4,-1,correct answer,0.867650900036,False,True,stimulusKLRU16_2IFC_2019_Jun_13_1429_77,stimulusKLRU16_2IFC_2019_Jun_13_1429_78,True,2019_Jun_13_1429,2IFC,2,KLRU16,
2IFC,39,0,39,0,7.4,-1,wrong answer,0.70079940022,False,True,stimulusKLRU16_2IFC_2019_Jun_13_1429_79,stimulusKLRU16_2IFC_2019_Jun_13_1429_80,True,2019_Jun_13_1429,2IFC,2,KLRU16,
2IFC,40,0,40,0,6.4,-1,correct answer,0.633651100099,True,False,stimulusKLRU16_2IFC_2019_Jun_13_1429_81,stimulusKLRU16_2IFC_2019_Jun_13_1429_82,True,2019_Jun_13_1429,2IFC,2,KLRU16,
2IFC,41,0,41,0,6.4,-1,wrong answer,0.702600399964,False,True,stimulusKLRU16_2IFC_2019_Jun_13_1429_83,stimulusKLRU16_2IFC_2019_Jun_13_1429_84,True,2019_Jun_13_1429,2IFC,2,KLRU16,
2IFC,42,0,42,0,7.4,-1,correct answer,0.700824500062,True,False,stimulusKLRU16_2IFC_2019_Jun_13_1429_85,stimulusKLRU16_2IFC_2019_Jun_13_1429_86,True,2019_Jun_13_1429,2IFC,2,KLRU16,
2IFC,43,0,43,0,6.4,-1,correct answer,0.597410700051,True,False,stimulusKLRU16_2IFC_2019_Jun_13_1429_87,stimulusKLRU16_2IFC_2019_Jun_13_1429_88,True,2019_Jun_13_1429,2IFC,2,KLRU16,
2IFC,44,0,44,0,7.4,-1,correct answer,0.700692299986,False,True,stimulusKLRU16_2IFC_2019_Jun_13_1429_89,stimulusKLRU16_2IFC_2019_Jun_13_1429_90,True,2019_Jun_13_1429,2IFC,2,KLRU16,
2IFC,45,0,45,0,7.4,-1,correct answer,0.467747699935,True,False,stimulusKLRU16_2IFC_2019_Jun_13_1429_91,stimulusKLRU16_2IFC_2019_Jun_13_1429_92,True,2019_Jun_13_1429,2IFC,2,KLRU16,
2IFC,46,0,46,0,8.4,-1,correct answer,0.499999299878,True,False,stimulusKLRU16_2IFC_2019_Jun_13_1429_93,stimulusKLRU16_2IFC_2019_Jun_13_1429_94,True,2019_Jun_13_1429,2IFC,2,KLRU16,
2IFC,47,0,47,0,10.4,-1,correct answer,0.634708700003,True,False,stimulusKLRU16_2IFC_2019_Jun_13_1429_95,stimulusKLRU16_2IFC_2019_Jun_13_1429_96,True,2019_Jun_13_1429,2IFC,2,KLRU16,
2IFC,48,0,48,0,3.5,-1,correct answer,0.66696260008,True,False,stimulusKLRU16_2IFC_2019_Jun_13_1429_97,stimulusKLRU16_2IFC_2019_Jun_13_1429_98,True,2019_Jun_13_1429,2IFC,2,KLRU16,
2IFC,49,0,49,0,10.4,-1,correct answer,0.535095799947,False,True,stimulusKLRU16_2IFC_2019_Jun_13_1429_99,stimulusKLRU16_2IFC_2019_Jun_13_1429_100,True,2019_Jun_13_1429,2IFC,2,KLRU16,
2IFC,50,0,50,0,8.4,-1,correct answer,0.60084050009,False,True,stimulusKLRU16_2IFC_2019_Jun_13_1429_101,stimulusKLRU16_2IFC_2019_Jun_13_1429_102,True,2019_Jun_13_1429,2IFC,2,KLRU16,
2IFC,51,0,51,0,7.4,-1,correct answer,0.434177200077,True,False,stimulusKLRU16_2IFC_2019_Jun_13_1429_103,stimulusKLRU16_2IFC_2019_Jun_13_1429_104,True,2019_Jun_13_1429,2IFC,2,KLRU16,
2IFC,52,0,52,0,7.4,-1,correct answer,0.467533600051,True,False,stimulusKLRU16_2IFC_2019_Jun_13_1429_105,stimulusKLRU16_2IFC_2019_Jun_13_1429_106,True,2019_Jun_13_1429,2IFC,2,KLRU16,
2IFC,53,0,53,0,6.4,-1,correct answer,0.601219699951,True,False,stimulusKLRU16_2IFC_2019_Jun_13_1429_107,stimulusKLRU16_2IFC_2019_Jun_13_1429_108,True,2019_Jun_13_1429,2IFC,2,KLRU16,
2IFC,54,0,54,0,5.1,-1,correct answer,0.799993700115,False,True,stimulusKLRU16_2IFC_2019_Jun_13_1429_109,stimulusKLRU16_2IFC_2019_Jun_13_1429_110,True,2019_Jun_13_1429,2IFC,2,KLRU16,
2IFC,55,0,55,0,6.4,-1,correct answer,0.66725310008,True,False,stimulusKLRU16_2IFC_2019_Jun_13_1429_111,stimulusKLRU16_2IFC_2019_Jun_13_1429_112,True,2019_Jun_13_1429,2IFC,2,KLRU16,
2IFC,56,0,56,0,3.5,-1,correct answer,0.600360099925,True,False,stimulusKLRU16_2IFC_2019_Jun_13_1429_113,stimulusKLRU16_2IFC_2019_Jun_13_1429_114,True,2019_Jun_13_1429,2IFC,2,KLRU16,
2IFC,57,0,57,0,6.4,-1,no answer,-1,True,False,stimulusKLRU16_2IFC_2019_Jun_13_1429_115,stimulusKLRU16_2IFC_2019_Jun_13_1429_116,True,2019_Jun_13_1429,2IFC,2,KLRU16,
2IFC,58,0,58,0,10.4,-1,correct answer,0.733513399959,False,True,stimulusKLRU16_2IFC_2019_Jun_13_1429_117,stimulusKLRU16_2IFC_2019_Jun_13_1429_118,True,2019_Jun_13_1429,2IFC,2,KLRU16,
2IFC,59,0,59,0,9.3,-1,correct answer,0.400396199897,True,False,stimulusKLRU16_2IFC_2019_Jun_13_1429_119,stimulusKLRU16_2IFC_2019_Jun_13_1429_120,True,2019_Jun_13_1429,2IFC,2,KLRU16,
2IFC,60,0,60,0,6.4,-1,wrong answer,0.568633600138,False,True,stimulusKLRU16_2IFC_2019_Jun_13_1429_121,stimulusKLRU16_2IFC_2019_Jun_13_1429_122,True,2019_Jun_13_1429,2IFC,2,KLRU16,
2IFC,61,0,61,0,6.4,-1,correct answer,0.600647999905,True,False,stimulusKLRU16_2IFC_2019_Jun_13_1429_123,stimulusKLRU16_2IFC_2019_Jun_13_1429_124,True,2019_Jun_13_1429,2IFC,2,KLRU16,
2IFC,62,0,62,0,3.5,-1,no answer,-1,True,False,stimulusKLRU16_2IFC_2019_Jun_13_1429_125,stimulusKLRU16_2IFC_2019_Jun_13_1429_126,True,2019_Jun_13_1429,2IFC,2,KLRU16,
2IFC,63,0,63,0,11.6,-1,correct answer,0.667471900117,False,True,stimulusKLRU16_2IFC_2019_Jun_13_1429_127,stimulusKLRU16_2IFC_2019_Jun_13_1429_128,True,2019_Jun_13_1429,2IFC,2,KLRU16,
2IFC,64,0,64,0,6.4,-1,correct answer,0.630633000052,True,False,stimulusKLRU16_2IFC_2019_Jun_13_1429_129,stimulusKLRU16_2IFC_2019_Jun_13_1429_130,True,2019_Jun_13_1429,2IFC,2,KLRU16,
2IFC,65,0,65,0,9.3,-1,correct answer,0.56778459996,True,False,stimulusKLRU16_2IFC_2019_Jun_13_1429_131,stimulusKLRU16_2IFC_2019_Jun_13_1429_132,True,2019_Jun_13_1429,2IFC,2,KLRU16,
2IFC,66,0,66,0,9.3,-1,correct answer,0.569053000072,False,True,stimulusKLRU16_2IFC_2019_Jun_13_1429_133,stimulusKLRU16_2IFC_2019_Jun_13_1429_134,True,2019_Jun_13_1429,2IFC,2,KLRU16,
2IFC,67,0,67,0,9.3,-1,correct answer,0.301122999983,True,False,stimulusKLRU16_2IFC_2019_Jun_13_1429_135,stimulusKLRU16_2IFC_2019_Jun_13_1429_136,True,2019_Jun_13_1429,2IFC,2,KLRU16,
2IFC,68,0,68,0,10.4,-1,correct answer,0.500403699931,True,False,stimulusKLRU16_2IFC_2019_Jun_13_1429_137,stimulusKLRU16_2IFC_2019_Jun_13_1429_138,True,2019_Jun_13_1429,2IFC,2,KLRU16,
2IFC,69,0,69,0,5.1,-1,wrong answer,0.634434800129,True,False,stimulusKLRU16_2IFC_2019_Jun_13_1429_139,stimulusKLRU16_2IFC_2019_Jun_13_1429_140,True,2019_Jun_13_1429,2IFC,2,KLRU16,
2IFC,70,0,70,0,7.4,-1,correct answer,0.367362800054,True,False,stimulusKLRU16_2IFC_2019_Jun_13_1429_141,stimulusKLRU16_2IFC_2019_Jun_13_1429_142,True,2019_Jun_13_1429,2IFC,2,KLRU16,
2IFC,71,0,71,0,11.6,-1,correct answer,0.668306000065,False,True,stimulusKLRU16_2IFC_2019_Jun_13_1429_143,stimulusKLRU16_2IFC_2019_Jun_13_1429_144,True,2019_Jun_13_1429,2IFC,2,KLRU16,
2IFC,72,0,72,0,10.4,-1,correct answer,0.700739199994,False,True,stimulusKLRU16_2IFC_2019_Jun_13_1429_145,stimulusKLRU16_2IFC_2019_Jun_13_1429_146,True,2019_Jun_13_1429,2IFC,2,KLRU16,
2IFC,73,0,73,0,7.4,-1,correct answer,0.66676199995,True,False,stimulusKLRU16_2IFC_2019_Jun_13_1429_147,stimulusKLRU16_2IFC_2019_Jun_13_1429_148,True,2019_Jun_13_1429,2IFC,2,KLRU16,
2IFC,74,0,74,0,10.4,-1,correct answer,0.666541400133,False,True,stimulusKLRU16_2IFC_2019_Jun_13_1429_149,stimulusKLRU16_2IFC_2019_Jun_13_1429_150,True,2019_Jun_13_1429,2IFC,2,KLRU16,
2IFC,0,0,0,0,9.3,-1,correct answer,0.667524900055,True,False,stimulusKLRU16_2IFC_2019_Jun_13_1429_151,stimulusKLRU16_2IFC_2019_Jun_13_1429_152,True,2019_Jun_13_1429,2IFC,2,KLRU16,
2IFC,1,0,1,0,10.4,-1,correct answer,0.600743599935,False,True,stimulusKLRU16_2IFC_2019_Jun_13_1429_153,stimulusKLRU16_2IFC_2019_Jun_13_1429_154,True,2019_Jun_13_1429,2IFC,2,KLRU16,
2IFC,2,0,2,0,3.5,-1,wrong answer,0.633467199979,False,True,stimulusKLRU16_2IFC_2019_Jun_13_1429_155,stimulusKLRU16_2IFC_2019_Jun_13_1429_156,True,2019_Jun_13_1429,2IFC,2,KLRU16,
2IFC,3,0,3,0,10.4,-1,correct answer,0.600704499986,False,True,stimulusKLRU16_2IFC_2019_Jun_13_1429_157,stimulusKLRU16_2IFC_2019_Jun_13_1429_158,True,2019_Jun_13_1429,2IFC,2,KLRU16,
2IFC,4,0,4,0,11.6,-1,correct answer,0.700586399995,False,True,stimulusKLRU16_2IFC_2019_Jun_13_1429_159,stimulusKLRU16_2IFC_2019_Jun_13_1429_160,True,2019_Jun_13_1429,2IFC,2,KLRU16,
2IFC,5,0,5,0,6.4,-1,correct answer,0.600156500004,True,False,stimulusKLRU16_2IFC_2019_Jun_13_1429_161,stimulusKLRU16_2IFC_2019_Jun_13_1429_162,True,2019_Jun_13_1429,2IFC,2,KLRU16,
2IFC,6,0,6,0,11.6,-1,correct answer,0.600782300113,False,True,stimulusKLRU16_2IFC_2019_Jun_13_1429_163,stimulusKLRU16_2IFC_2019_Jun_13_1429_164,True,2019_Jun_13_1429,2IFC,2,KLRU16,
2IFC,7,0,7,0,11.6,-1,wrong answer,0.600706099998,False,True,stimulusKLRU16_2IFC_2019_Jun_13_1429_165,stimulusKLRU16_2IFC_2019_Jun_13_1429_166,True,2019_Jun_13_1429,2IFC,2,KLRU16,
2IFC,8,0,8,0,8.4,-1,correct answer,0.70047920011,False,True,stimulusKLRU16_2IFC_2019_Jun_13_1429_167,stimulusKLRU16_2IFC_2019_Jun_13_1429_168,True,2019_Jun_13_1429,2IFC,2,KLRU16,
2IFC,9,0,9,0,10.4,-1,correct answer,0.432940700091,True,False,stimulusKLRU16_2IFC_2019_Jun_13_1429_169,stimulusKLRU16_2IFC_2019_Jun_13_1429_170,True,2019_Jun_13_1429,2IFC,2,KLRU16,
2IFC,10,0,10,0,3.5,-1,wrong answer,0.567057299893,False,True,stimulusKLRU16_2IFC_2019_Jun_13_1429_171,stimulusKLRU16_2IFC_2019_Jun_13_1429_172,True,2019_Jun_13_1429,2IFC,2,KLRU16,
2IFC,11,0,11,0,8.4,-1,correct answer,0.86753259995,True,False,stimulusKLRU16_2IFC_2019_Jun_13_1429_173,stimulusKLRU16_2IFC_2019_Jun_13_1429_174,True,2019_Jun_13_1429,2IFC,2,KLRU16,
2IFC,12,0,12,0,7.4,-1,correct answer,0.600985700032,True,False,stimulusKLRU16_2IFC_2019_Jun_13_1429_175,stimulusKLRU16_2IFC_2019_Jun_13_1429_176,True,2019_Jun_13_1429,2IFC,2,KLRU16,
2IFC,13,0,13,0,7.4,-1,correct answer,0.60167220002,True,False,stimulusKLRU16_2IFC_2019_Jun_13_1429_177,stimulusKLRU16_2IFC_2019_Jun_13_1429_178,True,2019_Jun_13_1429,2IFC,2,KLRU16,
2IFC,14,0,14,0,10.4,-1,correct answer,0.433189000003,True,False,stimulusKLRU16_2IFC_2019_Jun_13_1429_179,stimulusKLRU16_2IFC_2019_Jun_13_1429_180,True,2019_Jun_13_1429,2IFC,2,KLRU16,
2IFC,15,0,15,0,3.5,-1,correct answer,0.700796099845,True,False,stimulusKLRU16_2IFC_2019_Jun_13_1429_181,stimulusKLRU16_2IFC_2019_Jun_13_1429_182,True,2019_Jun_13_1429,2IFC,2,KLRU16,
2IFC,16,0,16,0,6.4,-1,wrong answer,0.533535599941,False,True,stimulusKLRU16_2IFC_2019_Jun_13_1429_183,stimulusKLRU16_2IFC_2019_Jun_13_1429_184,True,2019_Jun_13_1429,2IFC,2,KLRU16,
2IFC,17,0,17,0,5.1,-1,correct answer,0.734513100004,False,True,stimulusKLRU16_2IFC_2019_Jun_13_1429_185,stimulusKLRU16_2IFC_2019_Jun_13_1429_186,True,2019_Jun_13_1429,2IFC,2,KLRU16,
2IFC,18,0,18,0,10.4,-1,correct answer,0.567317799898,True,False,stimulusKLRU16_2IFC_2019_Jun_13_1429_187,stimulusKLRU16_2IFC_2019_Jun_13_1429_188,True,2019_Jun_13_1429,2IFC,2,KLRU16,
2IFC,19,0,19,0,11.6,-1,correct answer,0.666933200089,False,True,stimulusKLRU16_2IFC_2019_Jun_13_1429_189,stimulusKLRU16_2IFC_2019_Jun_13_1429_190,True,2019_Jun_13_1429,2IFC,2,KLRU16,
2IFC,20,0,20,0,11.6,-1,correct answer,0.200476699974,True,False,stimulusKLRU16_2IFC_2019_Jun_13_1429_191,stimulusKLRU16_2IFC_2019_Jun_13_1429_192,True,2019_Jun_13_1429,2IFC,2,KLRU16,
2IFC,21,0,21,0,10.4,-1,correct answer,0.432327500079,True,False,stimulusKLRU16_2IFC_2019_Jun_13_1429_193,stimulusKLRU16_2IFC_2019_Jun_13_1429_194,True,2019_Jun_13_1429,2IFC,2,KLRU16,
2IFC,22,0,22,0,8.4,-1,correct answer,0.567179200007,True,False,stimulusKLRU16_2IFC_2019_Jun_13_1429_195,stimulusKLRU16_2IFC_2019_Jun_13_1429_196,True,2019_Jun_13_1429,2IFC,2,KLRU16,
2IFC,23,0,23,0,5.1,-1,correct answer,0.834375599865,False,True,stimulusKLRU16_2IFC_2019_Jun_13_1429_197,stimulusKLRU16_2IFC_2019_Jun_13_1429_198,True,2019_Jun_13_1429,2IFC,2,KLRU16,
2IFC,24,0,24,0,10.4,-1,correct answer,0.501943100011,False,True,stimulusKLRU16_2IFC_2019_Jun_13_1429_199,stimulusKLRU16_2IFC_2019_Jun_13_1429_200,True,2019_Jun_13_1429,2IFC,2,KLRU16,
2IFC,25,0,25,0,9.3,-1,correct answer,0.534301599953,False,True,stimulusKLRU16_2IFC_2019_Jun_13_1429_201,stimulusKLRU16_2IFC_2019_Jun_13_1429_202,True,2019_Jun_13_1429,2IFC,2,KLRU16,
2IFC,26,0,26,0,11.6,-1,correct answer,0.434434100054,True,False,stimulusKLRU16_2IFC_2019_Jun_13_1429_203,stimulusKLRU16_2IFC_2019_Jun_13_1429_204,True,2019_Jun_13_1429,2IFC,2,KLRU16,
2IFC,27,0,27,0,10.4,-1,correct answer,0.532938600052,False,True,stimulusKLRU16_2IFC_2019_Jun_13_1429_205,stimulusKLRU16_2IFC_2019_Jun_13_1429_206,True,2019_Jun_13_1429,2IFC,2,KLRU16,
2IFC,28,0,28,0,6.4,-1,correct answer,0.831811800133,False,True,stimulusKLRU16_2IFC_2019_Jun_13_1429_207,stimulusKLRU16_2IFC_2019_Jun_13_1429_208,True,2019_Jun_13_1429,2IFC,2,KLRU16,
2IFC,29,0,29,0,7.4,-1,correct answer,0.666347999824,True,False,stimulusKLRU16_2IFC_2019_Jun_13_1429_209,stimulusKLRU16_2IFC_2019_Jun_13_1429_210,True,2019_Jun_13_1429,2IFC,2,KLRU16,
2IFC,30,0,30,0,5.1,-1,wrong answer,0.700663299998,False,True,stimulusKLRU16_2IFC_2019_Jun_13_1429_211,stimulusKLRU16_2IFC_2019_Jun_13_1429_212,True,2019_Jun_13_1429,2IFC,2,KLRU16,
2IFC,31,0,31,0,7.4,-1,correct answer,0.467202099971,True,False,stimulusKLRU16_2IFC_2019_Jun_13_1429_213,stimulusKLRU16_2IFC_2019_Jun_13_1429_214,True,2019_Jun_13_1429,2IFC,2,KLRU16,
2IFC,32,0,32,0,10.4,-1,correct answer,0.500346000073,True,False,stimulusKLRU16_2IFC_2019_Jun_13_1429_215,stimulusKLRU16_2IFC_2019_Jun_13_1429_216,True,2019_Jun_13_1429,2IFC,2,KLRU16,
2IFC,33,0,33,0,11.6,-1,correct answer,0.535159199964,False,True,stimulusKLRU16_2IFC_2019_Jun_13_1429_217,stimulusKLRU16_2IFC_2019_Jun_13_1429_218,True,2019_Jun_13_1429,2IFC,2,KLRU16,
2IFC,34,0,34,0,9.3,-1,correct answer,0.532524900045,True,False,stimulusKLRU16_2IFC_2019_Jun_13_1429_219,stimulusKLRU16_2IFC_2019_Jun_13_1429_220,True,2019_Jun_13_1429,2IFC,2,KLRU16,
2IFC,35,0,35,0,5.1,-1,correct answer,0.800184599822,False,True,stimulusKLRU16_2IFC_2019_Jun_13_1429_221,stimulusKLRU16_2IFC_2019_Jun_13_1429_222,True,2019_Jun_13_1429,2IFC,2,KLRU16,
2IFC,36,0,36,0,7.4,-1,correct answer,0.500455099856,True,False,stimulusKLRU16_2IFC_2019_Jun_13_1429_223,stimulusKLRU16_2IFC_2019_Jun_13_1429_224,True,2019_Jun_13_1429,2IFC,2,KLRU16,
2IFC,37,0,37,0,10.4,-1,correct answer,0.434200200019,True,False,stimulusKLRU16_2IFC_2019_Jun_13_1429_225,stimulusKLRU16_2IFC_2019_Jun_13_1429_226,True,2019_Jun_13_1429,2IFC,2,KLRU16,
2IFC,38,0,38,0,3.5,-1,correct answer,0.734338500071,False,True,stimulusKLRU16_2IFC_2019_Jun_13_1429_227,stimulusKLRU16_2IFC_2019_Jun_13_1429_228,True,2019_Jun_13_1429,2IFC,2,KLRU16,
2IFC,39,0,39,0,6.4,-1,correct answer,0.534213799983,True,False,stimulusKLRU16_2IFC_2019_Jun_13_1429_229,stimulusKLRU16_2IFC_2019_Jun_13_1429_230,True,2019_Jun_13_1429,2IFC,2,KLRU16,
2IFC,40,0,40,0,7.4,-1,correct answer,0.633476499934,True,False,stimulusKLRU16_2IFC_2019_Jun_13_1429_231,stimulusKLRU16_2IFC_2019_Jun_13_1429_232,True,2019_Jun_13_1429,2IFC,2,KLRU16,
2IFC,41,0,41,0,3.5,-1,correct answer,0.633990800008,True,False,stimulusKLRU16_2IFC_2019_Jun_13_1429_233,stimulusKLRU16_2IFC_2019_Jun_13_1429_234,True,2019_Jun_13_1429,2IFC,2,KLRU16,
2IFC,42,0,42,0,5.1,-1,correct answer,0.667627500137,True,False,stimulusKLRU16_2IFC_2019_Jun_13_1429_235,stimulusKLRU16_2IFC_2019_Jun_13_1429_236,True,2019_Jun_13_1429,2IFC,2,KLRU16,
2IFC,43,0,43,0,7.4,-1,correct answer,0.568825999973,False,True,stimulusKLRU16_2IFC_2019_Jun_13_1429_237,stimulusKLRU16_2IFC_2019_Jun_13_1429_238,True,2019_Jun_13_1429,2IFC,2,KLRU16,
2IFC,44,0,44,0,3.5,-1,wrong answer,0.633264200063,False,True,stimulusKLRU16_2IFC_2019_Jun_13_1429_239,stimulusKLRU16_2IFC_2019_Jun_13_1429_240,True,2019_Jun_13_1429,2IFC,2,KLRU16,
2IFC,45,0,45,0,11.6,-1,correct answer,0.60138030001,True,False,stimulusKLRU16_2IFC_2019_Jun_13_1429_241,stimulusKLRU16_2IFC_2019_Jun_13_1429_242,True,2019_Jun_13_1429,2IFC,2,KLRU16,
2IFC,46,0,46,0,9.3,-1,correct answer,0.699245800031,False,True,stimulusKLRU16_2IFC_2019_Jun_13_1429_243,stimulusKLRU16_2IFC_2019_Jun_13_1429_244,True,2019_Jun_13_1429,2IFC,2,KLRU16,
2IFC,47,0,47,0,9.3,-1,correct answer,0.599863099866,True,False,stimulusKLRU16_2IFC_2019_Jun_13_1429_245,stimulusKLRU16_2IFC_2019_Jun_13_1429_246,True,2019_Jun_13_1429,2IFC,2,KLRU16,
2IFC,48,0,48,0,3.5,-1,correct answer,0.700876399875,False,True,stimulusKLRU16_2IFC_2019_Jun_13_1429_247,stimulusKLRU16_2IFC_2019_Jun_13_1429_248,True,2019_Jun_13_1429,2IFC,2,KLRU16,
2IFC,49,0,49,0,5.1,-1,wrong answer,0.667457199888,True,False,stimulusKLRU16_2IFC_2019_Jun_13_1429_249,stimulusKLRU16_2IFC_2019_Jun_13_1429_250,True,2019_Jun_13_1429,2IFC,2,KLRU16,
2IFC,50,0,50,0,11.6,-1,correct answer,0.733427299885,True,False,stimulusKLRU16_2IFC_2019_Jun_13_1429_251,stimulusKLRU16_2IFC_2019_Jun_13_1429_252,True,2019_Jun_13_1429,2IFC,2,KLRU16,
2IFC,51,0,51,0,6.4,-1,correct answer,0.700442199828,True,False,stimulusKLRU16_2IFC_2019_Jun_13_1429_253,stimulusKLRU16_2IFC_2019_Jun_13_1429_254,True,2019_Jun_13_1429,2IFC,2,KLRU16,
2IFC,52,0,52,0,8.4,-1,correct answer,0.701869799988,False,True,stimulusKLRU16_2IFC_2019_Jun_13_1429_255,stimulusKLRU16_2IFC_2019_Jun_13_1429_256,True,2019_Jun_13_1429,2IFC,2,KLRU16,
2IFC,53,0,53,0,3.5,-1,no answer,-1,False,True,stimulusKLRU16_2IFC_2019_Jun_13_1429_257,stimulusKLRU16_2IFC_2019_Jun_13_1429_258,True,2019_Jun_13_1429,2IFC,2,KLRU16,
2IFC,54,0,54,0,7.4,-1,correct answer,0.700895800022,False,True,stimulusKLRU16_2IFC_2019_Jun_13_1429_259,stimulusKLRU16_2IFC_2019_Jun_13_1429_260,True,2019_Jun_13_1429,2IFC,2,KLRU16,
2IFC,55,0,55,0,5.1,-1,correct answer,0.667411800008,True,False,stimulusKLRU16_2IFC_2019_Jun_13_1429_261,stimulusKLRU16_2IFC_2019_Jun_13_1429_262,True,2019_Jun_13_1429,2IFC,2,KLRU16,
2IFC,56,0,56,0,7.4,-1,wrong answer,0.667411800008,False,True,stimulusKLRU16_2IFC_2019_Jun_13_1429_263,stimulusKLRU16_2IFC_2019_Jun_13_1429_264,True,2019_Jun_13_1429,2IFC,2,KLRU16,
2IFC,57,0,57,0,7.4,-1,correct answer,0.63421769999,False,True,stimulusKLRU16_2IFC_2019_Jun_13_1429_265,stimulusKLRU16_2IFC_2019_Jun_13_1429_266,True,2019_Jun_13_1429,2IFC,2,KLRU16,
2IFC,58,0,58,0,3.5,-1,no answer,-1,False,True,stimulusKLRU16_2IFC_2019_Jun_13_1429_267,stimulusKLRU16_2IFC_2019_Jun_13_1429_268,True,2019_Jun_13_1429,2IFC,2,KLRU16,
2IFC,59,0,59,0,5.1,-1,correct answer,0.634028699948,True,False,stimulusKLRU16_2IFC_2019_Jun_13_1429_269,stimulusKLRU16_2IFC_2019_Jun_13_1429_270,True,2019_Jun_13_1429,2IFC,2,KLRU16,
2IFC,60,0,60,0,8.4,-1,correct answer,0.300588499987,True,False,stimulusKLRU16_2IFC_2019_Jun_13_1429_271,stimulusKLRU16_2IFC_2019_Jun_13_1429_272,True,2019_Jun_13_1429,2IFC,2,KLRU16,
2IFC,61,0,61,0,11.6,-1,correct answer,0.834411799908,False,True,stimulusKLRU16_2IFC_2019_Jun_13_1429_273,stimulusKLRU16_2IFC_2019_Jun_13_1429_274,True,2019_Jun_13_1429,2IFC,2,KLRU16,
2IFC,62,0,62,0,6.4,-1,wrong answer,0.600852999836,False,True,stimulusKLRU16_2IFC_2019_Jun_13_1429_275,stimulusKLRU16_2IFC_2019_Jun_13_1429_276,True,2019_Jun_13_1429,2IFC,2,KLRU16,
2IFC,63,0,63,0,8.4,-1,correct answer,0.400281100068,True,False,stimulusKLRU16_2IFC_2019_Jun_13_1429_277,stimulusKLRU16_2IFC_2019_Jun_13_1429_278,True,2019_Jun_13_1429,2IFC,2,KLRU16,
2IFC,64,0,64,0,9.3,-1,wrong answer,0.767943999963,False,True,stimulusKLRU16_2IFC_2019_Jun_13_1429_279,stimulusKLRU16_2IFC_2019_Jun_13_1429_280,True,2019_Jun_13_1429,2IFC,2,KLRU16,
2IFC,65,0,65,0,9.3,-1,correct answer,0.766953699989,False,True,stimulusKLRU16_2IFC_2019_Jun_13_1429_281,stimulusKLRU16_2IFC_2019_Jun_13_1429_282,True,2019_Jun_13_1429,2IFC,2,KLRU16,
2IFC,66,0,66,0,9.3,-1,correct answer,0.600303999847,False,True,stimulusKLRU16_2IFC_2019_Jun_13_1429_283,stimulusKLRU16_2IFC_2019_Jun_13_1429_284,True,2019_Jun_13_1429,2IFC,2,KLRU16,
2IFC,67,0,67,0,6.4,-1,correct answer,0.634060099954,False,True,stimulusKLRU16_2IFC_2019_Jun_13_1429_285,stimulusKLRU16_2IFC_2019_Jun_13_1429_286,True,2019_Jun_13_1429,2IFC,2,KLRU16,
2IFC,68,0,68,0,7.4,-1,correct answer,0.567533800146,True,False,stimulusKLRU16_2IFC_2019_Jun_13_1429_287,stimulusKLRU16_2IFC_2019_Jun_13_1429_288,True,2019_Jun_13_1429,2IFC,2,KLRU16,
2IFC,69,0,69,0,10.4,-1,correct answer,0.534381399862,True,False,stimulusKLRU16_2IFC_2019_Jun_13_1429_289,stimulusKLRU16_2IFC_2019_Jun_13_1429_290,True,2019_Jun_13_1429,2IFC,2,KLRU16,
2IFC,70,0,70,0,5.1,-1,correct answer,0.668337699957,True,False,stimulusKLRU16_2IFC_2019_Jun_13_1429_291,stimulusKLRU16_2IFC_2019_Jun_13_1429_292,True,2019_Jun_13_1429,2IFC,2,KLRU16,
2IFC,71,0,71,0,10.4,-1,no answer,-1,False,True,stimulusKLRU16_2IFC_2019_Jun_13_1429_293,stimulusKLRU16_2IFC_2019_Jun_13_1429_294,True,2019_Jun_13_1429,2IFC,2,KLRU16,
2IFC,72,0,72,0,10.4,-1,correct answer,0.567172199953,False,True,stimulusKLRU16_2IFC_2019_Jun_13_1429_295,stimulusKLRU16_2IFC_2019_Jun_13_1429_296,True,2019_Jun_13_1429,2IFC,2,KLRU16,
2IFC,73,0,73,0,7.4,-1,correct answer,0.633786999853,False,True,stimulusKLRU16_2IFC_2019_Jun_13_1429_297,stimulusKLRU16_2IFC_2019_Jun_13_1429_298,True,2019_Jun_13_1429,2IFC,2,KLRU16,
2IFC,74,0,74,0,5.1,-1,wrong answer,0.600587800145,False,True,stimulusKLRU16_2IFC_2019_Jun_13_1429_299,stimulusKLRU16_2IFC_2019_Jun_13_1429_300,True,2019_Jun_13_1429,2IFC,2,KLRU16,
2IFC,0,0,0,0,10.4,-1,correct answer,0.768292099936,True,False,stimulusKLRU16_2IFC_2019_Jun_13_1429_301,stimulusKLRU16_2IFC_2019_Jun_13_1429_302,True,2019_Jun_13_1429,2IFC,2,KLRU16,
2IFC,1,0,1,0,3.5,-1,correct answer,0.63404299994,True,False,stimulusKLRU16_2IFC_2019_Jun_13_1429_303,stimulusKLRU16_2IFC_2019_Jun_13_1429_304,True,2019_Jun_13_1429,2IFC,2,KLRU16,
2IFC,2,0,2,0,9.3,-1,correct answer,0.43399179983,True,False,stimulusKLRU16_2IFC_2019_Jun_13_1429_305,stimulusKLRU16_2IFC_2019_Jun_13_1429_306,True,2019_Jun_13_1429,2IFC,2,KLRU16,
2IFC,3,0,3,0,10.4,-1,correct answer,0.667331299977,False,True,stimulusKLRU16_2IFC_2019_Jun_13_1429_307,stimulusKLRU16_2IFC_2019_Jun_13_1429_308,True,2019_Jun_13_1429,2IFC,2,KLRU16,
2IFC,4,0,4,0,6.4,-1,wrong answer,0.801438699942,True,False,stimulusKLRU16_2IFC_2019_Jun_13_1429_309,stimulusKLRU16_2IFC_2019_Jun_13_1429_310,True,2019_Jun_13_1429,2IFC,2,KLRU16,
2IFC,5,0,5,0,5.1,-1,correct answer,0.667007099837,False,True,stimulusKLRU16_2IFC_2019_Jun_13_1429_311,stimulusKLRU16_2IFC_2019_Jun_13_1429_312,True,2019_Jun_13_1429,2IFC,2,KLRU16,
2IFC,6,0,6,0,5.1,-1,correct answer,0.734553399961,True,False,stimulusKLRU16_2IFC_2019_Jun_13_1429_313,stimulusKLRU16_2IFC_2019_Jun_13_1429_314,True,2019_Jun_13_1429,2IFC,2,KLRU16,
2IFC,7,0,7,0,6.4,-1,correct answer,0.599994700169,False,True,stimulusKLRU16_2IFC_2019_Jun_13_1429_315,stimulusKLRU16_2IFC_2019_Jun_13_1429_316,True,2019_Jun_13_1429,2IFC,2,KLRU16,
2IFC,8,0,8,0,8.4,-1,correct answer,0.567278099945,False,True,stimulusKLRU16_2IFC_2019_Jun_13_1429_317,stimulusKLRU16_2IFC_2019_Jun_13_1429_318,True,2019_Jun_13_1429,2IFC,2,KLRU16,
2IFC,9,0,9,0,5.1,-1,wrong answer,0.534130499931,False,True,stimulusKLRU16_2IFC_2019_Jun_13_1429_319,stimulusKLRU16_2IFC_2019_Jun_13_1429_320,True,2019_Jun_13_1429,2IFC,2,KLRU16,
2IFC,10,0,10,0,7.4,-1,correct answer,0.500735000009,True,False,stimulusKLRU16_2IFC_2019_Jun_13_1429_321,stimulusKLRU16_2IFC_2019_Jun_13_1429_322,True,2019_Jun_13_1429,2IFC,2,KLRU16,
2IFC,11,0,11,0,5.1,-1,wrong answer,0.800709200092,True,False,stimulusKLRU16_2IFC_2019_Jun_13_1429_323,stimulusKLRU16_2IFC_2019_Jun_13_1429_324,True,2019_Jun_13_1429,2IFC,2,KLRU16,
2IFC,12,0,12,0,11.6,-1,correct answer,0.566715500085,False,True,stimulusKLRU16_2IFC_2019_Jun_13_1429_325,stimulusKLRU16_2IFC_2019_Jun_13_1429_326,True,2019_Jun_13_1429,2IFC,2,KLRU16,
2IFC,13,0,13,0,6.4,-1,correct answer,0.666763699846,True,False,stimulusKLRU16_2IFC_2019_Jun_13_1429_327,stimulusKLRU16_2IFC_2019_Jun_13_1429_328,True,2019_Jun_13_1429,2IFC,2,KLRU16,
2IFC,14,0,14,0,6.4,-1,correct answer,0.501477199839,True,False,stimulusKLRU16_2IFC_2019_Jun_13_1429_329,stimulusKLRU16_2IFC_2019_Jun_13_1429_330,True,2019_Jun_13_1429,2IFC,2,KLRU16,
2IFC,15,0,15,0,11.6,-1,correct answer,0.700991300168,False,True,stimulusKLRU16_2IFC_2019_Jun_13_1429_331,stimulusKLRU16_2IFC_2019_Jun_13_1429_332,True,2019_Jun_13_1429,2IFC,2,KLRU16,
2IFC,16,0,16,0,10.4,-1,correct answer,0.734783099964,False,True,stimulusKLRU16_2IFC_2019_Jun_13_1429_333,stimulusKLRU16_2IFC_2019_Jun_13_1429_334,True,2019_Jun_13_1429,2IFC,2,KLRU16,
2IFC,17,0,17,0,10.4,-1,correct answer,0.567187799839,False,True,stimulusKLRU16_2IFC_2019_Jun_13_1429_335,stimulusKLRU16_2IFC_2019_Jun_13_1429_336,True,2019_Jun_13_1429,2IFC,2,KLRU16,
2IFC,18,0,18,0,11.6,-1,correct answer,0.634021700127,False,True,stimulusKLRU16_2IFC_2019_Jun_13_1429_337,stimulusKLRU16_2IFC_2019_Jun_13_1429_338,True,2019_Jun_13_1429,2IFC,2,KLRU16,
2IFC,19,0,19,0,3.5,-1,correct answer,0.633635199862,False,True,stimulusKLRU16_2IFC_2019_Jun_13_1429_339,stimulusKLRU16_2IFC_2019_Jun_13_1429_340,True,2019_Jun_13_1429,2IFC,2,KLRU16,
2IFC,20,0,20,0,3.5,-1,wrong answer,0.633630799828,False,True,stimulusKLRU16_2IFC_2019_Jun_13_1429_341,stimulusKLRU16_2IFC_2019_Jun_13_1429_342,True,2019_Jun_13_1429,2IFC,2,KLRU16,
2IFC,21,0,21,0,7.4,-1,correct answer,0.467440099921,True,False,stimulusKLRU16_2IFC_2019_Jun_13_1429_343,stimulusKLRU16_2IFC_2019_Jun_13_1429_344,True,2019_Jun_13_1429,2IFC,2,KLRU16,
2IFC,22,0,22,0,6.4,-1,wrong answer,0.666377499932,True,False,stimulusKLRU16_2IFC_2019_Jun_13_1429_345,stimulusKLRU16_2IFC_2019_Jun_13_1429_346,True,2019_Jun_13_1429,2IFC,2,KLRU16,
2IFC,23,0,23,0,3.5,-1,wrong answer,0.700694199884,True,False,stimulusKLRU16_2IFC_2019_Jun_13_1429_347,stimulusKLRU16_2IFC_2019_Jun_13_1429_348,True,2019_Jun_13_1429,2IFC,2,KLRU16,
2IFC,24,0,24,0,7.4,-1,wrong answer,0.733371399809,False,True,stimulusKLRU16_2IFC_2019_Jun_13_1429_349,stimulusKLRU16_2IFC_2019_Jun_13_1429_350,True,2019_Jun_13_1429,2IFC,2,KLRU16,
2IFC,25,0,25,0,11.6,-1,correct answer,0.668723999988,False,True,stimulusKLRU16_2IFC_2019_Jun_13_1429_351,stimulusKLRU16_2IFC_2019_Jun_13_1429_352,True,2019_Jun_13_1429,2IFC,2,KLRU16,
2IFC,26,0,26,0,7.4,-1,correct answer,0.665448900079,False,True,stimulusKLRU16_2IFC_2019_Jun_13_1429_353,stimulusKLRU16_2IFC_2019_Jun_13_1429_354,True,2019_Jun_13_1429,2IFC,2,KLRU16,
2IFC,27,0,27,0,3.5,-1,wrong answer,0.634807500057,False,True,stimulusKLRU16_2IFC_2019_Jun_13_1429_355,stimulusKLRU16_2IFC_2019_Jun_13_1429_356,True,2019_Jun_13_1429,2IFC,2,KLRU16,
2IFC,28,0,28,0,10.4,-1,correct answer,0.534537300002,False,True,stimulusKLRU16_2IFC_2019_Jun_13_1429_357,stimulusKLRU16_2IFC_2019_Jun_13_1429_358,True,2019_Jun_13_1429,2IFC,2,KLRU16,
2IFC,29,0,29,0,9.3,-1,correct answer,0.66821100004,False,True,stimulusKLRU16_2IFC_2019_Jun_13_1429_359,stimulusKLRU16_2IFC_2019_Jun_13_1429_360,True,2019_Jun_13_1429,2IFC,2,KLRU16,
2IFC,30,0,30,0,9.3,-1,correct answer,0.567727199988,False,True,stimulusKLRU16_2IFC_2019_Jun_13_1429_361,stimulusKLRU16_2IFC_2019_Jun_13_1429_362,True,2019_Jun_13_1429,2IFC,2,KLRU16,
2IFC,31,0,31,0,6.4,-1,correct answer,0.700517799938,True,False,stimulusKLRU16_2IFC_2019_Jun_13_1429_363,stimulusKLRU16_2IFC_2019_Jun_13_1429_364,True,2019_Jun_13_1429,2IFC,2,KLRU16,
2IFC,32,0,32,0,8.4,-1,correct answer,0.229512300109,True,False,stimulusKLRU16_2IFC_2019_Jun_13_1429_365,stimulusKLRU16_2IFC_2019_Jun_13_1429_366,True,2019_Jun_13_1429,2IFC,2,KLRU16,
2IFC,33,0,33,0,7.4,-1,correct answer,0.600726400036,False,True,stimulusKLRU16_2IFC_2019_Jun_13_1429_367,stimulusKLRU16_2IFC_2019_Jun_13_1429_368,True,2019_Jun_13_1429,2IFC,2,KLRU16,
2IFC,34,0,34,0,9.3,-1,correct answer,0.60127809993,False,True,stimulusKLRU16_2IFC_2019_Jun_13_1429_369,stimulusKLRU16_2IFC_2019_Jun_13_1429_370,True,2019_Jun_13_1429,2IFC,2,KLRU16,
2IFC,35,0,35,0,5.1,-1,wrong answer,0.634336000076,True,False,stimulusKLRU16_2IFC_2019_Jun_13_1429_371,stimulusKLRU16_2IFC_2019_Jun_13_1429_372,True,2019_Jun_13_1429,2IFC,2,KLRU16,
2IFC,36,0,36,0,10.4,-1,correct answer,0.467806900153,True,False,stimulusKLRU16_2IFC_2019_Jun_13_1429_373,stimulusKLRU16_2IFC_2019_Jun_13_1429_374,True,2019_Jun_13_1429,2IFC,2,KLRU16,
2IFC,37,0,37,0,9.3,-1,correct answer,0.167116499972,True,False,stimulusKLRU16_2IFC_2019_Jun_13_1429_375,stimulusKLRU16_2IFC_2019_Jun_13_1429_376,True,2019_Jun_13_1429,2IFC,2,KLRU16,
2IFC,38,0,38,0,8.4,-1,wrong answer,0.301045199856,False,True,stimulusKLRU16_2IFC_2019_Jun_13_1429_377,stimulusKLRU16_2IFC_2019_Jun_13_1429_378,True,2019_Jun_13_1429,2IFC,2,KLRU16,
2IFC,39,0,39,0,9.3,-1,correct answer,0.268097999971,True,False,stimulusKLRU16_2IFC_2019_Jun_13_1429_379,stimulusKLRU16_2IFC_2019_Jun_13_1429_380,True,2019_Jun_13_1429,2IFC,2,KLRU16,
2IFC,40,0,40,0,8.4,-1,correct answer,0.600915799849,False,True,stimulusKLRU16_2IFC_2019_Jun_13_1429_381,stimulusKLRU16_2IFC_2019_Jun_13_1429_382,True,2019_Jun_13_1429,2IFC,2,KLRU16,
2IFC,41,0,41,0,3.5,-1,wrong answer,0.600932799978,False,True,stimulusKLRU16_2IFC_2019_Jun_13_1429_383,stimulusKLRU16_2IFC_2019_Jun_13_1429_384,True,2019_Jun_13_1429,2IFC,2,KLRU16,
2IFC,42,0,42,0,7.4,-1,correct answer,0.532929299865,False,True,stimulusKLRU16_2IFC_2019_Jun_13_1429_385,stimulusKLRU16_2IFC_2019_Jun_13_1429_386,True,2019_Jun_13_1429,2IFC,2,KLRU16,
2IFC,43,0,43,0,7.4,-1,correct answer,0.699574199971,False,True,stimulusKLRU16_2IFC_2019_Jun_13_1429_387,stimulusKLRU16_2IFC_2019_Jun_13_1429_388,True,2019_Jun_13_1429,2IFC,2,KLRU16,
2IFC,44,0,44,0,11.6,-1,wrong answer,0.600881499937,False,True,stimulusKLRU16_2IFC_2019_Jun_13_1429_389,stimulusKLRU16_2IFC_2019_Jun_13_1429_390,True,2019_Jun_13_1429,2IFC,2,KLRU16,
2IFC,45,0,45,0,8.4,-1,correct answer,0.865521200001,False,True,stimulusKLRU16_2IFC_2019_Jun_13_1429_391,stimulusKLRU16_2IFC_2019_Jun_13_1429_392,True,2019_Jun_13_1429,2IFC,2,KLRU16,
2IFC,46,0,46,0,5.1,-1,wrong answer,0.567533199908,True,False,stimulusKLRU16_2IFC_2019_Jun_13_1429_393,stimulusKLRU16_2IFC_2019_Jun_13_1429_394,True,2019_Jun_13_1429,2IFC,2,KLRU16,
2IFC,47,0,47,0,7.4,-1,correct answer,0.700669100042,False,True,stimulusKLRU16_2IFC_2019_Jun_13_1429_395,stimulusKLRU16_2IFC_2019_Jun_13_1429_396,True,2019_Jun_13_1429,2IFC,2,KLRU16,
2IFC,48,0,48,0,5.1,-1,correct answer,0.56660000002,False,True,stimulusKLRU16_2IFC_2019_Jun_13_1429_397,stimulusKLRU16_2IFC_2019_Jun_13_1429_398,True,2019_Jun_13_1429,2IFC,2,KLRU16,
2IFC,49,0,49,0,5.1,-1,wrong answer,0.634612499969,True,False,stimulusKLRU16_2IFC_2019_Jun_13_1429_399,stimulusKLRU16_2IFC_2019_Jun_13_1429_400,True,2019_Jun_13_1429,2IFC,2,KLRU16,
2IFC,50,0,50,0,8.4,-1,wrong answer,0.734128699871,False,True,stimulusKLRU16_2IFC_2019_Jun_13_1429_401,stimulusKLRU16_2IFC_2019_Jun_13_1429_402,True,2019_Jun_13_1429,2IFC,2,KLRU16,
2IFC,51,0,51,0,3.5,-1,wrong answer,0.735083200037,True,False,stimulusKLRU16_2IFC_2019_Jun_13_1429_403,stimulusKLRU16_2IFC_2019_Jun_13_1429_404,True,2019_Jun_13_1429,2IFC,2,KLRU16,
2IFC,52,0,52,0,3.5,-1,correct answer,0.767339900136,True,False,stimulusKLRU16_2IFC_2019_Jun_13_1429_405,stimulusKLRU16_2IFC_2019_Jun_13_1429_406,True,2019_Jun_13_1429,2IFC,2,KLRU16,
2IFC,53,0,53,0,6.4,-1,correct answer,0.768140000058,True,False,stimulusKLRU16_2IFC_2019_Jun_13_1429_407,stimulusKLRU16_2IFC_2019_Jun_13_1429_408,True,2019_Jun_13_1429,2IFC,2,KLRU16,
2IFC,54,0,54,0,9.3,-1,correct answer,0.534167400096,False,True,stimulusKLRU16_2IFC_2019_Jun_13_1429_409,stimulusKLRU16_2IFC_2019_Jun_13_1429_410,True,2019_Jun_13_1429,2IFC,2,KLRU16,
2IFC,55,0,55,0,11.6,-1,correct answer,0.568748400081,False,True,stimulusKLRU16_2IFC_2019_Jun_13_1429_411,stimulusKLRU16_2IFC_2019_Jun_13_1429_412,True,2019_Jun_13_1429,2IFC,2,KLRU16,
2IFC,56,0,56,0,7.4,-1,correct answer,0.534072500188,False,True,stimulusKLRU16_2IFC_2019_Jun_13_1429_413,stimulusKLRU16_2IFC_2019_Jun_13_1429_414,True,2019_Jun_13_1429,2IFC,2,KLRU16,
2IFC,57,0,57,0,7.4,-1,correct answer,0.5358366,True,False,stimulusKLRU16_2IFC_2019_Jun_13_1429_415,stimulusKLRU16_2IFC_2019_Jun_13_1429_416,True,2019_Jun_13_1429,2IFC,2,KLRU16,
2IFC,58,0,58,0,11.6,-1,correct answer,0.567270800006,False,True,stimulusKLRU16_2IFC_2019_Jun_13_1429_417,stimulusKLRU16_2IFC_2019_Jun_13_1429_418,True,2019_Jun_13_1429,2IFC,2,KLRU16,
2IFC,59,0,59,0,10.4,-1,correct answer,0.634038100019,False,True,stimulusKLRU16_2IFC_2019_Jun_13_1429_419,stimulusKLRU16_2IFC_2019_Jun_13_1429_420,True,2019_Jun_13_1429,2IFC,2,KLRU16,
2IFC,60,0,60,0,5.1,-1,correct answer,0.534043700201,False,True,stimulusKLRU16_2IFC_2019_Jun_13_1429_421,stimulusKLRU16_2IFC_2019_Jun_13_1429_422,True,2019_Jun_13_1429,2IFC,2,KLRU16,
2IFC,61,0,61,0,9.3,-1,correct answer,0.666537799872,False,True,stimulusKLRU16_2IFC_2019_Jun_13_1429_423,stimulusKLRU16_2IFC_2019_Jun_13_1429_424,True,2019_Jun_13_1429,2IFC,2,KLRU16,
2IFC,62,0,62,0,6.4,-1,correct answer,0.602596799843,False,True,stimulusKLRU16_2IFC_2019_Jun_13_1429_425,stimulusKLRU16_2IFC_2019_Jun_13_1429_426,True,2019_Jun_13_1429,2IFC,2,KLRU16,
2IFC,63,0,63,0,3.5,-1,wrong answer,0.668849800015,False,True,stimulusKLRU16_2IFC_2019_Jun_13_1429_427,stimulusKLRU16_2IFC_2019_Jun_13_1429_428,True,2019_Jun_13_1429,2IFC,2,KLRU16,
2IFC,64,0,64,0,11.6,-1,correct answer,0.533515800023,True,False,stimulusKLRU16_2IFC_2019_Jun_13_1429_429,stimulusKLRU16_2IFC_2019_Jun_13_1429_430,True,2019_Jun_13_1429,2IFC,2,KLRU16,
2IFC,65,0,65,0,5.1,-1,wrong answer,0.666724599898,False,True,stimulusKLRU16_2IFC_2019_Jun_13_1429_431,stimulusKLRU16_2IFC_2019_Jun_13_1429_432,True,2019_Jun_13_1429,2IFC,2,KLRU16,
2IFC,66,0,66,0,7.4,-1,correct answer,0.700978700072,True,False,stimulusKLRU16_2IFC_2019_Jun_13_1429_433,stimulusKLRU16_2IFC_2019_Jun_13_1429_434,True,2019_Jun_13_1429,2IFC,2,KLRU16,
2IFC,67,0,67,0,10.4,-1,wrong answer,0.866840599803,True,False,stimulusKLRU16_2IFC_2019_Jun_13_1429_435,stimulusKLRU16_2IFC_2019_Jun_13_1429_436,True,2019_Jun_13_1429,2IFC,2,KLRU16,
2IFC,68,0,68,0,7.4,-1,correct answer,0.099574400112,True,False,stimulusKLRU16_2IFC_2019_Jun_13_1429_437,stimulusKLRU16_2IFC_2019_Jun_13_1429_438,True,2019_Jun_13_1429,2IFC,2,KLRU16,
2IFC,69,0,69,0,9.3,-1,correct answer,0.300658599939,True,False,stimulusKLRU16_2IFC_2019_Jun_13_1429_439,stimulusKLRU16_2IFC_2019_Jun_13_1429_440,True,2019_Jun_13_1429,2IFC,2,KLRU16,
2IFC,70,0,70,0,7.4,-1,no answer,-1,False,True,stimulusKLRU16_2IFC_2019_Jun_13_1429_441,stimulusKLRU16_2IFC_2019_Jun_13_1429_442,True,2019_Jun_13_1429,2IFC,2,KLRU16,
2IFC,71,0,71,0,7.4,-1,correct answer,0.433497299906,True,False,stimulusKLRU16_2IFC_2019_Jun_13_1429_443,stimulusKLRU16_2IFC_2019_Jun_13_1429_444,True,2019_Jun_13_1429,2IFC,2,KLRU16,
2IFC,72,0,72,0,10.4,-1,correct answer,0.533988999901,False,True,stimulusKLRU16_2IFC_2019_Jun_13_1429_445,stimulusKLRU16_2IFC_2019_Jun_13_1429_446,True,2019_Jun_13_1429,2IFC,2,KLRU16,
2IFC,73,0,73,0,11.6,-1,correct answer,0.500842300011,False,True,stimulusKLRU16_2IFC_2019_Jun_13_1429_447,stimulusKLRU16_2IFC_2019_Jun_13_1429_448,True,2019_Jun_13_1429,2IFC,2,KLRU16,
2IFC,74,0,74,0,9.3,-1,correct answer,0.536083900137,True,False,stimulusKLRU16_2IFC_2019_Jun_13_1429_449,stimulusKLRU16_2IFC_2019_Jun_13_1429_450,True,2019_Jun_13_1429,2IFC,2,KLRU16,
2IFC,0,0,0,0,11.6,-1,correct answer,0.667465300066,True,False,stimulusKLRU16_2IFC_2019_Jun_13_1429_451,stimulusKLRU16_2IFC_2019_Jun_13_1429_452,True,2019_Jun_13_1429,2IFC,2,KLRU16,
2IFC,1,0,1,0,3.5,-1,correct answer,0.600696499925,False,True,stimulusKLRU16_2IFC_2019_Jun_13_1429_453,stimulusKLRU16_2IFC_2019_Jun_13_1429_454,True,2019_Jun_13_1429,2IFC,2,KLRU16,
2IFC,2,0,2,0,3.5,-1,correct answer,0.600483000046,False,True,stimulusKLRU16_2IFC_2019_Jun_13_1429_455,stimulusKLRU16_2IFC_2019_Jun_13_1429_456,True,2019_Jun_13_1429,2IFC,2,KLRU16,
2IFC,3,0,3,0,6.4,-1,correct answer,0.602035300108,False,True,stimulusKLRU16_2IFC_2019_Jun_13_1429_457,stimulusKLRU16_2IFC_2019_Jun_13_1429_458,True,2019_Jun_13_1429,2IFC,2,KLRU16,
2IFC,4,0,4,0,11.6,-1,correct answer,0.500438000076,False,True,stimulusKLRU16_2IFC_2019_Jun_13_1429_459,stimulusKLRU16_2IFC_2019_Jun_13_1429_460,True,2019_Jun_13_1429,2IFC,2,KLRU16,
2IFC,5,0,5,0,10.4,-1,correct answer,0.634081299882,False,True,stimulusKLRU16_2IFC_2019_Jun_13_1429_461,stimulusKLRU16_2IFC_2019_Jun_13_1429_462,True,2019_Jun_13_1429,2IFC,2,KLRU16,
2IFC,6,0,6,0,9.3,-1,correct answer,0.467407800024,False,True,stimulusKLRU16_2IFC_2019_Jun_13_1429_463,stimulusKLRU16_2IFC_2019_Jun_13_1429_464,True,2019_Jun_13_1429,2IFC,2,KLRU16,
2IFC,7,0,7,0,5.1,-1,correct answer,0.566962599987,False,True,stimulusKLRU16_2IFC_2019_Jun_13_1429_465,stimulusKLRU16_2IFC_2019_Jun_13_1429_466,True,2019_Jun_13_1429,2IFC,2,KLRU16,
2IFC,8,0,8,0,5.1,-1,correct answer,0.567380400142,False,True,stimulusKLRU16_2IFC_2019_Jun_13_1429_467,stimulusKLRU16_2IFC_2019_Jun_13_1429_468,True,2019_Jun_13_1429,2IFC,2,KLRU16,
2IFC,9,0,9,0,6.4,-1,wrong answer,0.533816799987,False,True,stimulusKLRU16_2IFC_2019_Jun_13_1429_469,stimulusKLRU16_2IFC_2019_Jun_13_1429_470,True,2019_Jun_13_1429,2IFC,2,KLRU16,
2IFC,10,0,10,0,3.5,-1,correct answer,0.866289800033,True,False,stimulusKLRU16_2IFC_2019_Jun_13_1429_471,stimulusKLRU16_2IFC_2019_Jun_13_1429_472,True,2019_Jun_13_1429,2IFC,2,KLRU16,
2IFC,11,0,11,0,6.4,-1,correct answer,0.56714379997,False,True,stimulusKLRU16_2IFC_2019_Jun_13_1429_473,stimulusKLRU16_2IFC_2019_Jun_13_1429_474,True,2019_Jun_13_1429,2IFC,2,KLRU16,
2IFC,12,0,12,0,11.6,-1,correct answer,0.300429400057,True,False,stimulusKLRU16_2IFC_2019_Jun_13_1429_475,stimulusKLRU16_2IFC_2019_Jun_13_1429_476,True,2019_Jun_13_1429,2IFC,2,KLRU16,
2IFC,13,0,13,0,11.6,-1,correct answer,0.433425999945,True,False,stimulusKLRU16_2IFC_2019_Jun_13_1429_477,stimulusKLRU16_2IFC_2019_Jun_13_1429_478,True,2019_Jun_13_1429,2IFC,2,KLRU16,
2IFC,14,0,14,0,7.4,-1,correct answer,0.266402499983,True,False,stimulusKLRU16_2IFC_2019_Jun_13_1429_479,stimulusKLRU16_2IFC_2019_Jun_13_1429_480,True,2019_Jun_13_1429,2IFC,2,KLRU16,
2IFC,15,0,15,0,3.5,-1,wrong answer,0.700824999949,True,False,stimulusKLRU16_2IFC_2019_Jun_13_1429_481,stimulusKLRU16_2IFC_2019_Jun_13_1429_482,True,2019_Jun_13_1429,2IFC,2,KLRU16,
2IFC,16,0,16,0,11.6,-1,correct answer,0.267775099957,True,False,stimulusKLRU16_2IFC_2019_Jun_13_1429_483,stimulusKLRU16_2IFC_2019_Jun_13_1429_484,True,2019_Jun_13_1429,2IFC,2,KLRU16,
2IFC,17,0,17,0,3.5,-1,wrong answer,0.836795900017,False,True,stimulusKLRU16_2IFC_2019_Jun_13_1429_485,stimulusKLRU16_2IFC_2019_Jun_13_1429_486,True,2019_Jun_13_1429,2IFC,2,KLRU16,
2IFC,18,0,18,0,11.6,-1,correct answer,0.668774599908,False,True,stimulusKLRU16_2IFC_2019_Jun_13_1429_487,stimulusKLRU16_2IFC_2019_Jun_13_1429_488,True,2019_Jun_13_1429,2IFC,2,KLRU16,
2IFC,19,0,19,0,3.5,-1,correct answer,0.600787000032,False,True,stimulusKLRU16_2IFC_2019_Jun_13_1429_489,stimulusKLRU16_2IFC_2019_Jun_13_1429_490,True,2019_Jun_13_1429,2IFC,2,KLRU16,
2IFC,20,0,20,0,11.6,-1,correct answer,0.733324700035,False,True,stimulusKLRU16_2IFC_2019_Jun_13_1429_491,stimulusKLRU16_2IFC_2019_Jun_13_1429_492,True,2019_Jun_13_1429,2IFC,2,KLRU16,
2IFC,21,0,21,0,7.4,-1,correct answer,0.600521800108,False,True,stimulusKLRU16_2IFC_2019_Jun_13_1429_493,stimulusKLRU16_2IFC_2019_Jun_13_1429_494,True,2019_Jun_13_1429,2IFC,2,KLRU16,
2IFC,22,0,22,0,7.4,-1,correct answer,0.767113700043,False,True,stimulusKLRU16_2IFC_2019_Jun_13_1429_495,stimulusKLRU16_2IFC_2019_Jun_13_1429_496,True,2019_Jun_13_1429,2IFC,2,KLRU16,
2IFC,23,0,23,0,6.4,-1,correct answer,0.500880200183,True,False,stimulusKLRU16_2IFC_2019_Jun_13_1429_497,stimulusKLRU16_2IFC_2019_Jun_13_1429_498,True,2019_Jun_13_1429,2IFC,2,KLRU16,
2IFC,24,0,24,0,11.6,-1,correct answer,0.634638700169,False,True,stimulusKLRU16_2IFC_2019_Jun_13_1429_499,stimulusKLRU16_2IFC_2019_Jun_13_1429_500,True,2019_Jun_13_1429,2IFC,2,KLRU16,
2IFC,25,0,25,0,9.3,-1,correct answer,0.56731329998,False,True,stimulusKLRU16_2IFC_2019_Jun_13_1429_501,stimulusKLRU16_2IFC_2019_Jun_13_1429_502,True,2019_Jun_13_1429,2IFC,2,KLRU16,
2IFC,26,0,26,0,9.3,-1,correct answer,0.567361700116,False,True,stimulusKLRU16_2IFC_2019_Jun_13_1429_503,stimulusKLRU16_2IFC_2019_Jun_13_1429_504,True,2019_Jun_13_1429,2IFC,2,KLRU16,
2IFC,27,0,27,0,9.3,-1,correct answer,0.367078400217,True,False,stimulusKLRU16_2IFC_2019_Jun_13_1429_505,stimulusKLRU16_2IFC_2019_Jun_13_1429_506,True,2019_Jun_13_1429,2IFC,2,KLRU16,
2IFC,28,0,28,0,9.3,-1,correct answer,0.533858800074,False,True,stimulusKLRU16_2IFC_2019_Jun_13_1429_507,stimulusKLRU16_2IFC_2019_Jun_13_1429_508,True,2019_Jun_13_1429,2IFC,2,KLRU16,
2IFC,29,0,29,0,10.4,-1,correct answer,0.600122799864,False,True,stimulusKLRU16_2IFC_2019_Jun_13_1429_509,stimulusKLRU16_2IFC_2019_Jun_13_1429_510,True,2019_Jun_13_1429,2IFC,2,KLRU16,
2IFC,30,0,30,0,9.3,-1,wrong answer,0.499852999812,True,False,stimulusKLRU16_2IFC_2019_Jun_13_1429_511,stimulusKLRU16_2IFC_2019_Jun_13_1429_512,True,2019_Jun_13_1429,2IFC,2,KLRU16,
2IFC,31,0,31,0,11.6,-1,wrong answer,0.63394560013,False,True,stimulusKLRU16_2IFC_2019_Jun_13_1429_513,stimulusKLRU16_2IFC_2019_Jun_13_1429_514,True,2019_Jun_13_1429,2IFC,2,KLRU16,
2IFC,32,0,32,0,10.4,-1,no answer,-1,False,True,stimulusKLRU16_2IFC_2019_Jun_13_1429_515,stimulusKLRU16_2IFC_2019_Jun_13_1429_516,True,2019_Jun_13_1429,2IFC,2,KLRU16,
2IFC,33,0,33,0,11.6,-1,correct answer,0.533245000057,True,False,stimulusKLRU16_2IFC_2019_Jun_13_1429_517,stimulusKLRU16_2IFC_2019_Jun_13_1429_518,True,2019_Jun_13_1429,2IFC,2,KLRU16,
2IFC,34,0,34,0,11.6,-1,correct answer,0.66739810002,False,True,stimulusKLRU16_2IFC_2019_Jun_13_1429_519,stimulusKLRU16_2IFC_2019_Jun_13_1429_520,True,2019_Jun_13_1429,2IFC,2,KLRU16,
2IFC,35,0,35,0,8.4,-1,correct answer,0.701403099811,False,True,stimulusKLRU16_2IFC_2019_Jun_13_1429_521,stimulusKLRU16_2IFC_2019_Jun_13_1429_522,True,2019_Jun_13_1429,2IFC,2,KLRU16,
2IFC,36,0,36,0,8.4,-1,correct answer,0.300656700041,True,False,stimulusKLRU16_2IFC_2019_Jun_13_1429_523,stimulusKLRU16_2IFC_2019_Jun_13_1429_524,True,2019_Jun_13_1429,2IFC,2,KLRU16,
2IFC,37,0,37,0,7.4,-1,correct answer,0.733646699926,True,False,stimulusKLRU16_2IFC_2019_Jun_13_1429_525,stimulusKLRU16_2IFC_2019_Jun_13_1429_526,True,2019_Jun_13_1429,2IFC,2,KLRU16,
2IFC,38,0,38,0,9.3,-1,no answer,-1,True,False,stimulusKLRU16_2IFC_2019_Jun_13_1429_527,stimulusKLRU16_2IFC_2019_Jun_13_1429_528,True,2019_Jun_13_1429,2IFC,2,KLRU16,
2IFC,39,0,39,0,5.1,-1,correct answer,0.833834500052,True,False,stimulusKLRU16_2IFC_2019_Jun_13_1429_529,stimulusKLRU16_2IFC_2019_Jun_13_1429_530,True,2019_Jun_13_1429,2IFC,2,KLRU16,
2IFC,40,0,40,0,5.1,-1,correct answer,0.701315599959,True,False,stimulusKLRU16_2IFC_2019_Jun_13_1429_531,stimulusKLRU16_2IFC_2019_Jun_13_1429_532,True,2019_Jun_13_1429,2IFC,2,KLRU16,
2IFC,41,0,41,0,8.4,-1,correct answer,0.669058699859,False,True,stimulusKLRU16_2IFC_2019_Jun_13_1429_533,stimulusKLRU16_2IFC_2019_Jun_13_1429_534,True,2019_Jun_13_1429,2IFC,2,KLRU16,
2IFC,42,0,42,0,11.6,-1,correct answer,0.56750679994,False,True,stimulusKLRU16_2IFC_2019_Jun_13_1429_535,stimulusKLRU16_2IFC_2019_Jun_13_1429_536,True,2019_Jun_13_1429,2IFC,2,KLRU16,
2IFC,43,0,43,0,9.3,-1,correct answer,0.567069499986,False,True,stimulusKLRU16_2IFC_2019_Jun_13_1429_537,stimulusKLRU16_2IFC_2019_Jun_13_1429_538,True,2019_Jun_13_1429,2IFC,2,KLRU16,
2IFC,44,0,44,0,6.4,-1,correct answer,0.568187600002,False,True,stimulusKLRU16_2IFC_2019_Jun_13_1429_539,stimulusKLRU16_2IFC_2019_Jun_13_1429_540,True,2019_Jun_13_1429,2IFC,2,KLRU16,
2IFC,45,0,45,0,10.4,-1,correct answer,0.634314800147,False,True,stimulusKLRU16_2IFC_2019_Jun_13_1429_541,stimulusKLRU16_2IFC_2019_Jun_13_1429_542,True,2019_Jun_13_1429,2IFC,2,KLRU16,
2IFC,46,0,46,0,3.5,-1,correct answer,0.600527300034,True,False,stimulusKLRU16_2IFC_2019_Jun_13_1429_543,stimulusKLRU16_2IFC_2019_Jun_13_1429_544,True,2019_Jun_13_1429,2IFC,2,KLRU16,
2IFC,47,0,47,0,9.3,-1,correct answer,0.534412499983,True,False,stimulusKLRU16_2IFC_2019_Jun_13_1429_545,stimulusKLRU16_2IFC_2019_Jun_13_1429_546,True,2019_Jun_13_1429,2IFC,2,KLRU16,
2IFC,48,0,48,0,11.6,-1,correct answer,0.632562400075,False,True,stimulusKLRU16_2IFC_2019_Jun_13_1429_547,stimulusKLRU16_2IFC_2019_Jun_13_1429_548,True,2019_Jun_13_1429,2IFC,2,KLRU16,
2IFC,49,0,49,0,5.1,-1,wrong answer,0.734217100078,False,True,stimulusKLRU16_2IFC_2019_Jun_13_1429_549,stimulusKLRU16_2IFC_2019_Jun_13_1429_550,True,2019_Jun_13_1429,2IFC,2,KLRU16,
2IFC,50,0,50,0,10.4,-1,correct answer,0.499831299996,False,True,stimulusKLRU16_2IFC_2019_Jun_13_1429_551,stimulusKLRU16_2IFC_2019_Jun_13_1429_552,True,2019_Jun_13_1429,2IFC,2,KLRU16,
2IFC,51,0,51,0,3.5,-1,correct answer,0.667392800096,False,True,stimulusKLRU16_2IFC_2019_Jun_13_1429_553,stimulusKLRU16_2IFC_2019_Jun_13_1429_554,True,2019_Jun_13_1429,2IFC,2,KLRU16,
2IFC,52,0,52,0,6.4,-1,correct answer,0.500484100077,True,False,stimulusKLRU16_2IFC_2019_Jun_13_1429_555,stimulusKLRU16_2IFC_2019_Jun_13_1429_556,True,2019_Jun_13_1429,2IFC,2,KLRU16,
2IFC,53,0,53,0,7.4,-1,correct answer,0.703147999942,True,False,stimulusKLRU16_2IFC_2019_Jun_13_1429_557,stimulusKLRU16_2IFC_2019_Jun_13_1429_558,True,2019_Jun_13_1429,2IFC,2,KLRU16,
2IFC,54,0,54,0,7.4,-1,correct answer,0.567116799997,False,True,stimulusKLRU16_2IFC_2019_Jun_13_1429_559,stimulusKLRU16_2IFC_2019_Jun_13_1429_560,True,2019_Jun_13_1429,2IFC,2,KLRU16,
2IFC,55,0,55,0,8.4,-1,correct answer,0.500869500218,False,True,stimulusKLRU16_2IFC_2019_Jun_13_1429_561,stimulusKLRU16_2IFC_2019_Jun_13_1429_562,True,2019_Jun_13_1429,2IFC,2,KLRU16,
2IFC,56,0,56,0,7.4,-1,correct answer,0.301207700046,True,False,stimulusKLRU16_2IFC_2019_Jun_13_1429_563,stimulusKLRU16_2IFC_2019_Jun_13_1429_564,True,2019_Jun_13_1429,2IFC,2,KLRU16,
2IFC,57,0,57,0,6.4,-1,correct answer,0.733951899922,True,False,stimulusKLRU16_2IFC_2019_Jun_13_1429_565,stimulusKLRU16_2IFC_2019_Jun_13_1429_566,True,2019_Jun_13_1429,2IFC,2,KLRU16,
2IFC,58,0,58,0,9.3,-1,correct answer,0.467236700002,True,False,stimulusKLRU16_2IFC_2019_Jun_13_1429_567,stimulusKLRU16_2IFC_2019_Jun_13_1429_568,True,2019_Jun_13_1429,2IFC,2,KLRU16,
2IFC,59,0,59,0,10.4,-1,correct answer,0.667907899944,False,True,stimulusKLRU16_2IFC_2019_Jun_13_1429_569,stimulusKLRU16_2IFC_2019_Jun_13_1429_570,True,2019_Jun_13_1429,2IFC,2,KLRU16,
2IFC,60,0,60,0,6.4,-1,correct answer,0.568688399857,False,True,stimulusKLRU16_2IFC_2019_Jun_13_1429_571,stimulusKLRU16_2IFC_2019_Jun_13_1429_572,True,2019_Jun_13_1429,2IFC,2,KLRU16,
2IFC,61,0,61,0,3.5,-1,wrong answer,0.73421070003,False,True,stimulusKLRU16_2IFC_2019_Jun_13_1429_573,stimulusKLRU16_2IFC_2019_Jun_13_1429_574,True,2019_Jun_13_1429,2IFC,2,KLRU16,
2IFC,62,0,62,0,5.1,-1,correct answer,0.766956300009,False,True,stimulusKLRU16_2IFC_2019_Jun_13_1429_575,stimulusKLRU16_2IFC_2019_Jun_13_1429_576,True,2019_Jun_13_1429,2IFC,2,KLRU16,
2IFC,63,0,63,0,11.6,-1,correct answer,0.734125500079,False,True,stimulusKLRU16_2IFC_2019_Jun_13_1429_577,stimulusKLRU16_2IFC_2019_Jun_13_1429_578,True,2019_Jun_13_1429,2IFC,2,KLRU16,
2IFC,64,0,64,0,6.4,-1,correct answer,0.666544600157,False,True,stimulusKLRU16_2IFC_2019_Jun_13_1429_579,stimulusKLRU16_2IFC_2019_Jun_13_1429_580,True,2019_Jun_13_1429,2IFC,2,KLRU16,
2IFC,65,0,65,0,5.1,-1,correct answer,0.734248699853,False,True,stimulusKLRU16_2IFC_2019_Jun_13_1429_581,stimulusKLRU16_2IFC_2019_Jun_13_1429_582,True,2019_Jun_13_1429,2IFC,2,KLRU16,
2IFC,66,0,66,0,5.1,-1,wrong answer,0.668592999922,False,True,stimulusKLRU16_2IFC_2019_Jun_13_1429_583,stimulusKLRU16_2IFC_2019_Jun_13_1429_584,True,2019_Jun_13_1429,2IFC,2,KLRU16,
2IFC,67,0,67,0,8.4,-1,correct answer,0.566831800155,True,False,stimulusKLRU16_2IFC_2019_Jun_13_1429_585,stimulusKLRU16_2IFC_2019_Jun_13_1429_586,True,2019_Jun_13_1429,2IFC,2,KLRU16,
2IFC,68,0,68,0,6.4,-1,correct answer,0.6670458999,True,False,stimulusKLRU16_2IFC_2019_Jun_13_1429_587,stimulusKLRU16_2IFC_2019_Jun_13_1429_588,True,2019_Jun_13_1429,2IFC,2,KLRU16,
2IFC,69,0,69,0,6.4,-1,correct answer,0.70070279995,True,False,stimulusKLRU16_2IFC_2019_Jun_13_1429_589,stimulusKLRU16_2IFC_2019_Jun_13_1429_590,True,2019_Jun_13_1429,2IFC,2,KLRU16,
2IFC,70,0,70,0,6.4,-1,correct answer,0.700312499888,True,False,stimulusKLRU16_2IFC_2019_Jun_13_1429_591,stimulusKLRU16_2IFC_2019_Jun_13_1429_592,True,2019_Jun_13_1429,2IFC,2,KLRU16,
2IFC,71,0,71,0,7.4,-1,correct answer,0.800991100026,False,True,stimulusKLRU16_2IFC_2019_Jun_13_1429_593,stimulusKLRU16_2IFC_2019_Jun_13_1429_594,True,2019_Jun_13_1429,2IFC,2,KLRU16,
2IFC,72,0,72,0,5.1,-1,correct answer,0.700515300035,False,True,stimulusKLRU16_2IFC_2019_Jun_13_1429_595,stimulusKLRU16_2IFC_2019_Jun_13_1429_596,True,2019_Jun_13_1429,2IFC,2,KLRU16,
2IFC,73,0,73,0,9.3,-1,correct answer,0.567219899967,False,True,stimulusKLRU16_2IFC_2019_Jun_13_1429_597,stimulusKLRU16_2IFC_2019_Jun_13_1429_598,True,2019_Jun_13_1429,2IFC,2,KLRU16,
2IFC,74,0,74,0,11.6,-1,correct answer,0.467825599946,True,False,stimulusKLRU16_2IFC_2019_Jun_13_1429_599,stimulusKLRU16_2IFC_2019_Jun_13_1429_600,True,2019_Jun_13_1429,2IFC,2,KLRU16,
2IFC,0,0,0,0,7.4,-1,correct answer,0.633979899809,True,False,stimulusKLRU16_2IFC_2019_Jun_13_1429_601,stimulusKLRU16_2IFC_2019_Jun_13_1429_602,True,2019_Jun_13_1429,2IFC,2,KLRU16,
2IFC,1,0,1,0,3.5,-1,wrong answer,0.400874200044,False,True,stimulusKLRU16_2IFC_2019_Jun_13_1429_603,stimulusKLRU16_2IFC_2019_Jun_13_1429_604,True,2019_Jun_13_1429,2IFC,2,KLRU16,
2IFC,2,0,2,0,6.4,-1,correct answer,0.467075000051,True,False,stimulusKLRU16_2IFC_2019_Jun_13_1429_605,stimulusKLRU16_2IFC_2019_Jun_13_1429_606,True,2019_Jun_13_1429,2IFC,2,KLRU16,
2IFC,3,0,3,0,3.5,-1,correct answer,0.667886500014,False,True,stimulusKLRU16_2IFC_2019_Jun_13_1429_607,stimulusKLRU16_2IFC_2019_Jun_13_1429_608,True,2019_Jun_13_1429,2IFC,2,KLRU16,
2IFC,4,0,4,0,10.4,-1,correct answer,0.534251100151,False,True,stimulusKLRU16_2IFC_2019_Jun_13_1429_609,stimulusKLRU16_2IFC_2019_Jun_13_1429_610,True,2019_Jun_13_1429,2IFC,2,KLRU16,
2IFC,5,0,5,0,3.5,-1,correct answer,0.568082500016,True,False,stimulusKLRU16_2IFC_2019_Jun_13_1429_611,stimulusKLRU16_2IFC_2019_Jun_13_1429_612,True,2019_Jun_13_1429,2IFC,2,KLRU16,
2IFC,6,0,6,0,7.4,-1,wrong answer,0.467025099788,False,True,stimulusKLRU16_2IFC_2019_Jun_13_1429_613,stimulusKLRU16_2IFC_2019_Jun_13_1429_614,True,2019_Jun_13_1429,2IFC,2,KLRU16,
2IFC,7,0,7,0,6.4,-1,correct answer,0.668649800122,False,True,stimulusKLRU16_2IFC_2019_Jun_13_1429_615,stimulusKLRU16_2IFC_2019_Jun_13_1429_616,True,2019_Jun_13_1429,2IFC,2,KLRU16,
2IFC,8,0,8,0,3.5,-1,correct answer,0.600616800133,False,True,stimulusKLRU16_2IFC_2019_Jun_13_1429_617,stimulusKLRU16_2IFC_2019_Jun_13_1429_618,True,2019_Jun_13_1429,2IFC,2,KLRU16,
2IFC,9,0,9,0,10.4,-1,correct answer,0.434369900031,True,False,stimulusKLRU16_2IFC_2019_Jun_13_1429_619,stimulusKLRU16_2IFC_2019_Jun_13_1429_620,True,2019_Jun_13_1429,2IFC,2,KLRU16,
2IFC,10,0,10,0,9.3,-1,correct answer,0.534537799889,False,True,stimulusKLRU16_2IFC_2019_Jun_13_1429_621,stimulusKLRU16_2IFC_2019_Jun_13_1429_622,True,2019_Jun_13_1429,2IFC,2,KLRU16,
2IFC,11,0,11,0,10.4,-1,correct answer,0.333081699908,True,False,stimulusKLRU16_2IFC_2019_Jun_13_1429_623,stimulusKLRU16_2IFC_2019_Jun_13_1429_624,True,2019_Jun_13_1429,2IFC,2,KLRU16,
2IFC,12,0,12,0,5.1,-1,correct answer,0.53490320011,False,True,stimulusKLRU16_2IFC_2019_Jun_13_1429_625,stimulusKLRU16_2IFC_2019_Jun_13_1429_626,True,2019_Jun_13_1429,2IFC,2,KLRU16,
2IFC,13,0,13,0,3.5,-1,correct answer,0.567606699886,True,False,stimulusKLRU16_2IFC_2019_Jun_13_1429_627,stimulusKLRU16_2IFC_2019_Jun_13_1429_628,True,2019_Jun_13_1429,2IFC,2,KLRU16,
2IFC,14,0,14,0,9.3,-1,correct answer,0.569099699846,True,False,stimulusKLRU16_2IFC_2019_Jun_13_1429_629,stimulusKLRU16_2IFC_2019_Jun_13_1429_630,True,2019_Jun_13_1429,2IFC,2,KLRU16,
2IFC,15,0,15,0,3.5,-1,correct answer,0.534130100161,False,True,stimulusKLRU16_2IFC_2019_Jun_13_1429_631,stimulusKLRU16_2IFC_2019_Jun_13_1429_632,True,2019_Jun_13_1429,2IFC,2,KLRU16,
2IFC,16,0,16,0,8.4,-1,correct answer,0.500778800109,True,False,stimulusKLRU16_2IFC_2019_Jun_13_1429_633,stimulusKLRU16_2IFC_2019_Jun_13_1429_634,True,2019_Jun_13_1429,2IFC,2,KLRU16,
2IFC,17,0,17,0,9.3,-1,correct answer,0.500363799976,True,False,stimulusKLRU16_2IFC_2019_Jun_13_1429_635,stimulusKLRU16_2IFC_2019_Jun_13_1429_636,True,2019_Jun_13_1429,2IFC,2,KLRU16,
2IFC,18,0,18,0,7.4,-1,correct answer,0.56706260005,True,False,stimulusKLRU16_2IFC_2019_Jun_13_1429_637,stimulusKLRU16_2IFC_2019_Jun_13_1429_638,True,2019_Jun_13_1429,2IFC,2,KLRU16,
2IFC,19,0,19,0,7.4,-1,correct answer,0.300444300054,True,False,stimulusKLRU16_2IFC_2019_Jun_13_1429_639,stimulusKLRU16_2IFC_2019_Jun_13_1429_640,True,2019_Jun_13_1429,2IFC,2,KLRU16,
2IFC,20,0,20,0,6.4,-1,correct answer,0.600537199993,True,False,stimulusKLRU16_2IFC_2019_Jun_13_1429_641,stimulusKLRU16_2IFC_2019_Jun_13_1429_642,True,2019_Jun_13_1429,2IFC,2,KLRU16,
2IFC,21,0,21,0,5.1,-1,correct answer,0.468555500032,True,False,stimulusKLRU16_2IFC_2019_Jun_13_1429_643,stimulusKLRU16_2IFC_2019_Jun_13_1429_644,True,2019_Jun_13_1429,2IFC,2,KLRU16,
2IFC,22,0,22,0,3.5,-1,correct answer,0.735455999849,True,False,stimulusKLRU16_2IFC_2019_Jun_13_1429_645,stimulusKLRU16_2IFC_2019_Jun_13_1429_646,True,2019_Jun_13_1429,2IFC,2,KLRU16,
2IFC,23,0,23,0,6.4,-1,correct answer,0.667628399795,False,True,stimulusKLRU16_2IFC_2019_Jun_13_1429_647,stimulusKLRU16_2IFC_2019_Jun_13_1429_648,True,2019_Jun_13_1429,2IFC,2,KLRU16,
2IFC,24,0,24,0,9.3,-1,correct answer,0.56690789992,False,True,stimulusKLRU16_2IFC_2019_Jun_13_1429_649,stimulusKLRU16_2IFC_2019_Jun_13_1429_650,True,2019_Jun_13_1429,2IFC,2,KLRU16,
2IFC,25,0,25,0,11.6,-1,correct answer,0.367429600097,True,False,stimulusKLRU16_2IFC_2019_Jun_13_1429_651,stimulusKLRU16_2IFC_2019_Jun_13_1429_652,True,2019_Jun_13_1429,2IFC,2,KLRU16,
2IFC,26,0,26,0,11.6,-1,correct answer,0.600476299878,True,False,stimulusKLRU16_2IFC_2019_Jun_13_1429_653,stimulusKLRU16_2IFC_2019_Jun_13_1429_654,True,2019_Jun_13_1429,2IFC,2,KLRU16,
2IFC,27,0,27,0,7.4,-1,wrong answer,0.633966100169,False,True,stimulusKLRU16_2IFC_2019_Jun_13_1429_655,stimulusKLRU16_2IFC_2019_Jun_13_1429_656,True,2019_Jun_13_1429,2IFC,2,KLRU16,
2IFC,28,0,28,0,10.4,-1,correct answer,0.567642800044,False,True,stimulusKLRU16_2IFC_2019_Jun_13_1429_657,stimulusKLRU16_2IFC_2019_Jun_13_1429_658,True,2019_Jun_13_1429,2IFC,2,KLRU16,
2IFC,29,0,29,0,10.4,-1,correct answer,0.601366199786,False,True,stimulusKLRU16_2IFC_2019_Jun_13_1429_659,stimulusKLRU16_2IFC_2019_Jun_13_1429_660,True,2019_Jun_13_1429,2IFC,2,KLRU16,
2IFC,30,0,30,0,9.3,-1,correct answer,0.333548199851,True,False,stimulusKLRU16_2IFC_2019_Jun_13_1429_661,stimulusKLRU16_2IFC_2019_Jun_13_1429_662,True,2019_Jun_13_1429,2IFC,2,KLRU16,
2IFC,31,0,31,0,8.4,-1,correct answer,0.500436699949,True,False,stimulusKLRU16_2IFC_2019_Jun_13_1429_663,stimulusKLRU16_2IFC_2019_Jun_13_1429_664,True,2019_Jun_13_1429,2IFC,2,KLRU16,
2IFC,32,0,32,0,10.4,-1,correct answer,0.567468100227,True,False,stimulusKLRU16_2IFC_2019_Jun_13_1429_665,stimulusKLRU16_2IFC_2019_Jun_13_1429_666,True,2019_Jun_13_1429,2IFC,2,KLRU16,
2IFC,33,0,33,0,10.4,-1,correct answer,0.767627499998,True,False,stimulusKLRU16_2IFC_2019_Jun_13_1429_667,stimulusKLRU16_2IFC_2019_Jun_13_1429_668,True,2019_Jun_13_1429,2IFC,2,KLRU16,
2IFC,34,0,34,0,8.4,-1,wrong answer,0.801610399969,True,False,stimulusKLRU16_2IFC_2019_Jun_13_1429_669,stimulusKLRU16_2IFC_2019_Jun_13_1429_670,True,2019_Jun_13_1429,2IFC,2,KLRU16,
2IFC,35,0,35,0,10.4,-1,correct answer,0.333854599856,True,False,stimulusKLRU16_2IFC_2019_Jun_13_1429_671,stimulusKLRU16_2IFC_2019_Jun_13_1429_672,True,2019_Jun_13_1429,2IFC,2,KLRU16,
2IFC,36,0,36,0,10.4,-1,correct answer,0.333805700066,True,False,stimulusKLRU16_2IFC_2019_Jun_13_1429_673,stimulusKLRU16_2IFC_2019_Jun_13_1429_674,True,2019_Jun_13_1429,2IFC,2,KLRU16,
2IFC,37,0,37,0,3.5,-1,wrong answer,0.501243499806,False,True,stimulusKLRU16_2IFC_2019_Jun_13_1429_675,stimulusKLRU16_2IFC_2019_Jun_13_1429_676,True,2019_Jun_13_1429,2IFC,2,KLRU16,
2IFC,38,0,38,0,6.4,-1,correct answer,0.533736199839,True,False,stimulusKLRU16_2IFC_2019_Jun_13_1429_677,stimulusKLRU16_2IFC_2019_Jun_13_1429_678,True,2019_Jun_13_1429,2IFC,2,KLRU16,
2IFC,39,0,39,0,10.4,-1,correct answer,0.433070299914,True,False,stimulusKLRU16_2IFC_2019_Jun_13_1429_679,stimulusKLRU16_2IFC_2019_Jun_13_1429_680,True,2019_Jun_13_1429,2IFC,2,KLRU16,
2IFC,40,0,40,0,11.6,-1,correct answer,0.367242200067,True,False,stimulusKLRU16_2IFC_2019_Jun_13_1429_681,stimulusKLRU16_2IFC_2019_Jun_13_1429_682,True,2019_Jun_13_1429,2IFC,2,KLRU16,
2IFC,41,0,41,0,9.3,-1,correct answer,0.300449599978,True,False,stimulusKLRU16_2IFC_2019_Jun_13_1429_683,stimulusKLRU16_2IFC_2019_Jun_13_1429_684,True,2019_Jun_13_1429,2IFC,2,KLRU16,
2IFC,42,0,42,0,10.4,-1,correct answer,0.20147030009,True,False,stimulusKLRU16_2IFC_2019_Jun_13_1429_685,stimulusKLRU16_2IFC_2019_Jun_13_1429_686,True,2019_Jun_13_1429,2IFC,2,KLRU16,
2IFC,43,0,43,0,8.4,-1,correct answer,0.300914600026,True,False,stimulusKLRU16_2IFC_2019_Jun_13_1429_687,stimulusKLRU16_2IFC_2019_Jun_13_1429_688,True,2019_Jun_13_1429,2IFC,2,KLRU16,
2IFC,44,0,44,0,10.4,-1,correct answer,0.234043399803,True,False,stimulusKLRU16_2IFC_2019_Jun_13_1429_689,stimulusKLRU16_2IFC_2019_Jun_13_1429_690,True,2019_Jun_13_1429,2IFC,2,KLRU16,
2IFC,45,0,45,0,10.4,-1,no answer,-1,True,False,stimulusKLRU16_2IFC_2019_Jun_13_1429_691,stimulusKLRU16_2IFC_2019_Jun_13_1429_692,True,2019_Jun_13_1429,2IFC,2,KLRU16,
2IFC,46,0,46,0,11.6,-1,correct answer,0.600691499887,False,True,stimulusKLRU16_2IFC_2019_Jun_13_1429_693,stimulusKLRU16_2IFC_2019_Jun_13_1429_694,True,2019_Jun_13_1429,2IFC,2,KLRU16,
2IFC,47,0,47,0,10.4,-1,correct answer,0.567690799944,False,True,stimulusKLRU16_2IFC_2019_Jun_13_1429_695,stimulusKLRU16_2IFC_2019_Jun_13_1429_696,True,2019_Jun_13_1429,2IFC,2,KLRU16,
2IFC,48,0,48,0,5.1,-1,correct answer,0.534318499966,True,False,stimulusKLRU16_2IFC_2019_Jun_13_1429_697,stimulusKLRU16_2IFC_2019_Jun_13_1429_698,True,2019_Jun_13_1429,2IFC,2,KLRU16,
2IFC,49,0,49,0,7.4,-1,correct answer,0.567379900021,False,True,stimulusKLRU16_2IFC_2019_Jun_13_1429_699,stimulusKLRU16_2IFC_2019_Jun_13_1429_700,True,2019_Jun_13_1429,2IFC,2,KLRU16,
2IFC,50,0,50,0,11.6,-1,correct answer,0.600112100132,False,True,stimulusKLRU16_2IFC_2019_Jun_13_1429_701,stimulusKLRU16_2IFC_2019_Jun_13_1429_702,True,2019_Jun_13_1429,2IFC,2,KLRU16,
2IFC,51,0,51,0,5.1,-1,correct answer,0.466990999877,True,False,stimulusKLRU16_2IFC_2019_Jun_13_1429_703,stimulusKLRU16_2IFC_2019_Jun_13_1429_704,True,2019_Jun_13_1429,2IFC,2,KLRU16,
2IFC,52,0,52,0,6.4,-1,correct answer,0.534220299916,True,False,stimulusKLRU16_2IFC_2019_Jun_13_1429_705,stimulusKLRU16_2IFC_2019_Jun_13_1429_706,True,2019_Jun_13_1429,2IFC,2,KLRU16,
2IFC,53,0,53,0,7.4,-1,correct answer,0.567522500176,False,True,stimulusKLRU16_2IFC_2019_Jun_13_1429_707,stimulusKLRU16_2IFC_2019_Jun_13_1429_708,True,2019_Jun_13_1429,2IFC,2,KLRU16,
2IFC,54,0,54,0,3.5,-1,correct answer,0.500403499929,True,False,stimulusKLRU16_2IFC_2019_Jun_13_1429_709,stimulusKLRU16_2IFC_2019_Jun_13_1429_710,True,2019_Jun_13_1429,2IFC,2,KLRU16,
2IFC,55,0,55,0,8.4,-1,correct answer,0.333981400123,True,False,stimulusKLRU16_2IFC_2019_Jun_13_1429_711,stimulusKLRU16_2IFC_2019_Jun_13_1429_712,True,2019_Jun_13_1429,2IFC,2,KLRU16,
2IFC,56,0,56,0,11.6,-1,correct answer,0.50162149989,False,True,stimulusKLRU16_2IFC_2019_Jun_13_1429_713,stimulusKLRU16_2IFC_2019_Jun_13_1429_714,True,2019_Jun_13_1429,2IFC,2,KLRU16,
2IFC,57,0,57,0,10.4,-1,correct answer,0.467922799988,True,False,stimulusKLRU16_2IFC_2019_Jun_13_1429_715,stimulusKLRU16_2IFC_2019_Jun_13_1429_716,True,2019_Jun_13_1429,2IFC,2,KLRU16,
2IFC,58,0,58,0,11.6,-1,correct answer,0.500695200171,True,False,stimulusKLRU16_2IFC_2019_Jun_13_1429_717,stimulusKLRU16_2IFC_2019_Jun_13_1429_718,True,2019_Jun_13_1429,2IFC,2,KLRU16,
2IFC,59,0,59,0,8.4,-1,correct answer,0.534381200094,True,False,stimulusKLRU16_2IFC_2019_Jun_13_1429_719,stimulusKLRU16_2IFC_2019_Jun_13_1429_720,True,2019_Jun_13_1429,2IFC,2,KLRU16,
2IFC,60,0,60,0,10.4,-1,correct answer,0.567619400099,True,False,stimulusKLRU16_2IFC_2019_Jun_13_1429_721,stimulusKLRU16_2IFC_2019_Jun_13_1429_722,True,2019_Jun_13_1429,2IFC,2,KLRU16,
2IFC,61,0,61,0,5.1,-1,no answer,-1,True,False,stimulusKLRU16_2IFC_2019_Jun_13_1429_723,stimulusKLRU16_2IFC_2019_Jun_13_1429_724,True,2019_Jun_13_1429,2IFC,2,KLRU16,
2IFC,62,0,62,0,7.4,-1,correct answer,0.600307699991,False,True,stimulusKLRU16_2IFC_2019_Jun_13_1429_725,stimulusKLRU16_2IFC_2019_Jun_13_1429_726,True,2019_Jun_13_1429,2IFC,2,KLRU16,
2IFC,63,0,63,0,8.4,-1,correct answer,0.566505900118,False,True,stimulusKLRU16_2IFC_2019_Jun_13_1429_727,stimulusKLRU16_2IFC_2019_Jun_13_1429_728,True,2019_Jun_13_1429,2IFC,2,KLRU16,
2IFC,64,0,64,0,5.1,-1,wrong answer,0.600444999989,True,False,stimulusKLRU16_2IFC_2019_Jun_13_1429_729,stimulusKLRU16_2IFC_2019_Jun_13_1429_730,True,2019_Jun_13_1429,2IFC,2,KLRU16,
2IFC,65,0,65,0,11.6,-1,correct answer,0.333284900058,True,False,stimulusKLRU16_2IFC_2019_Jun_13_1429_731,stimulusKLRU16_2IFC_2019_Jun_13_1429_732,True,2019_Jun_13_1429,2IFC,2,KLRU16,
2IFC,66,0,66,0,8.4,-1,correct answer,0.400664400076,True,False,stimulusKLRU16_2IFC_2019_Jun_13_1429_733,stimulusKLRU16_2IFC_2019_Jun_13_1429_734,True,2019_Jun_13_1429,2IFC,2,KLRU16,
2IFC,67,0,67,0,5.1,-1,correct answer,0.56962110009,False,True,stimulusKLRU16_2IFC_2019_Jun_13_1429_735,stimulusKLRU16_2IFC_2019_Jun_13_1429_736,True,2019_Jun_13_1429,2IFC,2,KLRU16,
2IFC,68,0,68,0,6.4,-1,correct answer,0.567613299936,True,False,stimulusKLRU16_2IFC_2019_Jun_13_1429_737,stimulusKLRU16_2IFC_2019_Jun_13_1429_738,True,2019_Jun_13_1429,2IFC,2,KLRU16,
2IFC,69,0,69,0,5.1,-1,correct answer,0.735315399943,False,True,stimulusKLRU16_2IFC_2019_Jun_13_1429_739,stimulusKLRU16_2IFC_2019_Jun_13_1429_740,True,2019_Jun_13_1429,2IFC,2,KLRU16,
2IFC,70,0,70,0,5.1,-1,wrong answer,0.699985299958,False,True,stimulusKLRU16_2IFC_2019_Jun_13_1429_741,stimulusKLRU16_2IFC_2019_Jun_13_1429_742,True,2019_Jun_13_1429,2IFC,2,KLRU16,
2IFC,71,0,71,0,11.6,-1,correct answer,0.434182199882,True,False,stimulusKLRU16_2IFC_2019_Jun_13_1429_743,stimulusKLRU16_2IFC_2019_Jun_13_1429_744,True,2019_Jun_13_1429,2IFC,2,KLRU16,
2IFC,72,0,72,0,10.4,-1,correct answer,0.500730899861,False,True,stimulusKLRU16_2IFC_2019_Jun_13_1429_745,stimulusKLRU16_2IFC_2019_Jun_13_1429_746,True,2019_Jun_13_1429,2IFC,2,KLRU16,
2IFC,73,0,73,0,7.4,-1,correct answer,0.534250299912,False,True,stimulusKLRU16_2IFC_2019_Jun_13_1429_747,stimulusKLRU16_2IFC_2019_Jun_13_1429_748,True,2019_Jun_13_1429,2IFC,2,KLRU16,
2IFC,74,0,74,0,6.4,-1,wrong answer,0.467354599852,True,False,stimulusKLRU16_2IFC_2019_Jun_13_1429_749,stimulusKLRU16_2IFC_2019_Jun_13_1429_750,True,2019_Jun_13_1429,2IFC,2,KLRU16,
2IFC,0,0,0,0,3.5,-1,wrong answer,0.6681905,False,True,stimulusKLRU16_2IFC_2019_Jun_13_1429_751,stimulusKLRU16_2IFC_2019_Jun_13_1429_752,True,2019_Jun_13_1429,2IFC,2,KLRU16,
2IFC,1,0,1,0,10.4,-1,correct answer,0.201473700115,True,False,stimulusKLRU16_2IFC_2019_Jun_13_1429_753,stimulusKLRU16_2IFC_2019_Jun_13_1429_754,True,2019_Jun_13_1429,2IFC,2,KLRU16,
2IFC,2,0,2,0,5.1,-1,correct answer,0.534336799989,False,True,stimulusKLRU16_2IFC_2019_Jun_13_1429_755,stimulusKLRU16_2IFC_2019_Jun_13_1429_756,True,2019_Jun_13_1429,2IFC,2,KLRU16,
2IFC,3,0,3,0,8.4,-1,correct answer,0.13412559987,True,False,stimulusKLRU16_2IFC_2019_Jun_13_1429_757,stimulusKLRU16_2IFC_2019_Jun_13_1429_758,True,2019_Jun_13_1429,2IFC,2,KLRU16,
2IFC,4,0,4,0,7.4,-1,correct answer,0.302082699956,True,False,stimulusKLRU16_2IFC_2019_Jun_13_1429_759,stimulusKLRU16_2IFC_2019_Jun_13_1429_760,True,2019_Jun_13_1429,2IFC,2,KLRU16,
2IFC,5,0,5,0,3.5,-1,correct answer,0.467105399817,True,False,stimulusKLRU16_2IFC_2019_Jun_13_1429_761,stimulusKLRU16_2IFC_2019_Jun_13_1429_762,True,2019_Jun_13_1429,2IFC,2,KLRU16,
2IFC,6,0,6,0,10.4,-1,correct answer,0.266667300137,True,False,stimulusKLRU16_2IFC_2019_Jun_13_1429_763,stimulusKLRU16_2IFC_2019_Jun_13_1429_764,True,2019_Jun_13_1429,2IFC,2,KLRU16,
2IFC,7,0,7,0,6.4,-1,wrong answer,0.734082099982,True,False,stimulusKLRU16_2IFC_2019_Jun_13_1429_765,stimulusKLRU16_2IFC_2019_Jun_13_1429_766,True,2019_Jun_13_1429,2IFC,2,KLRU16,
2IFC,8,0,8,0,10.4,-1,correct answer,0.665962800151,False,True,stimulusKLRU16_2IFC_2019_Jun_13_1429_767,stimulusKLRU16_2IFC_2019_Jun_13_1429_768,True,2019_Jun_13_1429,2IFC,2,KLRU16,
2IFC,9,0,9,0,9.3,-1,correct answer,0.601110300049,False,True,stimulusKLRU16_2IFC_2019_Jun_13_1429_769,stimulusKLRU16_2IFC_2019_Jun_13_1429_770,True,2019_Jun_13_1429,2IFC,2,KLRU16,
2IFC,10,0,10,0,7.4,-1,correct answer,0.500058999984,False,True,stimulusKLRU16_2IFC_2019_Jun_13_1429_771,stimulusKLRU16_2IFC_2019_Jun_13_1429_772,True,2019_Jun_13_1429,2IFC,2,KLRU16,
2IFC,11,0,11,0,11.6,-1,correct answer,0.467162100133,True,False,stimulusKLRU16_2IFC_2019_Jun_13_1429_773,stimulusKLRU16_2IFC_2019_Jun_13_1429_774,True,2019_Jun_13_1429,2IFC,2,KLRU16,
2IFC,12,0,12,0,8.4,-1,correct answer,0.400833300082,False,True,stimulusKLRU16_2IFC_2019_Jun_13_1429_775,stimulusKLRU16_2IFC_2019_Jun_13_1429_776,True,2019_Jun_13_1429,2IFC,2,KLRU16,
2IFC,13,0,13,0,6.4,-1,correct answer,0.666035400005,True,False,stimulusKLRU16_2IFC_2019_Jun_13_1429_777,stimulusKLRU16_2IFC_2019_Jun_13_1429_778,True,2019_Jun_13_1429,2IFC,2,KLRU16,
2IFC,14,0,14,0,11.6,-1,correct answer,0.567026200006,True,False,stimulusKLRU16_2IFC_2019_Jun_13_1429_779,stimulusKLRU16_2IFC_2019_Jun_13_1429_780,True,2019_Jun_13_1429,2IFC,2,KLRU16,
2IFC,15,0,15,0,11.6,-1,correct answer,0.467512300005,False,True,stimulusKLRU16_2IFC_2019_Jun_13_1429_781,stimulusKLRU16_2IFC_2019_Jun_13_1429_782,True,2019_Jun_13_1429,2IFC,2,KLRU16,
2IFC,16,0,16,0,9.3,-1,correct answer,0.434012599988,True,False,stimulusKLRU16_2IFC_2019_Jun_13_1429_783,stimulusKLRU16_2IFC_2019_Jun_13_1429_784,True,2019_Jun_13_1429,2IFC,2,KLRU16,
2IFC,17,0,17,0,6.4,-1,wrong answer,0.235111200018,True,False,stimulusKLRU16_2IFC_2019_Jun_13_1429_785,stimulusKLRU16_2IFC_2019_Jun_13_1429_786,True,2019_Jun_13_1429,2IFC,2,KLRU16,
2IFC,18,0,18,0,9.3,-1,correct answer,0.36730449996,True,False,stimulusKLRU16_2IFC_2019_Jun_13_1429_787,stimulusKLRU16_2IFC_2019_Jun_13_1429_788,True,2019_Jun_13_1429,2IFC,2,KLRU16,
2IFC,19,0,19,0,9.3,-1,correct answer,0.433764199959,True,False,stimulusKLRU16_2IFC_2019_Jun_13_1429_789,stimulusKLRU16_2IFC_2019_Jun_13_1429_790,True,2019_Jun_13_1429,2IFC,2,KLRU16,
2IFC,20,0,20,0,7.4,-1,correct answer,0.467484700028,True,False,stimulusKLRU16_2IFC_2019_Jun_13_1429_791,stimulusKLRU16_2IFC_2019_Jun_13_1429_792,True,2019_Jun_13_1429,2IFC,2,KLRU16,
2IFC,21,0,21,0,10.4,-1,correct answer,0.533997300081,True,False,stimulusKLRU16_2IFC_2019_Jun_13_1429_793,stimulusKLRU16_2IFC_2019_Jun_13_1429_794,True,2019_Jun_13_1429,2IFC,2,KLRU16,
2IFC,22,0,22,0,5.1,-1,correct answer,0.567078699823,True,False,stimulusKLRU16_2IFC_2019_Jun_13_1429_795,stimulusKLRU16_2IFC_2019_Jun_13_1429_796,True,2019_Jun_13_1429,2IFC,2,KLRU16,
2IFC,23,0,23,0,3.5,-1,wrong answer,0.568757700035,True,False,stimulusKLRU16_2IFC_2019_Jun_13_1429_797,stimulusKLRU16_2IFC_2019_Jun_13_1429_798,True,2019_Jun_13_1429,2IFC,2,KLRU16,
2IFC,24,0,24,0,9.3,-1,correct answer,0.300940499874,True,False,stimulusKLRU16_2IFC_2019_Jun_13_1429_799,stimulusKLRU16_2IFC_2019_Jun_13_1429_800,True,2019_Jun_13_1429,2IFC,2,KLRU16,
2IFC,25,0,25,0,11.6,-1,correct answer,0.534183900105,False,True,stimulusKLRU16_2IFC_2019_Jun_13_1429_801,stimulusKLRU16_2IFC_2019_Jun_13_1429_802,True,2019_Jun_13_1429,2IFC,2,KLRU16,
2IFC,26,0,26,0,3.5,-1,correct answer,0.567448199959,False,True,stimulusKLRU16_2IFC_2019_Jun_13_1429_803,stimulusKLRU16_2IFC_2019_Jun_13_1429_804,True,2019_Jun_13_1429,2IFC,2,KLRU16,
2IFC,27,0,27,0,8.4,-1,correct answer,0.401073100045,True,False,stimulusKLRU16_2IFC_2019_Jun_13_1429_805,stimulusKLRU16_2IFC_2019_Jun_13_1429_806,True,2019_Jun_13_1429,2IFC,2,KLRU16,
2IFC,28,0,28,0,6.4,-1,correct answer,0.800681099994,True,False,stimulusKLRU16_2IFC_2019_Jun_13_1429_807,stimulusKLRU16_2IFC_2019_Jun_13_1429_808,True,2019_Jun_13_1429,2IFC,2,KLRU16,
2IFC,29,0,29,0,5.1,-1,wrong answer,0.566615999909,False,True,stimulusKLRU16_2IFC_2019_Jun_13_1429_809,stimulusKLRU16_2IFC_2019_Jun_13_1429_810,True,2019_Jun_13_1429,2IFC,2,KLRU16,
2IFC,30,0,30,0,10.4,-1,correct answer,0.467659199843,False,True,stimulusKLRU16_2IFC_2019_Jun_13_1429_811,stimulusKLRU16_2IFC_2019_Jun_13_1429_812,True,2019_Jun_13_1429,2IFC,2,KLRU16,
2IFC,31,0,31,0,3.5,-1,correct answer,0.533416900085,True,False,stimulusKLRU16_2IFC_2019_Jun_13_1429_813,stimulusKLRU16_2IFC_2019_Jun_13_1429_814,True,2019_Jun_13_1429,2IFC,2,KLRU16,
2IFC,32,0,32,0,6.4,-1,correct answer,0.46729229996,False,True,stimulusKLRU16_2IFC_2019_Jun_13_1429_815,stimulusKLRU16_2IFC_2019_Jun_13_1429_816,True,2019_Jun_13_1429,2IFC,2,KLRU16,
2IFC,33,0,33,0,8.4,-1,correct answer,0.567259500036,False,True,stimulusKLRU16_2IFC_2019_Jun_13_1429_817,stimulusKLRU16_2IFC_2019_Jun_13_1429_818,True,2019_Jun_13_1429,2IFC,2,KLRU16,
2IFC,34,0,34,0,5.1,-1,correct answer,0.56665669987,False,True,stimulusKLRU16_2IFC_2019_Jun_13_1429_819,stimulusKLRU16_2IFC_2019_Jun_13_1429_820,True,2019_Jun_13_1429,2IFC,2,KLRU16,
2IFC,35,0,35,0,11.6,-1,correct answer,0.534192700172,False,True,stimulusKLRU16_2IFC_2019_Jun_13_1429_821,stimulusKLRU16_2IFC_2019_Jun_13_1429_822,True,2019_Jun_13_1429,2IFC,2,KLRU16,
2IFC,36,0,36,0,6.4,-1,correct answer,0.501220199978,True,False,stimulusKLRU16_2IFC_2019_Jun_13_1429_823,stimulusKLRU16_2IFC_2019_Jun_13_1429_824,True,2019_Jun_13_1429,2IFC,2,KLRU16,
2IFC,37,0,37,0,10.4,-1,correct answer,0.534052600153,True,False,stimulusKLRU16_2IFC_2019_Jun_13_1429_825,stimulusKLRU16_2IFC_2019_Jun_13_1429_826,True,2019_Jun_13_1429,2IFC,2,KLRU16,
2IFC,38,0,38,0,9.3,-1,correct answer,0.500441799872,False,True,stimulusKLRU16_2IFC_2019_Jun_13_1429_827,stimulusKLRU16_2IFC_2019_Jun_13_1429_828,True,2019_Jun_13_1429,2IFC,2,KLRU16,
2IFC,39,0,39,0,9.3,-1,correct answer,0.567294100067,True,False,stimulusKLRU16_2IFC_2019_Jun_13_1429_829,stimulusKLRU16_2IFC_2019_Jun_13_1429_830,True,2019_Jun_13_1429,2IFC,2,KLRU16,
2IFC,40,0,40,0,9.3,-1,correct answer,0.635116199963,False,True,stimulusKLRU16_2IFC_2019_Jun_13_1429_831,stimulusKLRU16_2IFC_2019_Jun_13_1429_832,True,2019_Jun_13_1429,2IFC,2,KLRU16,
2IFC,41,0,41,0,6.4,-1,correct answer,0.600584200118,True,False,stimulusKLRU16_2IFC_2019_Jun_13_1429_833,stimulusKLRU16_2IFC_2019_Jun_13_1429_834,True,2019_Jun_13_1429,2IFC,2,KLRU16,
2IFC,42,0,42,0,8.4,-1,correct answer,0.634363199817,True,False,stimulusKLRU16_2IFC_2019_Jun_13_1429_835,stimulusKLRU16_2IFC_2019_Jun_13_1429_836,True,2019_Jun_13_1429,2IFC,2,KLRU16,
2IFC,43,0,43,0,6.4,-1,correct answer,0.567289700033,True,False,stimulusKLRU16_2IFC_2019_Jun_13_1429_837,stimulusKLRU16_2IFC_2019_Jun_13_1429_838,True,2019_Jun_13_1429,2IFC,2,KLRU16,
2IFC,44,0,44,0,10.4,-1,correct answer,0.633317400003,False,True,stimulusKLRU16_2IFC_2019_Jun_13_1429_839,stimulusKLRU16_2IFC_2019_Jun_13_1429_840,True,2019_Jun_13_1429,2IFC,2,KLRU16,
2IFC,45,0,45,0,3.5,-1,correct answer,0.599866099888,True,False,stimulusKLRU16_2IFC_2019_Jun_13_1429_841,stimulusKLRU16_2IFC_2019_Jun_13_1429_842,True,2019_Jun_13_1429,2IFC,2,KLRU16,
2IFC,46,0,46,0,10.4,-1,correct answer,0.601201500045,True,False,stimulusKLRU16_2IFC_2019_Jun_13_1429_843,stimulusKLRU16_2IFC_2019_Jun_13_1429_844,True,2019_Jun_13_1429,2IFC,2,KLRU16,
2IFC,47,0,47,0,8.4,-1,correct answer,0.600797400111,False,True,stimulusKLRU16_2IFC_2019_Jun_13_1429_845,stimulusKLRU16_2IFC_2019_Jun_13_1429_846,True,2019_Jun_13_1429,2IFC,2,KLRU16,
2IFC,48,0,48,0,11.6,-1,correct answer,0.633861399954,True,False,stimulusKLRU16_2IFC_2019_Jun_13_1429_847,stimulusKLRU16_2IFC_2019_Jun_13_1429_848,True,2019_Jun_13_1429,2IFC,2,KLRU16,
2IFC,49,0,49,0,10.4,-1,correct answer,0.299658000004,True,False,stimulusKLRU16_2IFC_2019_Jun_13_1429_849,stimulusKLRU16_2IFC_2019_Jun_13_1429_850,True,2019_Jun_13_1429,2IFC,2,KLRU16,
2IFC,50,0,50,0,8.4,-1,correct answer,0.599155199947,True,False,stimulusKLRU16_2IFC_2019_Jun_13_1429_851,stimulusKLRU16_2IFC_2019_Jun_13_1429_852,True,2019_Jun_13_1429,2IFC,2,KLRU16,
2IFC,51,0,51,0,10.4,-1,correct answer,0.500920800027,False,True,stimulusKLRU16_2IFC_2019_Jun_13_1429_853,stimulusKLRU16_2IFC_2019_Jun_13_1429_854,True,2019_Jun_13_1429,2IFC,2,KLRU16,
2IFC,52,0,52,0,7.4,-1,correct answer,0.733620600076,False,True,stimulusKLRU16_2IFC_2019_Jun_13_1429_855,stimulusKLRU16_2IFC_2019_Jun_13_1429_856,True,2019_Jun_13_1429,2IFC,2,KLRU16,
2IFC,53,0,53,0,9.3,-1,correct answer,0.566745000193,False,True,stimulusKLRU16_2IFC_2019_Jun_13_1429_857,stimulusKLRU16_2IFC_2019_Jun_13_1429_858,True,2019_Jun_13_1429,2IFC,2,KLRU16,
2IFC,54,0,54,0,5.1,-1,correct answer,0.566534299869,False,True,stimulusKLRU16_2IFC_2019_Jun_13_1429_859,stimulusKLRU16_2IFC_2019_Jun_13_1429_860,True,2019_Jun_13_1429,2IFC,2,KLRU16,
2IFC,55,0,55,0,3.5,-1,wrong answer,0.534106399864,False,True,stimulusKLRU16_2IFC_2019_Jun_13_1429_861,stimulusKLRU16_2IFC_2019_Jun_13_1429_862,True,2019_Jun_13_1429,2IFC,2,KLRU16,
2IFC,56,0,56,0,8.4,-1,correct answer,0.568459500093,False,True,stimulusKLRU16_2IFC_2019_Jun_13_1429_863,stimulusKLRU16_2IFC_2019_Jun_13_1429_864,True,2019_Jun_13_1429,2IFC,2,KLRU16,
2IFC,57,0,57,0,10.4,-1,correct answer,0.534104199847,False,True,stimulusKLRU16_2IFC_2019_Jun_13_1429_865,stimulusKLRU16_2IFC_2019_Jun_13_1429_866,True,2019_Jun_13_1429,2IFC,2,KLRU16,
2IFC,58,0,58,0,10.4,-1,correct answer,0.468247300014,False,True,stimulusKLRU16_2IFC_2019_Jun_13_1429_867,stimulusKLRU16_2IFC_2019_Jun_13_1429_868,True,2019_Jun_13_1429,2IFC,2,KLRU16,
2IFC,59,0,59,0,9.3,-1,wrong answer,0.567280199844,True,False,stimulusKLRU16_2IFC_2019_Jun_13_1429_869,stimulusKLRU16_2IFC_2019_Jun_13_1429_870,True,2019_Jun_13_1429,2IFC,2,KLRU16,
2IFC,60,0,60,0,7.4,-1,correct answer,0.800794799812,True,False,stimulusKLRU16_2IFC_2019_Jun_13_1429_871,stimulusKLRU16_2IFC_2019_Jun_13_1429_872,True,2019_Jun_13_1429,2IFC,2,KLRU16,
2IFC,61,0,61,0,11.6,-1,correct answer,0.501095199957,True,False,stimulusKLRU16_2IFC_2019_Jun_13_1429_873,stimulusKLRU16_2IFC_2019_Jun_13_1429_874,True,2019_Jun_13_1429,2IFC,2,KLRU16,
2IFC,62,0,62,0,3.5,-1,wrong answer,0.666501799831,False,True,stimulusKLRU16_2IFC_2019_Jun_13_1429_875,stimulusKLRU16_2IFC_2019_Jun_13_1429_876,True,2019_Jun_13_1429,2IFC,2,KLRU16,
2IFC,63,0,63,0,10.4,-1,correct answer,0.366228800034,True,False,stimulusKLRU16_2IFC_2019_Jun_13_1429_877,stimulusKLRU16_2IFC_2019_Jun_13_1429_878,True,2019_Jun_13_1429,2IFC,2,KLRU16,
2IFC,64,0,64,0,6.4,-1,correct answer,0.565972399898,False,True,stimulusKLRU16_2IFC_2019_Jun_13_1429_879,stimulusKLRU16_2IFC_2019_Jun_13_1429_880,True,2019_Jun_13_1429,2IFC,2,KLRU16,
2IFC,65,0,65,0,5.1,-1,correct answer,0.600728799822,False,True,stimulusKLRU16_2IFC_2019_Jun_13_1429_881,stimulusKLRU16_2IFC_2019_Jun_13_1429_882,True,2019_Jun_13_1429,2IFC,2,KLRU16,
2IFC,66,0,66,0,3.5,-1,correct answer,0.50212339987,True,False,stimulusKLRU16_2IFC_2019_Jun_13_1429_883,stimulusKLRU16_2IFC_2019_Jun_13_1429_884,True,2019_Jun_13_1429,2IFC,2,KLRU16,
2IFC,67,0,67,0,3.5,-1,wrong answer,0.700544799911,True,False,stimulusKLRU16_2IFC_2019_Jun_13_1429_885,stimulusKLRU16_2IFC_2019_Jun_13_1429_886,True,2019_Jun_13_1429,2IFC,2,KLRU16,
2IFC,68,0,68,0,11.6,-1,correct answer,0.433652699925,True,False,stimulusKLRU16_2IFC_2019_Jun_13_1429_887,stimulusKLRU16_2IFC_2019_Jun_13_1429_888,True,2019_Jun_13_1429,2IFC,2,KLRU16,
2IFC,69,0,69,0,6.4,-1,correct answer,0.500230599893,True,False,stimulusKLRU16_2IFC_2019_Jun_13_1429_889,stimulusKLRU16_2IFC_2019_Jun_13_1429_890,True,2019_Jun_13_1429,2IFC,2,KLRU16,
2IFC,70,0,70,0,3.5,-1,correct answer,0.567790400004,True,False,stimulusKLRU16_2IFC_2019_Jun_13_1429_891,stimulusKLRU16_2IFC_2019_Jun_13_1429_892,True,2019_Jun_13_1429,2IFC,2,KLRU16,
2IFC,71,0,71,0,11.6,-1,correct answer,0.500219600042,False,True,stimulusKLRU16_2IFC_2019_Jun_13_1429_893,stimulusKLRU16_2IFC_2019_Jun_13_1429_894,True,2019_Jun_13_1429,2IFC,2,KLRU16,
2IFC,72,0,72,0,10.4,-1,correct answer,0.534044899978,False,True,stimulusKLRU16_2IFC_2019_Jun_13_1429_895,stimulusKLRU16_2IFC_2019_Jun_13_1429_896,True,2019_Jun_13_1429,2IFC,2,KLRU16,
2IFC,73,0,73,0,7.4,-1,wrong answer,0.667399399914,False,True,stimulusKLRU16_2IFC_2019_Jun_13_1429_897,stimulusKLRU16_2IFC_2019_Jun_13_1429_898,True,2019_Jun_13_1429,2IFC,2,KLRU16,
2IFC,74,0,74,0,11.6,-1,correct answer,0.300355900079,True,False,stimulusKLRU16_2IFC_2019_Jun_13_1429_899,stimulusKLRU16_2IFC_2019_Jun_13_1429_900,True,2019_Jun_13_1429,2IFC,2,KLRU16,
2IFC,0,0,0,0,11.6,-1,correct answer,0.633535400033,True,False,stimulusKLRU16_2IFC_2019_Jun_13_1429_901,stimulusKLRU16_2IFC_2019_Jun_13_1429_902,True,2019_Jun_13_1429,2IFC,2,KLRU16,
2IFC,1,0,1,0,3.5,-1,wrong answer,0.532677099807,False,True,stimulusKLRU16_2IFC_2019_Jun_13_1429_903,stimulusKLRU16_2IFC_2019_Jun_13_1429_904,True,2019_Jun_13_1429,2IFC,2,KLRU16,
2IFC,2,0,2,0,10.4,-1,correct answer,0.499939400004,False,True,stimulusKLRU16_2IFC_2019_Jun_13_1429_905,stimulusKLRU16_2IFC_2019_Jun_13_1429_906,True,2019_Jun_13_1429,2IFC,2,KLRU16,
2IFC,3,0,3,0,6.4,-1,correct answer,0.600692299893,False,True,stimulusKLRU16_2IFC_2019_Jun_13_1429_907,stimulusKLRU16_2IFC_2019_Jun_13_1429_908,True,2019_Jun_13_1429,2IFC,2,KLRU16,
2IFC,4,0,4,0,8.4,-1,correct answer,0.500718099996,True,False,stimulusKLRU16_2IFC_2019_Jun_13_1429_909,stimulusKLRU16_2IFC_2019_Jun_13_1429_910,True,2019_Jun_13_1429,2IFC,2,KLRU16,
2IFC,5,0,5,0,11.6,-1,correct answer,0.20057519991,True,False,stimulusKLRU16_2IFC_2019_Jun_13_1429_911,stimulusKLRU16_2IFC_2019_Jun_13_1429_912,True,2019_Jun_13_1429,2IFC,2,KLRU16,
2IFC,6,0,6,0,10.4,-1,correct answer,0.367210200056,True,False,stimulusKLRU16_2IFC_2019_Jun_13_1429_913,stimulusKLRU16_2IFC_2019_Jun_13_1429_914,True,2019_Jun_13_1429,2IFC,2,KLRU16,
2IFC,7,0,7,0,5.1,-1,wrong answer,0.500475500012,False,True,stimulusKLRU16_2IFC_2019_Jun_13_1429_915,stimulusKLRU16_2IFC_2019_Jun_13_1429_916,True,2019_Jun_13_1429,2IFC,2,KLRU16,
2IFC,8,0,8,0,3.5,-1,correct answer,0.50067139999,True,False,stimulusKLRU16_2IFC_2019_Jun_13_1429_917,stimulusKLRU16_2IFC_2019_Jun_13_1429_918,True,2019_Jun_13_1429,2IFC,2,KLRU16,
2IFC,9,0,9,0,8.4,-1,correct answer,0.433506800095,True,False,stimulusKLRU16_2IFC_2019_Jun_13_1429_919,stimulusKLRU16_2IFC_2019_Jun_13_1429_920,True,2019_Jun_13_1429,2IFC,2,KLRU16,
2IFC,10,0,10,0,8.4,-1,correct answer,0.700811699964,False,True,stimulusKLRU16_2IFC_2019_Jun_13_1429_921,stimulusKLRU16_2IFC_2019_Jun_13_1429_922,True,2019_Jun_13_1429,2IFC,2,KLRU16,
2IFC,11,0,11,0,11.6,-1,correct answer,0.467006900115,False,True,stimulusKLRU16_2IFC_2019_Jun_13_1429_923,stimulusKLRU16_2IFC_2019_Jun_13_1429_924,True,2019_Jun_13_1429,2IFC,2,KLRU16,
2IFC,12,0,12,0,7.4,-1,correct answer,0.463254800066,False,True,stimulusKLRU16_2IFC_2019_Jun_13_1429_925,stimulusKLRU16_2IFC_2019_Jun_13_1429_926,True,2019_Jun_13_1429,2IFC,2,KLRU16,
2IFC,13,0,13,0,8.4,-1,correct answer,0.535148099996,True,False,stimulusKLRU16_2IFC_2019_Jun_13_1429_927,stimulusKLRU16_2IFC_2019_Jun_13_1429_928,True,2019_Jun_13_1429,2IFC,2,KLRU16,
2IFC,14,0,14,0,11.6,-1,correct answer,0.500685500214,False,True,stimulusKLRU16_2IFC_2019_Jun_13_1429_929,stimulusKLRU16_2IFC_2019_Jun_13_1429_930,True,2019_Jun_13_1429,2IFC,2,KLRU16,
2IFC,15,0,15,0,3.5,-1,correct answer,0.769351999974,True,False,stimulusKLRU16_2IFC_2019_Jun_13_1429_931,stimulusKLRU16_2IFC_2019_Jun_13_1429_932,True,2019_Jun_13_1429,2IFC,2,KLRU16,
2IFC,16,0,16,0,6.4,-1,correct answer,0.562314199982,False,True,stimulusKLRU16_2IFC_2019_Jun_13_1429_933,stimulusKLRU16_2IFC_2019_Jun_13_1429_934,True,2019_Jun_13_1429,2IFC,2,KLRU16,
2IFC,17,0,17,0,7.4,-1,correct answer,0.567401299952,False,True,stimulusKLRU16_2IFC_2019_Jun_13_1429_935,stimulusKLRU16_2IFC_2019_Jun_13_1429_936,True,2019_Jun_13_1429,2IFC,2,KLRU16,
2IFC,18,0,18,0,5.1,-1,correct answer,0.566449600039,False,True,stimulusKLRU16_2IFC_2019_Jun_13_1429_937,stimulusKLRU16_2IFC_2019_Jun_13_1429_938,True,2019_Jun_13_1429,2IFC,2,KLRU16,
2IFC,19,0,19,0,3.5,-1,wrong answer,0.534597399877,False,True,stimulusKLRU16_2IFC_2019_Jun_13_1429_939,stimulusKLRU16_2IFC_2019_Jun_13_1429_940,True,2019_Jun_13_1429,2IFC,2,KLRU16,
2IFC,20,0,20,0,10.4,-1,correct answer,0.500675800024,True,False,stimulusKLRU16_2IFC_2019_Jun_13_1429_941,stimulusKLRU16_2IFC_2019_Jun_13_1429_942,True,2019_Jun_13_1429,2IFC,2,KLRU16,
2IFC,21,0,21,0,10.4,-1,correct answer,0.533542300109,True,False,stimulusKLRU16_2IFC_2019_Jun_13_1429_943,stimulusKLRU16_2IFC_2019_Jun_13_1429_944,True,2019_Jun_13_1429,2IFC,2,KLRU16,
2IFC,22,0,22,0,6.4,-1,correct answer,0.734692899976,True,False,stimulusKLRU16_2IFC_2019_Jun_13_1429_945,stimulusKLRU16_2IFC_2019_Jun_13_1429_946,True,2019_Jun_13_1429,2IFC,2,KLRU16,
2IFC,23,0,23,0,10.4,-1,correct answer,0.533958500018,True,False,stimulusKLRU16_2IFC_2019_Jun_13_1429_947,stimulusKLRU16_2IFC_2019_Jun_13_1429_948,True,2019_Jun_13_1429,2IFC,2,KLRU16,
2IFC,24,0,24,0,8.4,-1,correct answer,0.533380900044,True,False,stimulusKLRU16_2IFC_2019_Jun_13_1429_949,stimulusKLRU16_2IFC_2019_Jun_13_1429_950,True,2019_Jun_13_1429,2IFC,2,KLRU16,
2IFC,25,0,25,0,8.4,-1,correct answer,0.601301799994,False,True,stimulusKLRU16_2IFC_2019_Jun_13_1429_951,stimulusKLRU16_2IFC_2019_Jun_13_1429_952,True,2019_Jun_13_1429,2IFC,2,KLRU16,
2IFC,26,0,26,0,11.6,-1,correct answer,0.634370400105,True,False,stimulusKLRU16_2IFC_2019_Jun_13_1429_953,stimulusKLRU16_2IFC_2019_Jun_13_1429_954,True,2019_Jun_13_1429,2IFC,2,KLRU16,
2IFC,27,0,27,0,5.1,-1,wrong answer,0.600895700045,True,False,stimulusKLRU16_2IFC_2019_Jun_13_1429_955,stimulusKLRU16_2IFC_2019_Jun_13_1429_956,True,2019_Jun_13_1429,2IFC,2,KLRU16,
2IFC,28,0,28,0,10.4,-1,correct answer,0.701710300054,False,True,stimulusKLRU16_2IFC_2019_Jun_13_1429_957,stimulusKLRU16_2IFC_2019_Jun_13_1429_958,True,2019_Jun_13_1429,2IFC,2,KLRU16,
2IFC,29,0,29,0,5.1,-1,correct answer,0.533994099824,True,False,stimulusKLRU16_2IFC_2019_Jun_13_1429_959,stimulusKLRU16_2IFC_2019_Jun_13_1429_960,True,2019_Jun_13_1429,2IFC,2,KLRU16,
2IFC,30,0,30,0,6.4,-1,correct answer,0.600985700032,False,True,stimulusKLRU16_2IFC_2019_Jun_13_1429_961,stimulusKLRU16_2IFC_2019_Jun_13_1429_962,True,2019_Jun_13_1429,2IFC,2,KLRU16,
2IFC,31,0,31,0,9.3,-1,correct answer,0.501456999918,True,False,stimulusKLRU16_2IFC_2019_Jun_13_1429_963,stimulusKLRU16_2IFC_2019_Jun_13_1429_964,True,2019_Jun_13_1429,2IFC,2,KLRU16,
2IFC,32,0,32,0,9.3,-1,correct answer,0.433981300099,True,False,stimulusKLRU16_2IFC_2019_Jun_13_1429_965,stimulusKLRU16_2IFC_2019_Jun_13_1429_966,True,2019_Jun_13_1429,2IFC,2,KLRU16,
2IFC,33,0,33,0,7.4,-1,correct answer,0.60048049991,True,False,stimulusKLRU16_2IFC_2019_Jun_13_1429_967,stimulusKLRU16_2IFC_2019_Jun_13_1429_968,True,2019_Jun_13_1429,2IFC,2,KLRU16,
2IFC,34,0,34,0,5.1,-1,correct answer,0.533822299913,True,False,stimulusKLRU16_2IFC_2019_Jun_13_1429_969,stimulusKLRU16_2IFC_2019_Jun_13_1429_970,True,2019_Jun_13_1429,2IFC,2,KLRU16,
2IFC,35,0,35,0,7.4,-1,correct answer,0.568646100117,True,False,stimulusKLRU16_2IFC_2019_Jun_13_1429_971,stimulusKLRU16_2IFC_2019_Jun_13_1429_972,True,2019_Jun_13_1429,2IFC,2,KLRU16,
2IFC,36,0,36,0,8.4,-1,correct answer,0.634686600184,True,False,stimulusKLRU16_2IFC_2019_Jun_13_1429_973,stimulusKLRU16_2IFC_2019_Jun_13_1429_974,True,2019_Jun_13_1429,2IFC,2,KLRU16,
2IFC,37,0,37,0,10.4,-1,correct answer,0.567401599837,True,False,stimulusKLRU16_2IFC_2019_Jun_13_1429_975,stimulusKLRU16_2IFC_2019_Jun_13_1429_976,True,2019_Jun_13_1429,2IFC,2,KLRU16,
2IFC,38,0,38,0,10.4,-1,wrong answer,0.600720900111,True,False,stimulusKLRU16_2IFC_2019_Jun_13_1429_977,stimulusKLRU16_2IFC_2019_Jun_13_1429_978,True,2019_Jun_13_1429,2IFC,2,KLRU16,
2IFC,39,0,39,0,11.6,-1,correct answer,0.633454000112,False,True,stimulusKLRU16_2IFC_2019_Jun_13_1429_979,stimulusKLRU16_2IFC_2019_Jun_13_1429_980,True,2019_Jun_13_1429,2IFC,2,KLRU16,
2IFC,40,0,40,0,11.6,-1,correct answer,0.768311399966,False,True,stimulusKLRU16_2IFC_2019_Jun_13_1429_981,stimulusKLRU16_2IFC_2019_Jun_13_1429_982,True,2019_Jun_13_1429,2IFC,2,KLRU16,
2IFC,41,0,41,0,11.6,-1,correct answer,0.499617600115,True,False,stimulusKLRU16_2IFC_2019_Jun_13_1429_983,stimulusKLRU16_2IFC_2019_Jun_13_1429_984,True,2019_Jun_13_1429,2IFC,2,KLRU16,
2IFC,42,0,42,0,6.4,-1,correct answer,0.534057700075,True,False,stimulusKLRU16_2IFC_2019_Jun_13_1429_985,stimulusKLRU16_2IFC_2019_Jun_13_1429_986,True,2019_Jun_13_1429,2IFC,2,KLRU16,
2IFC,43,0,43,0,9.3,-1,correct answer,0.433677700115,True,False,stimulusKLRU16_2IFC_2019_Jun_13_1429_987,stimulusKLRU16_2IFC_2019_Jun_13_1429_988,True,2019_Jun_13_1429,2IFC,2,KLRU16,
2IFC,44,0,44,0,9.3,-1,correct answer,0.533810299821,False,True,stimulusKLRU16_2IFC_2019_Jun_13_1429_989,stimulusKLRU16_2IFC_2019_Jun_13_1429_990,True,2019_Jun_13_1429,2IFC,2,KLRU16,
2IFC,45,0,45,0,7.4,-1,correct answer,0.500439499971,False,True,stimulusKLRU16_2IFC_2019_Jun_13_1429_991,stimulusKLRU16_2IFC_2019_Jun_13_1429_992,True,2019_Jun_13_1429,2IFC,2,KLRU16,
2IFC,46,0,46,0,3.5,-1,correct answer,0.500256399857,False,True,stimulusKLRU16_2IFC_2019_Jun_13_1429_993,stimulusKLRU16_2IFC_2019_Jun_13_1429_994,True,2019_Jun_13_1429,2IFC,2,KLRU16,
2IFC,47,0,47,0,5.1,-1,correct answer,0.603039100068,True,False,stimulusKLRU16_2IFC_2019_Jun_13_1429_995,stimulusKLRU16_2IFC_2019_Jun_13_1429_996,True,2019_Jun_13_1429,2IFC,2,KLRU16,
2IFC,48,0,48,0,5.1,-1,correct answer,0.501021600096,False,True,stimulusKLRU16_2IFC_2019_Jun_13_1429_997,stimulusKLRU16_2IFC_2019_Jun_13_1429_998,True,2019_Jun_13_1429,2IFC,2,KLRU16,
2IFC,49,0,49,0,5.1,-1,correct answer,0.635966600152,True,False,stimulusKLRU16_2IFC_2019_Jun_13_1429_999,stimulusKLRU16_2IFC_2019_Jun_13_1429_1000,True,2019_Jun_13_1429,2IFC,2,KLRU16,
2IFC,50,0,50,0,11.6,-1,correct answer,0.501329499995,True,False,stimulusKLRU16_2IFC_2019_Jun_13_1429_1001,stimulusKLRU16_2IFC_2019_Jun_13_1429_1002,True,2019_Jun_13_1429,2IFC,2,KLRU16,
2IFC,51,0,51,0,11.6,-1,correct answer,0.535215500044,False,True,stimulusKLRU16_2IFC_2019_Jun_13_1429_1003,stimulusKLRU16_2IFC_2019_Jun_13_1429_1004,True,2019_Jun_13_1429,2IFC,2,KLRU16,
2IFC,52,0,52,0,10.4,-1,correct answer,0.600670899963,False,True,stimulusKLRU16_2IFC_2019_Jun_13_1429_1005,stimulusKLRU16_2IFC_2019_Jun_13_1429_1006,True,2019_Jun_13_1429,2IFC,2,KLRU16,
2IFC,53,0,53,0,3.5,-1,wrong answer,0.66736400011,False,True,stimulusKLRU16_2IFC_2019_Jun_13_1429_1007,stimulusKLRU16_2IFC_2019_Jun_13_1429_1008,True,2019_Jun_13_1429,2IFC,2,KLRU16,
2IFC,54,0,54,0,5.1,-1,correct answer,0.467628899962,True,False,stimulusKLRU16_2IFC_2019_Jun_13_1429_1009,stimulusKLRU16_2IFC_2019_Jun_13_1429_1010,True,2019_Jun_13_1429,2IFC,2,KLRU16,
2IFC,55,0,55,0,8.4,-1,wrong answer,0.734499300132,True,False,stimulusKLRU16_2IFC_2019_Jun_13_1429_1011,stimulusKLRU16_2IFC_2019_Jun_13_1429_1012,True,2019_Jun_13_1429,2IFC,2,KLRU16,
2IFC,56,0,56,0,7.4,-1,wrong answer,0.768065700075,False,True,stimulusKLRU16_2IFC_2019_Jun_13_1429_1013,stimulusKLRU16_2IFC_2019_Jun_13_1429_1014,True,2019_Jun_13_1429,2IFC,2,KLRU16,
2IFC,57,0,57,0,10.4,-1,correct answer,0.701343500055,True,False,stimulusKLRU16_2IFC_2019_Jun_13_1429_1015,stimulusKLRU16_2IFC_2019_Jun_13_1429_1016,True,2019_Jun_13_1429,2IFC,2,KLRU16,
2IFC,58,0,58,0,3.5,-1,correct answer,0.601031299913,True,False,stimulusKLRU16_2IFC_2019_Jun_13_1429_1017,stimulusKLRU16_2IFC_2019_Jun_13_1429_1018,True,2019_Jun_13_1429,2IFC,2,KLRU16,
2IFC,59,0,59,0,3.5,-1,correct answer,0.634189700009,True,False,stimulusKLRU16_2IFC_2019_Jun_13_1429_1019,stimulusKLRU16_2IFC_2019_Jun_13_1429_1020,True,2019_Jun_13_1429,2IFC,2,KLRU16,
2IFC,60,0,60,0,7.4,-1,correct answer,0.533203399973,True,False,stimulusKLRU16_2IFC_2019_Jun_13_1429_1021,stimulusKLRU16_2IFC_2019_Jun_13_1429_1022,True,2019_Jun_13_1429,2IFC,2,KLRU16,
2IFC,61,0,61,0,6.4,-1,correct answer,0.467777100159,True,False,stimulusKLRU16_2IFC_2019_Jun_13_1429_1023,stimulusKLRU16_2IFC_2019_Jun_13_1429_1024,True,2019_Jun_13_1429,2IFC,2,KLRU16,
2IFC,62,0,62,0,3.5,-1,correct answer,0.433993400075,True,False,stimulusKLRU16_2IFC_2019_Jun_13_1429_1025,stimulusKLRU16_2IFC_2019_Jun_13_1429_1026,True,2019_Jun_13_1429,2IFC,2,KLRU16,
2IFC,63,0,63,0,5.1,-1,wrong answer,0.701164000202,False,True,stimulusKLRU16_2IFC_2019_Jun_13_1429_1027,stimulusKLRU16_2IFC_2019_Jun_13_1429_1028,True,2019_Jun_13_1429,2IFC,2,KLRU16,
2IFC,64,0,64,0,9.3,-1,correct answer,0.469126199838,True,False,stimulusKLRU16_2IFC_2019_Jun_13_1429_1029,stimulusKLRU16_2IFC_2019_Jun_13_1429_1030,True,2019_Jun_13_1429,2IFC,2,KLRU16,
2IFC,65,0,65,0,9.3,-1,correct answer,0.467653399799,False,True,stimulusKLRU16_2IFC_2019_Jun_13_1429_1031,stimulusKLRU16_2IFC_2019_Jun_13_1429_1032,True,2019_Jun_13_1429,2IFC,2,KLRU16,
2IFC,66,0,66,0,8.4,-1,correct answer,0.635378999868,False,True,stimulusKLRU16_2IFC_2019_Jun_13_1429_1033,stimulusKLRU16_2IFC_2019_Jun_13_1429_1034,True,2019_Jun_13_1429,2IFC,2,KLRU16,
2IFC,67,0,67,0,9.3,-1,wrong answer,0.734700100031,True,False,stimulusKLRU16_2IFC_2019_Jun_13_1429_1035,stimulusKLRU16_2IFC_2019_Jun_13_1429_1036,True,2019_Jun_13_1429,2IFC,2,KLRU16,
2IFC,68,0,68,0,10.4,-1,correct answer,0.500094299903,True,False,stimulusKLRU16_2IFC_2019_Jun_13_1429_1037,stimulusKLRU16_2IFC_2019_Jun_13_1429_1038,True,2019_Jun_13_1429,2IFC,2,KLRU16,
2IFC,69,0,69,0,5.1,-1,correct answer,0.665978400037,False,True,stimulusKLRU16_2IFC_2019_Jun_13_1429_1039,stimulusKLRU16_2IFC_2019_Jun_13_1429_1040,True,2019_Jun_13_1429,2IFC,2,KLRU16,
2IFC,70,0,70,0,10.4,-1,correct answer,0.734232200077,False,True,stimulusKLRU16_2IFC_2019_Jun_13_1429_1041,stimulusKLRU16_2IFC_2019_Jun_13_1429_1042,True,2019_Jun_13_1429,2IFC,2,KLRU16,
2IFC,71,0,71,0,7.4,-1,correct answer,0.533527299995,True,False,stimulusKLRU16_2IFC_2019_Jun_13_1429_1043,stimulusKLRU16_2IFC_2019_Jun_13_1429_1044,True,2019_Jun_13_1429,2IFC,2,KLRU16,
2IFC,72,0,72,0,3.5,-1,correct answer,0.667740100063,False,True,stimulusKLRU16_2IFC_2019_Jun_13_1429_1045,stimulusKLRU16_2IFC_2019_Jun_13_1429_1046,True,2019_Jun_13_1429,2IFC,2,KLRU16,
2IFC,73,0,73,0,10.4,-1,correct answer,0.432448100066,True,False,stimulusKLRU16_2IFC_2019_Jun_13_1429_1047,stimulusKLRU16_2IFC_2019_Jun_13_1429_1048,True,2019_Jun_13_1429,2IFC,2,KLRU16,
2IFC,74,0,74,0,6.4,-1,correct answer,0.567165600136,True,False,stimulusKLRU16_2IFC_2019_Jun_13_1429_1049,stimulusKLRU16_2IFC_2019_Jun_13_1429_1050,True,2019_Jun_13_1429,2IFC,2,KLRU16,
2IFC,0,0,0,0,8.4,-1,correct answer,0.501456099795,True,False,stimulusKLRU16_2IFC_2019_Jun_13_1429_1051,stimulusKLRU16_2IFC_2019_Jun_13_1429_1052,True,2019_Jun_13_1429,2IFC,2,KLRU16,
2IFC,1,0,1,0,8.4,-1,correct answer,0.501481700223,False,True,stimulusKLRU16_2IFC_2019_Jun_13_1429_1053,stimulusKLRU16_2IFC_2019_Jun_13_1429_1054,True,2019_Jun_13_1429,2IFC,2,KLRU16,
2IFC,2,0,2,0,11.6,-1,correct answer,0.266984699992,True,False,stimulusKLRU16_2IFC_2019_Jun_13_1429_1055,stimulusKLRU16_2IFC_2019_Jun_13_1429_1056,True,2019_Jun_13_1429,2IFC,2,KLRU16,
2IFC,3,0,3,0,5.1,-1,correct answer,0.400453399867,True,False,stimulusKLRU16_2IFC_2019_Jun_13_1429_1057,stimulusKLRU16_2IFC_2019_Jun_13_1429_1058,True,2019_Jun_13_1429,2IFC,2,KLRU16,
2IFC,4,0,4,0,7.4,-1,correct answer,0.501169600058,True,False,stimulusKLRU16_2IFC_2019_Jun_13_1429_1059,stimulusKLRU16_2IFC_2019_Jun_13_1429_1060,True,2019_Jun_13_1429,2IFC,2,KLRU16,
2IFC,5,0,5,0,5.1,-1,correct answer,0.600787200034,False,True,stimulusKLRU16_2IFC_2019_Jun_13_1429_1061,stimulusKLRU16_2IFC_2019_Jun_13_1429_1062,True,2019_Jun_13_1429,2IFC,2,KLRU16,
2IFC,6,0,6,0,8.4,-1,wrong answer,0.500774199842,False,True,stimulusKLRU16_2IFC_2019_Jun_13_1429_1063,stimulusKLRU16_2IFC_2019_Jun_13_1429_1064,True,2019_Jun_13_1429,2IFC,2,KLRU16,
2IFC,7,0,7,0,3.5,-1,correct answer,0.50027259998,True,False,stimulusKLRU16_2IFC_2019_Jun_13_1429_1065,stimulusKLRU16_2IFC_2019_Jun_13_1429_1066,True,2019_Jun_13_1429,2IFC,2,KLRU16,
2IFC,8,0,8,0,3.5,-1,correct answer,0.567576200003,False,True,stimulusKLRU16_2IFC_2019_Jun_13_1429_1067,stimulusKLRU16_2IFC_2019_Jun_13_1429_1068,True,2019_Jun_13_1429,2IFC,2,KLRU16,
2IFC,9,0,9,0,7.4,-1,correct answer,0.334340400063,True,False,stimulusKLRU16_2IFC_2019_Jun_13_1429_1069,stimulusKLRU16_2IFC_2019_Jun_13_1429_1070,True,2019_Jun_13_1429,2IFC,2,KLRU16,
2IFC,10,0,10,0,5.1,-1,wrong answer,0.501056700014,False,True,stimulusKLRU16_2IFC_2019_Jun_13_1429_1071,stimulusKLRU16_2IFC_2019_Jun_13_1429_1072,True,2019_Jun_13_1429,2IFC,2,KLRU16,
2IFC,11,0,11,0,10.4,-1,correct answer,0.500575099839,True,False,stimulusKLRU16_2IFC_2019_Jun_13_1429_1073,stimulusKLRU16_2IFC_2019_Jun_13_1429_1074,True,2019_Jun_13_1429,2IFC,2,KLRU16,
2IFC,12,0,12,0,6.4,-1,correct answer,0.567393400008,False,True,stimulusKLRU16_2IFC_2019_Jun_13_1429_1075,stimulusKLRU16_2IFC_2019_Jun_13_1429_1076,True,2019_Jun_13_1429,2IFC,2,KLRU16,
2IFC,13,0,13,0,11.6,-1,correct answer,0.600441500079,True,False,stimulusKLRU16_2IFC_2019_Jun_13_1429_1077,stimulusKLRU16_2IFC_2019_Jun_13_1429_1078,True,2019_Jun_13_1429,2IFC,2,KLRU16,
2IFC,14,0,14,0,5.1,-1,correct answer,0.667437999975,True,False,stimulusKLRU16_2IFC_2019_Jun_13_1429_1079,stimulusKLRU16_2IFC_2019_Jun_13_1429_1080,True,2019_Jun_13_1429,2IFC,2,KLRU16,
2IFC,15,0,15,0,10.4,-1,correct answer,0.46738619986,True,False,stimulusKLRU16_2IFC_2019_Jun_13_1429_1081,stimulusKLRU16_2IFC_2019_Jun_13_1429_1082,True,2019_Jun_13_1429,2IFC,2,KLRU16,
2IFC,16,0,16,0,8.4,-1,wrong answer,0.634449600009,False,True,stimulusKLRU16_2IFC_2019_Jun_13_1429_1083,stimulusKLRU16_2IFC_2019_Jun_13_1429_1084,True,2019_Jun_13_1429,2IFC,2,KLRU16,
2IFC,17,0,17,0,5.1,-1,wrong answer,0.700716800056,False,True,stimulusKLRU16_2IFC_2019_Jun_13_1429_1085,stimulusKLRU16_2IFC_2019_Jun_13_1429_1086,True,2019_Jun_13_1429,2IFC,2,KLRU16,
2IFC,18,0,18,0,7.4,-1,correct answer,0.633912299993,True,False,stimulusKLRU16_2IFC_2019_Jun_13_1429_1087,stimulusKLRU16_2IFC_2019_Jun_13_1429_1088,True,2019_Jun_13_1429,2IFC,2,KLRU16,
2IFC,19,0,19,0,10.4,-1,correct answer,0.466682799859,True,False,stimulusKLRU16_2IFC_2019_Jun_13_1429_1089,stimulusKLRU16_2IFC_2019_Jun_13_1429_1090,True,2019_Jun_13_1429,2IFC,2,KLRU16,
2IFC,20,0,20,0,11.6,-1,correct answer,0.333230399992,True,False,stimulusKLRU16_2IFC_2019_Jun_13_1429_1091,stimulusKLRU16_2IFC_2019_Jun_13_1429_1092,True,2019_Jun_13_1429,2IFC,2,KLRU16,
2IFC,21,0,21,0,6.4,-1,correct answer,0.467392599909,False,True,stimulusKLRU16_2IFC_2019_Jun_13_1429_1093,stimulusKLRU16_2IFC_2019_Jun_13_1429_1094,True,2019_Jun_13_1429,2IFC,2,KLRU16,
2IFC,22,0,22,0,9.3,-1,correct answer,0.467324499972,True,False,stimulusKLRU16_2IFC_2019_Jun_13_1429_1095,stimulusKLRU16_2IFC_2019_Jun_13_1429_1096,True,2019_Jun_13_1429,2IFC,2,KLRU16,
2IFC,23,0,23,0,3.5,-1,correct answer,0.600461099995,True,False,stimulusKLRU16_2IFC_2019_Jun_13_1429_1097,stimulusKLRU16_2IFC_2019_Jun_13_1429_1098,True,2019_Jun_13_1429,2IFC,2,KLRU16,
2IFC,24,0,24,0,5.1,-1,correct answer,0.500839199871,True,False,stimulusKLRU16_2IFC_2019_Jun_13_1429_1099,stimulusKLRU16_2IFC_2019_Jun_13_1429_1100,True,2019_Jun_13_1429,2IFC,2,KLRU16,
