Task,trials.thisRepN,trials.thisTrialN,trials.thisN,trials.thisIndex,signal_intensity,constant Value,response,time_response,signal_on_stimuluspos1,signal_on_stimuluspos2,stimulus_name_pos1,stimulus_name_pos2,random_intensity,date,expName,session,participant,
2IFC,0,0,0,0,11.6,-1,correct answer,0.565631699981,False,True,stimulusKLRU16_2IFC_2019_Jun_17_1609_1,stimulusKLRU16_2IFC_2019_Jun_17_1609_2,False,2019_Jun_17_1609,2IFC,3,KLRU16,
2IFC,1,0,1,0,11.6,-1,correct answer,0.500356999983,False,True,stimulusKLRU16_2IFC_2019_Jun_17_1609_3,stimulusKLRU16_2IFC_2019_Jun_17_1609_4,False,2019_Jun_17_1609,2IFC,3,KLRU16,
2IFC,2,0,2,0,11.6,-1,correct answer,0.5339561,False,True,stimulusKLRU16_2IFC_2019_Jun_17_1609_5,stimulusKLRU16_2IFC_2019_Jun_17_1609_6,False,2019_Jun_17_1609,2IFC,3,KLRU16,
2IFC,3,0,3,0,11.6,-1,correct answer,0.467190199997,False,True,stimulusKLRU16_2IFC_2019_Jun_17_1609_7,stimulusKLRU16_2IFC_2019_Jun_17_1609_8,False,2019_Jun_17_1609,2IFC,3,KLRU16,
2IFC,4,0,4,0,11.6,-1,correct answer,0.567521100049,False,True,stimulusKLRU16_2IFC_2019_Jun_17_1609_9,stimulusKLRU16_2IFC_2019_Jun_17_1609_10,False,2019_Jun_17_1609,2IFC,3,KLRU16,
2IFC,5,0,5,0,11.6,-1,correct answer,0.533693099977,False,True,stimulusKLRU16_2IFC_2019_Jun_17_1609_11,stimulusKLRU16_2IFC_2019_Jun_17_1609_12,False,2019_Jun_17_1609,2IFC,3,KLRU16,
2IFC,6,0,6,0,11.6,-1,correct answer,0.534722400014,False,True,stimulusKLRU16_2IFC_2019_Jun_17_1609_13,stimulusKLRU16_2IFC_2019_Jun_17_1609_14,False,2019_Jun_17_1609,2IFC,3,KLRU16,
2IFC,7,0,7,0,11.6,-1,correct answer,0.500571299985,True,False,stimulusKLRU16_2IFC_2019_Jun_17_1609_15,stimulusKLRU16_2IFC_2019_Jun_17_1609_16,False,2019_Jun_17_1609,2IFC,3,KLRU16,
2IFC,8,0,8,0,11.6,-1,correct answer,0.467370999977,False,True,stimulusKLRU16_2IFC_2019_Jun_17_1609_17,stimulusKLRU16_2IFC_2019_Jun_17_1609_18,False,2019_Jun_17_1609,2IFC,3,KLRU16,
2IFC,9,0,9,0,11.6,-1,wrong answer,0.599173200026,False,True,stimulusKLRU16_2IFC_2019_Jun_17_1609_19,stimulusKLRU16_2IFC_2019_Jun_17_1609_20,False,2019_Jun_17_1609,2IFC,3,KLRU16,
2IFC,10,0,10,0,11.6,-1,correct answer,0.600383599987,True,False,stimulusKLRU16_2IFC_2019_Jun_17_1609_21,stimulusKLRU16_2IFC_2019_Jun_17_1609_22,False,2019_Jun_17_1609,2IFC,3,KLRU16,
2IFC,11,0,11,0,11.6,-1,correct answer,0.600033499999,False,True,stimulusKLRU16_2IFC_2019_Jun_17_1609_23,stimulusKLRU16_2IFC_2019_Jun_17_1609_24,False,2019_Jun_17_1609,2IFC,3,KLRU16,
2IFC,12,0,12,0,11.6,-1,correct answer,0.700656400004,False,True,stimulusKLRU16_2IFC_2019_Jun_17_1609_25,stimulusKLRU16_2IFC_2019_Jun_17_1609_26,False,2019_Jun_17_1609,2IFC,3,KLRU16,
2IFC,13,0,13,0,11.6,-1,correct answer,0.43374529999,True,False,stimulusKLRU16_2IFC_2019_Jun_17_1609_27,stimulusKLRU16_2IFC_2019_Jun_17_1609_28,False,2019_Jun_17_1609,2IFC,3,KLRU16,
2IFC,14,0,14,0,11.6,-1,correct answer,0.534134900023,False,True,stimulusKLRU16_2IFC_2019_Jun_17_1609_29,stimulusKLRU16_2IFC_2019_Jun_17_1609_30,False,2019_Jun_17_1609,2IFC,3,KLRU16,
2IFC,15,0,15,0,11.6,-1,correct answer,0.533950800018,False,True,stimulusKLRU16_2IFC_2019_Jun_17_1609_31,stimulusKLRU16_2IFC_2019_Jun_17_1609_32,False,2019_Jun_17_1609,2IFC,3,KLRU16,
2IFC,16,0,16,0,11.6,-1,correct answer,0.33413610002,True,False,stimulusKLRU16_2IFC_2019_Jun_17_1609_33,stimulusKLRU16_2IFC_2019_Jun_17_1609_34,False,2019_Jun_17_1609,2IFC,3,KLRU16,
2IFC,17,0,17,0,11.6,-1,correct answer,0.533806900028,False,True,stimulusKLRU16_2IFC_2019_Jun_17_1609_35,stimulusKLRU16_2IFC_2019_Jun_17_1609_36,False,2019_Jun_17_1609,2IFC,3,KLRU16,
2IFC,18,0,18,0,11.6,-1,correct answer,0.50055539998,False,True,stimulusKLRU16_2IFC_2019_Jun_17_1609_37,stimulusKLRU16_2IFC_2019_Jun_17_1609_38,False,2019_Jun_17_1609,2IFC,3,KLRU16,
2IFC,19,0,19,0,11.6,-1,correct answer,0.533985100046,False,True,stimulusKLRU16_2IFC_2019_Jun_17_1609_39,stimulusKLRU16_2IFC_2019_Jun_17_1609_40,False,2019_Jun_17_1609,2IFC,3,KLRU16,
2IFC,20,0,20,0,11.6,-1,correct answer,0.433762100001,True,False,stimulusKLRU16_2IFC_2019_Jun_17_1609_41,stimulusKLRU16_2IFC_2019_Jun_17_1609_42,False,2019_Jun_17_1609,2IFC,3,KLRU16,
2IFC,21,0,21,0,11.6,-1,correct answer,0.500458900002,False,True,stimulusKLRU16_2IFC_2019_Jun_17_1609_43,stimulusKLRU16_2IFC_2019_Jun_17_1609_44,False,2019_Jun_17_1609,2IFC,3,KLRU16,
2IFC,22,0,22,0,11.6,-1,correct answer,0.566859700019,False,True,stimulusKLRU16_2IFC_2019_Jun_17_1609_45,stimulusKLRU16_2IFC_2019_Jun_17_1609_46,False,2019_Jun_17_1609,2IFC,3,KLRU16,
2IFC,23,0,23,0,11.6,-1,correct answer,0.469627399987,False,True,stimulusKLRU16_2IFC_2019_Jun_17_1609_47,stimulusKLRU16_2IFC_2019_Jun_17_1609_48,False,2019_Jun_17_1609,2IFC,3,KLRU16,
2IFC,24,0,24,0,11.6,-1,correct answer,0.434024000017,False,True,stimulusKLRU16_2IFC_2019_Jun_17_1609_49,stimulusKLRU16_2IFC_2019_Jun_17_1609_50,False,2019_Jun_17_1609,2IFC,3,KLRU16,
2IFC,25,0,25,0,11.6,-1,correct answer,0.701082999993,False,True,stimulusKLRU16_2IFC_2019_Jun_17_1609_51,stimulusKLRU16_2IFC_2019_Jun_17_1609_52,False,2019_Jun_17_1609,2IFC,3,KLRU16,
2IFC,26,0,26,0,11.6,-1,correct answer,0.36735070002,True,False,stimulusKLRU16_2IFC_2019_Jun_17_1609_53,stimulusKLRU16_2IFC_2019_Jun_17_1609_54,False,2019_Jun_17_1609,2IFC,3,KLRU16,
2IFC,27,0,27,0,11.6,-1,correct answer,0.500604000001,False,True,stimulusKLRU16_2IFC_2019_Jun_17_1609_55,stimulusKLRU16_2IFC_2019_Jun_17_1609_56,False,2019_Jun_17_1609,2IFC,3,KLRU16,
2IFC,28,0,28,0,11.6,-1,correct answer,0.367101300042,True,False,stimulusKLRU16_2IFC_2019_Jun_17_1609_57,stimulusKLRU16_2IFC_2019_Jun_17_1609_58,False,2019_Jun_17_1609,2IFC,3,KLRU16,
2IFC,29,0,29,0,11.6,-1,correct answer,0.468741899997,True,False,stimulusKLRU16_2IFC_2019_Jun_17_1609_59,stimulusKLRU16_2IFC_2019_Jun_17_1609_60,False,2019_Jun_17_1609,2IFC,3,KLRU16,
2IFC,30,0,30,0,11.6,-1,correct answer,0.567148700007,False,True,stimulusKLRU16_2IFC_2019_Jun_17_1609_61,stimulusKLRU16_2IFC_2019_Jun_17_1609_62,False,2019_Jun_17_1609,2IFC,3,KLRU16,
2IFC,31,0,31,0,11.6,-1,correct answer,0.667458500015,False,True,stimulusKLRU16_2IFC_2019_Jun_17_1609_63,stimulusKLRU16_2IFC_2019_Jun_17_1609_64,False,2019_Jun_17_1609,2IFC,3,KLRU16,
2IFC,32,0,32,0,11.6,-1,correct answer,0.434192099958,True,False,stimulusKLRU16_2IFC_2019_Jun_17_1609_65,stimulusKLRU16_2IFC_2019_Jun_17_1609_66,False,2019_Jun_17_1609,2IFC,3,KLRU16,
2IFC,33,0,33,0,11.6,-1,correct answer,0.600528399984,False,True,stimulusKLRU16_2IFC_2019_Jun_17_1609_67,stimulusKLRU16_2IFC_2019_Jun_17_1609_68,False,2019_Jun_17_1609,2IFC,3,KLRU16,
2IFC,34,0,34,0,11.6,-1,correct answer,0.534054699994,True,False,stimulusKLRU16_2IFC_2019_Jun_17_1609_69,stimulusKLRU16_2IFC_2019_Jun_17_1609_70,False,2019_Jun_17_1609,2IFC,3,KLRU16,
2IFC,35,0,35,0,11.6,-1,correct answer,0.434036899998,True,False,stimulusKLRU16_2IFC_2019_Jun_17_1609_71,stimulusKLRU16_2IFC_2019_Jun_17_1609_72,False,2019_Jun_17_1609,2IFC,3,KLRU16,
2IFC,36,0,36,0,11.6,-1,correct answer,0.334318700014,True,False,stimulusKLRU16_2IFC_2019_Jun_17_1609_73,stimulusKLRU16_2IFC_2019_Jun_17_1609_74,False,2019_Jun_17_1609,2IFC,3,KLRU16,
2IFC,37,0,37,0,11.6,-1,correct answer,0.434044299996,True,False,stimulusKLRU16_2IFC_2019_Jun_17_1609_75,stimulusKLRU16_2IFC_2019_Jun_17_1609_76,False,2019_Jun_17_1609,2IFC,3,KLRU16,
2IFC,38,0,38,0,11.6,-1,correct answer,0.333790600009,True,False,stimulusKLRU16_2IFC_2019_Jun_17_1609_77,stimulusKLRU16_2IFC_2019_Jun_17_1609_78,False,2019_Jun_17_1609,2IFC,3,KLRU16,
2IFC,39,0,39,0,11.6,-1,correct answer,0.400494400004,True,False,stimulusKLRU16_2IFC_2019_Jun_17_1609_79,stimulusKLRU16_2IFC_2019_Jun_17_1609_80,False,2019_Jun_17_1609,2IFC,3,KLRU16,
2IFC,40,0,40,0,11.6,-1,correct answer,0.500844099966,False,True,stimulusKLRU16_2IFC_2019_Jun_17_1609_81,stimulusKLRU16_2IFC_2019_Jun_17_1609_82,False,2019_Jun_17_1609,2IFC,3,KLRU16,
2IFC,41,0,41,0,11.6,-1,correct answer,0.300528599997,True,False,stimulusKLRU16_2IFC_2019_Jun_17_1609_83,stimulusKLRU16_2IFC_2019_Jun_17_1609_84,False,2019_Jun_17_1609,2IFC,3,KLRU16,
2IFC,42,0,42,0,11.6,-1,correct answer,0.500907900045,False,True,stimulusKLRU16_2IFC_2019_Jun_17_1609_85,stimulusKLRU16_2IFC_2019_Jun_17_1609_86,False,2019_Jun_17_1609,2IFC,3,KLRU16,
2IFC,43,0,43,0,11.6,-1,correct answer,0.501188799972,True,False,stimulusKLRU16_2IFC_2019_Jun_17_1609_87,stimulusKLRU16_2IFC_2019_Jun_17_1609_88,False,2019_Jun_17_1609,2IFC,3,KLRU16,
2IFC,44,0,44,0,11.6,-1,correct answer,0.534573199984,False,True,stimulusKLRU16_2IFC_2019_Jun_17_1609_89,stimulusKLRU16_2IFC_2019_Jun_17_1609_90,False,2019_Jun_17_1609,2IFC,3,KLRU16,
2IFC,45,0,45,0,11.6,-1,correct answer,0.367274700024,True,False,stimulusKLRU16_2IFC_2019_Jun_17_1609_91,stimulusKLRU16_2IFC_2019_Jun_17_1609_92,False,2019_Jun_17_1609,2IFC,3,KLRU16,
2IFC,46,0,46,0,11.6,-1,correct answer,0.400619099964,True,False,stimulusKLRU16_2IFC_2019_Jun_17_1609_93,stimulusKLRU16_2IFC_2019_Jun_17_1609_94,False,2019_Jun_17_1609,2IFC,3,KLRU16,
2IFC,47,0,47,0,11.6,-1,correct answer,0.467305700004,True,False,stimulusKLRU16_2IFC_2019_Jun_17_1609_95,stimulusKLRU16_2IFC_2019_Jun_17_1609_96,False,2019_Jun_17_1609,2IFC,3,KLRU16,
2IFC,48,0,48,0,11.6,-1,correct answer,0.400609300006,True,False,stimulusKLRU16_2IFC_2019_Jun_17_1609_97,stimulusKLRU16_2IFC_2019_Jun_17_1609_98,False,2019_Jun_17_1609,2IFC,3,KLRU16,
2IFC,49,0,49,0,11.6,-1,correct answer,0.333901899983,True,False,stimulusKLRU16_2IFC_2019_Jun_17_1609_99,stimulusKLRU16_2IFC_2019_Jun_17_1609_100,False,2019_Jun_17_1609,2IFC,3,KLRU16,
2IFC,50,0,50,0,11.6,-1,correct answer,0.70063029998,False,True,stimulusKLRU16_2IFC_2019_Jun_17_1609_101,stimulusKLRU16_2IFC_2019_Jun_17_1609_102,False,2019_Jun_17_1609,2IFC,3,KLRU16,
2IFC,51,0,51,0,11.6,-1,correct answer,0.534663900035,False,True,stimulusKLRU16_2IFC_2019_Jun_17_1609_103,stimulusKLRU16_2IFC_2019_Jun_17_1609_104,False,2019_Jun_17_1609,2IFC,3,KLRU16,
2IFC,52,0,52,0,11.6,-1,correct answer,0.667735099967,False,True,stimulusKLRU16_2IFC_2019_Jun_17_1609_105,stimulusKLRU16_2IFC_2019_Jun_17_1609_106,False,2019_Jun_17_1609,2IFC,3,KLRU16,
2IFC,53,0,53,0,11.6,-1,correct answer,0.367142300005,True,False,stimulusKLRU16_2IFC_2019_Jun_17_1609_107,stimulusKLRU16_2IFC_2019_Jun_17_1609_108,False,2019_Jun_17_1609,2IFC,3,KLRU16,
2IFC,54,0,54,0,11.6,-1,correct answer,0.500523199968,True,False,stimulusKLRU16_2IFC_2019_Jun_17_1609_109,stimulusKLRU16_2IFC_2019_Jun_17_1609_110,False,2019_Jun_17_1609,2IFC,3,KLRU16,
2IFC,55,0,55,0,11.6,-1,correct answer,0.534922699968,False,True,stimulusKLRU16_2IFC_2019_Jun_17_1609_111,stimulusKLRU16_2IFC_2019_Jun_17_1609_112,False,2019_Jun_17_1609,2IFC,3,KLRU16,
2IFC,56,0,56,0,11.6,-1,correct answer,0.533504600055,False,True,stimulusKLRU16_2IFC_2019_Jun_17_1609_113,stimulusKLRU16_2IFC_2019_Jun_17_1609_114,False,2019_Jun_17_1609,2IFC,3,KLRU16,
2IFC,57,0,57,0,11.6,-1,correct answer,0.60086190002,False,True,stimulusKLRU16_2IFC_2019_Jun_17_1609_115,stimulusKLRU16_2IFC_2019_Jun_17_1609_116,False,2019_Jun_17_1609,2IFC,3,KLRU16,
2IFC,58,0,58,0,11.6,-1,correct answer,0.667184200021,False,True,stimulusKLRU16_2IFC_2019_Jun_17_1609_117,stimulusKLRU16_2IFC_2019_Jun_17_1609_118,False,2019_Jun_17_1609,2IFC,3,KLRU16,
2IFC,59,0,59,0,11.6,-1,correct answer,0.434389200003,True,False,stimulusKLRU16_2IFC_2019_Jun_17_1609_119,stimulusKLRU16_2IFC_2019_Jun_17_1609_120,False,2019_Jun_17_1609,2IFC,3,KLRU16,
2IFC,60,0,60,0,11.6,-1,correct answer,0.500994200003,False,True,stimulusKLRU16_2IFC_2019_Jun_17_1609_121,stimulusKLRU16_2IFC_2019_Jun_17_1609_122,False,2019_Jun_17_1609,2IFC,3,KLRU16,
2IFC,61,0,61,0,11.6,-1,correct answer,0.500762099982,False,True,stimulusKLRU16_2IFC_2019_Jun_17_1609_123,stimulusKLRU16_2IFC_2019_Jun_17_1609_124,False,2019_Jun_17_1609,2IFC,3,KLRU16,
2IFC,62,0,62,0,11.6,-1,correct answer,0.703124100051,False,True,stimulusKLRU16_2IFC_2019_Jun_17_1609_125,stimulusKLRU16_2IFC_2019_Jun_17_1609_126,False,2019_Jun_17_1609,2IFC,3,KLRU16,
2IFC,63,0,63,0,11.6,-1,correct answer,0.534803699993,False,True,stimulusKLRU16_2IFC_2019_Jun_17_1609_127,stimulusKLRU16_2IFC_2019_Jun_17_1609_128,False,2019_Jun_17_1609,2IFC,3,KLRU16,
2IFC,64,0,64,0,11.6,-1,correct answer,0.534098599979,True,False,stimulusKLRU16_2IFC_2019_Jun_17_1609_129,stimulusKLRU16_2IFC_2019_Jun_17_1609_130,False,2019_Jun_17_1609,2IFC,3,KLRU16,
2IFC,65,0,65,0,11.6,-1,correct answer,0.66733029997,False,True,stimulusKLRU16_2IFC_2019_Jun_17_1609_131,stimulusKLRU16_2IFC_2019_Jun_17_1609_132,False,2019_Jun_17_1609,2IFC,3,KLRU16,
2IFC,66,0,66,0,11.6,-1,correct answer,0.600348000007,True,False,stimulusKLRU16_2IFC_2019_Jun_17_1609_133,stimulusKLRU16_2IFC_2019_Jun_17_1609_134,False,2019_Jun_17_1609,2IFC,3,KLRU16,
2IFC,67,0,67,0,11.6,-1,correct answer,0.567582499993,True,False,stimulusKLRU16_2IFC_2019_Jun_17_1609_135,stimulusKLRU16_2IFC_2019_Jun_17_1609_136,False,2019_Jun_17_1609,2IFC,3,KLRU16,
2IFC,68,0,68,0,11.6,-1,correct answer,0.634356900002,True,False,stimulusKLRU16_2IFC_2019_Jun_17_1609_137,stimulusKLRU16_2IFC_2019_Jun_17_1609_138,False,2019_Jun_17_1609,2IFC,3,KLRU16,
2IFC,69,0,69,0,11.6,-1,correct answer,0.600679000025,False,True,stimulusKLRU16_2IFC_2019_Jun_17_1609_139,stimulusKLRU16_2IFC_2019_Jun_17_1609_140,False,2019_Jun_17_1609,2IFC,3,KLRU16,
2IFC,70,0,70,0,11.6,-1,correct answer,0.56731199997,True,False,stimulusKLRU16_2IFC_2019_Jun_17_1609_141,stimulusKLRU16_2IFC_2019_Jun_17_1609_142,False,2019_Jun_17_1609,2IFC,3,KLRU16,
2IFC,71,0,71,0,11.6,-1,correct answer,0.500439900032,True,False,stimulusKLRU16_2IFC_2019_Jun_17_1609_143,stimulusKLRU16_2IFC_2019_Jun_17_1609_144,False,2019_Jun_17_1609,2IFC,3,KLRU16,
2IFC,72,0,72,0,11.6,-1,correct answer,0.60160970001,True,False,stimulusKLRU16_2IFC_2019_Jun_17_1609_145,stimulusKLRU16_2IFC_2019_Jun_17_1609_146,False,2019_Jun_17_1609,2IFC,3,KLRU16,
2IFC,73,0,73,0,11.6,-1,correct answer,0.534095500014,True,False,stimulusKLRU16_2IFC_2019_Jun_17_1609_147,stimulusKLRU16_2IFC_2019_Jun_17_1609_148,False,2019_Jun_17_1609,2IFC,3,KLRU16,
2IFC,74,0,74,0,11.6,-1,correct answer,0.500564099988,False,True,stimulusKLRU16_2IFC_2019_Jun_17_1609_149,stimulusKLRU16_2IFC_2019_Jun_17_1609_150,False,2019_Jun_17_1609,2IFC,3,KLRU16,
2IFC,0,0,0,0,10.4,-1,correct answer,0.468887800002,True,False,stimulusKLRU16_2IFC_2019_Jun_17_1609_151,stimulusKLRU16_2IFC_2019_Jun_17_1609_152,False,2019_Jun_17_1609,2IFC,3,KLRU16,
2IFC,1,0,1,0,10.4,-1,correct answer,0.567324500007,True,False,stimulusKLRU16_2IFC_2019_Jun_17_1609_153,stimulusKLRU16_2IFC_2019_Jun_17_1609_154,False,2019_Jun_17_1609,2IFC,3,KLRU16,
2IFC,2,0,2,0,10.4,-1,correct answer,0.533766600012,True,False,stimulusKLRU16_2IFC_2019_Jun_17_1609_155,stimulusKLRU16_2IFC_2019_Jun_17_1609_156,False,2019_Jun_17_1609,2IFC,3,KLRU16,
2IFC,3,0,3,0,10.4,-1,correct answer,0.501170100004,False,True,stimulusKLRU16_2IFC_2019_Jun_17_1609_157,stimulusKLRU16_2IFC_2019_Jun_17_1609_158,False,2019_Jun_17_1609,2IFC,3,KLRU16,
2IFC,4,0,4,0,10.4,-1,correct answer,0.601542699966,False,True,stimulusKLRU16_2IFC_2019_Jun_17_1609_159,stimulusKLRU16_2IFC_2019_Jun_17_1609_160,False,2019_Jun_17_1609,2IFC,3,KLRU16,
2IFC,5,0,5,0,10.4,-1,correct answer,0.434564700001,True,False,stimulusKLRU16_2IFC_2019_Jun_17_1609_161,stimulusKLRU16_2IFC_2019_Jun_17_1609_162,False,2019_Jun_17_1609,2IFC,3,KLRU16,
2IFC,6,0,6,0,10.4,-1,correct answer,0.432947499969,True,False,stimulusKLRU16_2IFC_2019_Jun_17_1609_163,stimulusKLRU16_2IFC_2019_Jun_17_1609_164,False,2019_Jun_17_1609,2IFC,3,KLRU16,
2IFC,7,0,7,0,10.4,-1,correct answer,0.534197600035,True,False,stimulusKLRU16_2IFC_2019_Jun_17_1609_165,stimulusKLRU16_2IFC_2019_Jun_17_1609_166,False,2019_Jun_17_1609,2IFC,3,KLRU16,
2IFC,8,0,8,0,10.4,-1,correct answer,0.533996700018,True,False,stimulusKLRU16_2IFC_2019_Jun_17_1609_167,stimulusKLRU16_2IFC_2019_Jun_17_1609_168,False,2019_Jun_17_1609,2IFC,3,KLRU16,
2IFC,9,0,9,0,10.4,-1,correct answer,0.334686799964,True,False,stimulusKLRU16_2IFC_2019_Jun_17_1609_169,stimulusKLRU16_2IFC_2019_Jun_17_1609_170,False,2019_Jun_17_1609,2IFC,3,KLRU16,
2IFC,10,0,10,0,10.4,-1,correct answer,0.434263099974,True,False,stimulusKLRU16_2IFC_2019_Jun_17_1609_171,stimulusKLRU16_2IFC_2019_Jun_17_1609_172,False,2019_Jun_17_1609,2IFC,3,KLRU16,
2IFC,11,0,11,0,10.4,-1,correct answer,0.567306200042,True,False,stimulusKLRU16_2IFC_2019_Jun_17_1609_173,stimulusKLRU16_2IFC_2019_Jun_17_1609_174,False,2019_Jun_17_1609,2IFC,3,KLRU16,
2IFC,12,0,12,0,10.4,-1,correct answer,0.800786799984,False,True,stimulusKLRU16_2IFC_2019_Jun_17_1609_175,stimulusKLRU16_2IFC_2019_Jun_17_1609_176,False,2019_Jun_17_1609,2IFC,3,KLRU16,
2IFC,13,0,13,0,10.4,-1,correct answer,0.367188500008,True,False,stimulusKLRU16_2IFC_2019_Jun_17_1609_177,stimulusKLRU16_2IFC_2019_Jun_17_1609_178,False,2019_Jun_17_1609,2IFC,3,KLRU16,
2IFC,14,0,14,0,10.4,-1,correct answer,0.501343199983,False,True,stimulusKLRU16_2IFC_2019_Jun_17_1609_179,stimulusKLRU16_2IFC_2019_Jun_17_1609_180,False,2019_Jun_17_1609,2IFC,3,KLRU16,
2IFC,15,0,15,0,10.4,-1,correct answer,0.50036190002,False,True,stimulusKLRU16_2IFC_2019_Jun_17_1609_181,stimulusKLRU16_2IFC_2019_Jun_17_1609_182,False,2019_Jun_17_1609,2IFC,3,KLRU16,
2IFC,16,0,16,0,10.4,-1,correct answer,0.40084050002,True,False,stimulusKLRU16_2IFC_2019_Jun_17_1609_183,stimulusKLRU16_2IFC_2019_Jun_17_1609_184,False,2019_Jun_17_1609,2IFC,3,KLRU16,
2IFC,17,0,17,0,10.4,-1,correct answer,0.367071500048,True,False,stimulusKLRU16_2IFC_2019_Jun_17_1609_185,stimulusKLRU16_2IFC_2019_Jun_17_1609_186,False,2019_Jun_17_1609,2IFC,3,KLRU16,
2IFC,18,0,18,0,10.4,-1,correct answer,0.43391849997,True,False,stimulusKLRU16_2IFC_2019_Jun_17_1609_187,stimulusKLRU16_2IFC_2019_Jun_17_1609_188,False,2019_Jun_17_1609,2IFC,3,KLRU16,
2IFC,19,0,19,0,10.4,-1,correct answer,0.467716799991,True,False,stimulusKLRU16_2IFC_2019_Jun_17_1609_189,stimulusKLRU16_2IFC_2019_Jun_17_1609_190,False,2019_Jun_17_1609,2IFC,3,KLRU16,
2IFC,20,0,20,0,10.4,-1,correct answer,0.533575999958,True,False,stimulusKLRU16_2IFC_2019_Jun_17_1609_191,stimulusKLRU16_2IFC_2019_Jun_17_1609_192,False,2019_Jun_17_1609,2IFC,3,KLRU16,
2IFC,21,0,21,0,10.4,-1,correct answer,0.434201499971,True,False,stimulusKLRU16_2IFC_2019_Jun_17_1609_193,stimulusKLRU16_2IFC_2019_Jun_17_1609_194,False,2019_Jun_17_1609,2IFC,3,KLRU16,
2IFC,22,0,22,0,10.4,-1,correct answer,0.500773000007,False,True,stimulusKLRU16_2IFC_2019_Jun_17_1609_195,stimulusKLRU16_2IFC_2019_Jun_17_1609_196,False,2019_Jun_17_1609,2IFC,3,KLRU16,
2IFC,23,0,23,0,10.4,-1,correct answer,0.601595699962,False,True,stimulusKLRU16_2IFC_2019_Jun_17_1609_197,stimulusKLRU16_2IFC_2019_Jun_17_1609_198,False,2019_Jun_17_1609,2IFC,3,KLRU16,
2IFC,24,0,24,0,10.4,-1,correct answer,0.501407700009,True,False,stimulusKLRU16_2IFC_2019_Jun_17_1609_199,stimulusKLRU16_2IFC_2019_Jun_17_1609_200,False,2019_Jun_17_1609,2IFC,3,KLRU16,
2IFC,25,0,25,0,10.4,-1,correct answer,0.566922199971,True,False,stimulusKLRU16_2IFC_2019_Jun_17_1609_201,stimulusKLRU16_2IFC_2019_Jun_17_1609_202,False,2019_Jun_17_1609,2IFC,3,KLRU16,
2IFC,26,0,26,0,10.4,-1,correct answer,0.501482899999,False,True,stimulusKLRU16_2IFC_2019_Jun_17_1609_203,stimulusKLRU16_2IFC_2019_Jun_17_1609_204,False,2019_Jun_17_1609,2IFC,3,KLRU16,
2IFC,27,0,27,0,10.4,-1,correct answer,0.467453699966,True,False,stimulusKLRU16_2IFC_2019_Jun_17_1609_205,stimulusKLRU16_2IFC_2019_Jun_17_1609_206,False,2019_Jun_17_1609,2IFC,3,KLRU16,
2IFC,28,0,28,0,10.4,-1,correct answer,0.600411900028,False,True,stimulusKLRU16_2IFC_2019_Jun_17_1609_207,stimulusKLRU16_2IFC_2019_Jun_17_1609_208,False,2019_Jun_17_1609,2IFC,3,KLRU16,
2IFC,29,0,29,0,10.4,-1,correct answer,0.535196500015,False,True,stimulusKLRU16_2IFC_2019_Jun_17_1609_209,stimulusKLRU16_2IFC_2019_Jun_17_1609_210,False,2019_Jun_17_1609,2IFC,3,KLRU16,
2IFC,30,0,30,0,10.4,-1,correct answer,0.401277899975,True,False,stimulusKLRU16_2IFC_2019_Jun_17_1609_211,stimulusKLRU16_2IFC_2019_Jun_17_1609_212,False,2019_Jun_17_1609,2IFC,3,KLRU16,
2IFC,31,0,31,0,10.4,-1,correct answer,0.500810900005,False,True,stimulusKLRU16_2IFC_2019_Jun_17_1609_213,stimulusKLRU16_2IFC_2019_Jun_17_1609_214,False,2019_Jun_17_1609,2IFC,3,KLRU16,
2IFC,32,0,32,0,10.4,-1,correct answer,0.566711699998,False,True,stimulusKLRU16_2IFC_2019_Jun_17_1609_215,stimulusKLRU16_2IFC_2019_Jun_17_1609_216,False,2019_Jun_17_1609,2IFC,3,KLRU16,
2IFC,33,0,33,0,10.4,-1,correct answer,0.600527799979,True,False,stimulusKLRU16_2IFC_2019_Jun_17_1609_217,stimulusKLRU16_2IFC_2019_Jun_17_1609_218,False,2019_Jun_17_1609,2IFC,3,KLRU16,
2IFC,34,0,34,0,10.4,-1,correct answer,0.500572599994,False,True,stimulusKLRU16_2IFC_2019_Jun_17_1609_219,stimulusKLRU16_2IFC_2019_Jun_17_1609_220,False,2019_Jun_17_1609,2IFC,3,KLRU16,
2IFC,35,0,35,0,10.4,-1,correct answer,0.433157699998,True,False,stimulusKLRU16_2IFC_2019_Jun_17_1609_221,stimulusKLRU16_2IFC_2019_Jun_17_1609_222,False,2019_Jun_17_1609,2IFC,3,KLRU16,
2IFC,36,0,36,0,10.4,-1,wrong answer,0.601843600045,True,False,stimulusKLRU16_2IFC_2019_Jun_17_1609_223,stimulusKLRU16_2IFC_2019_Jun_17_1609_224,False,2019_Jun_17_1609,2IFC,3,KLRU16,
2IFC,37,0,37,0,10.4,-1,no answer,-1,False,True,stimulusKLRU16_2IFC_2019_Jun_17_1609_225,stimulusKLRU16_2IFC_2019_Jun_17_1609_226,False,2019_Jun_17_1609,2IFC,3,KLRU16,
2IFC,38,0,38,0,10.4,-1,correct answer,0.734323500015,True,False,stimulusKLRU16_2IFC_2019_Jun_17_1609_227,stimulusKLRU16_2IFC_2019_Jun_17_1609_228,False,2019_Jun_17_1609,2IFC,3,KLRU16,
2IFC,39,0,39,0,10.4,-1,correct answer,0.567666699993,False,True,stimulusKLRU16_2IFC_2019_Jun_17_1609_229,stimulusKLRU16_2IFC_2019_Jun_17_1609_230,False,2019_Jun_17_1609,2IFC,3,KLRU16,
2IFC,40,0,40,0,10.4,-1,correct answer,0.633949899988,False,True,stimulusKLRU16_2IFC_2019_Jun_17_1609_231,stimulusKLRU16_2IFC_2019_Jun_17_1609_232,False,2019_Jun_17_1609,2IFC,3,KLRU16,
2IFC,41,0,41,0,10.4,-1,correct answer,0.63410309999,False,True,stimulusKLRU16_2IFC_2019_Jun_17_1609_233,stimulusKLRU16_2IFC_2019_Jun_17_1609_234,False,2019_Jun_17_1609,2IFC,3,KLRU16,
2IFC,42,0,42,0,10.4,-1,correct answer,0.466721899982,True,False,stimulusKLRU16_2IFC_2019_Jun_17_1609_235,stimulusKLRU16_2IFC_2019_Jun_17_1609_236,False,2019_Jun_17_1609,2IFC,3,KLRU16,
2IFC,43,0,43,0,10.4,-1,correct answer,0.533856800001,False,True,stimulusKLRU16_2IFC_2019_Jun_17_1609_237,stimulusKLRU16_2IFC_2019_Jun_17_1609_238,False,2019_Jun_17_1609,2IFC,3,KLRU16,
2IFC,44,0,44,0,10.4,-1,correct answer,0.433991899947,True,False,stimulusKLRU16_2IFC_2019_Jun_17_1609_239,stimulusKLRU16_2IFC_2019_Jun_17_1609_240,False,2019_Jun_17_1609,2IFC,3,KLRU16,
2IFC,45,0,45,0,10.4,-1,correct answer,0.466939500009,True,False,stimulusKLRU16_2IFC_2019_Jun_17_1609_241,stimulusKLRU16_2IFC_2019_Jun_17_1609_242,False,2019_Jun_17_1609,2IFC,3,KLRU16,
2IFC,46,0,46,0,10.4,-1,correct answer,0.500199200003,True,False,stimulusKLRU16_2IFC_2019_Jun_17_1609_243,stimulusKLRU16_2IFC_2019_Jun_17_1609_244,False,2019_Jun_17_1609,2IFC,3,KLRU16,
2IFC,47,0,47,0,10.4,-1,correct answer,0.53387069999,True,False,stimulusKLRU16_2IFC_2019_Jun_17_1609_245,stimulusKLRU16_2IFC_2019_Jun_17_1609_246,False,2019_Jun_17_1609,2IFC,3,KLRU16,
2IFC,48,0,48,0,10.4,-1,correct answer,0.601433199947,True,False,stimulusKLRU16_2IFC_2019_Jun_17_1609_247,stimulusKLRU16_2IFC_2019_Jun_17_1609_248,False,2019_Jun_17_1609,2IFC,3,KLRU16,
2IFC,49,0,49,0,10.4,-1,correct answer,0.532309299975,True,False,stimulusKLRU16_2IFC_2019_Jun_17_1609_249,stimulusKLRU16_2IFC_2019_Jun_17_1609_250,False,2019_Jun_17_1609,2IFC,3,KLRU16,
2IFC,50,0,50,0,10.4,-1,correct answer,0.500609499984,False,True,stimulusKLRU16_2IFC_2019_Jun_17_1609_251,stimulusKLRU16_2IFC_2019_Jun_17_1609_252,False,2019_Jun_17_1609,2IFC,3,KLRU16,
2IFC,51,0,51,0,10.4,-1,correct answer,0.400843499985,True,False,stimulusKLRU16_2IFC_2019_Jun_17_1609_253,stimulusKLRU16_2IFC_2019_Jun_17_1609_254,False,2019_Jun_17_1609,2IFC,3,KLRU16,
2IFC,52,0,52,0,10.4,-1,correct answer,0.501222799998,False,True,stimulusKLRU16_2IFC_2019_Jun_17_1609_255,stimulusKLRU16_2IFC_2019_Jun_17_1609_256,False,2019_Jun_17_1609,2IFC,3,KLRU16,
2IFC,53,0,53,0,10.4,-1,correct answer,0.267249800032,True,False,stimulusKLRU16_2IFC_2019_Jun_17_1609_257,stimulusKLRU16_2IFC_2019_Jun_17_1609_258,False,2019_Jun_17_1609,2IFC,3,KLRU16,
2IFC,54,0,54,0,10.4,-1,correct answer,0.400529799983,True,False,stimulusKLRU16_2IFC_2019_Jun_17_1609_259,stimulusKLRU16_2IFC_2019_Jun_17_1609_260,False,2019_Jun_17_1609,2IFC,3,KLRU16,
2IFC,55,0,55,0,10.4,-1,correct answer,0.535811299982,False,True,stimulusKLRU16_2IFC_2019_Jun_17_1609_261,stimulusKLRU16_2IFC_2019_Jun_17_1609_262,False,2019_Jun_17_1609,2IFC,3,KLRU16,
2IFC,56,0,56,0,10.4,-1,correct answer,0.601333900006,True,False,stimulusKLRU16_2IFC_2019_Jun_17_1609_263,stimulusKLRU16_2IFC_2019_Jun_17_1609_264,False,2019_Jun_17_1609,2IFC,3,KLRU16,
2IFC,57,0,57,0,10.4,-1,correct answer,0.600958700001,True,False,stimulusKLRU16_2IFC_2019_Jun_17_1609_265,stimulusKLRU16_2IFC_2019_Jun_17_1609_266,False,2019_Jun_17_1609,2IFC,3,KLRU16,
2IFC,58,0,58,0,10.4,-1,correct answer,0.667480400007,True,False,stimulusKLRU16_2IFC_2019_Jun_17_1609_267,stimulusKLRU16_2IFC_2019_Jun_17_1609_268,False,2019_Jun_17_1609,2IFC,3,KLRU16,
2IFC,59,0,59,0,10.4,-1,correct answer,0.500576500024,False,True,stimulusKLRU16_2IFC_2019_Jun_17_1609_269,stimulusKLRU16_2IFC_2019_Jun_17_1609_270,False,2019_Jun_17_1609,2IFC,3,KLRU16,
2IFC,60,0,60,0,10.4,-1,correct answer,0.400436100026,True,False,stimulusKLRU16_2IFC_2019_Jun_17_1609_271,stimulusKLRU16_2IFC_2019_Jun_17_1609_272,False,2019_Jun_17_1609,2IFC,3,KLRU16,
2IFC,61,0,61,0,10.4,-1,correct answer,0.434681199957,False,True,stimulusKLRU16_2IFC_2019_Jun_17_1609_273,stimulusKLRU16_2IFC_2019_Jun_17_1609_274,False,2019_Jun_17_1609,2IFC,3,KLRU16,
2IFC,62,0,62,0,10.4,-1,correct answer,0.670098799979,True,False,stimulusKLRU16_2IFC_2019_Jun_17_1609_275,stimulusKLRU16_2IFC_2019_Jun_17_1609_276,False,2019_Jun_17_1609,2IFC,3,KLRU16,
2IFC,63,0,63,0,10.4,-1,correct answer,0.567414300051,False,True,stimulusKLRU16_2IFC_2019_Jun_17_1609_277,stimulusKLRU16_2IFC_2019_Jun_17_1609_278,False,2019_Jun_17_1609,2IFC,3,KLRU16,
2IFC,64,0,64,0,10.4,-1,wrong answer,0.600686200021,False,True,stimulusKLRU16_2IFC_2019_Jun_17_1609_279,stimulusKLRU16_2IFC_2019_Jun_17_1609_280,False,2019_Jun_17_1609,2IFC,3,KLRU16,
2IFC,65,0,65,0,10.4,-1,correct answer,0.534457199974,True,False,stimulusKLRU16_2IFC_2019_Jun_17_1609_281,stimulusKLRU16_2IFC_2019_Jun_17_1609_282,False,2019_Jun_17_1609,2IFC,3,KLRU16,
2IFC,66,0,66,0,10.4,-1,correct answer,0.567668700009,False,True,stimulusKLRU16_2IFC_2019_Jun_17_1609_283,stimulusKLRU16_2IFC_2019_Jun_17_1609_284,False,2019_Jun_17_1609,2IFC,3,KLRU16,
2IFC,67,0,67,0,10.4,-1,correct answer,0.600512199977,True,False,stimulusKLRU16_2IFC_2019_Jun_17_1609_285,stimulusKLRU16_2IFC_2019_Jun_17_1609_286,False,2019_Jun_17_1609,2IFC,3,KLRU16,
2IFC,68,0,68,0,10.4,-1,correct answer,0.6346701,True,False,stimulusKLRU16_2IFC_2019_Jun_17_1609_287,stimulusKLRU16_2IFC_2019_Jun_17_1609_288,False,2019_Jun_17_1609,2IFC,3,KLRU16,
2IFC,69,0,69,0,10.4,-1,correct answer,0.500491200015,True,False,stimulusKLRU16_2IFC_2019_Jun_17_1609_289,stimulusKLRU16_2IFC_2019_Jun_17_1609_290,False,2019_Jun_17_1609,2IFC,3,KLRU16,
2IFC,70,0,70,0,10.4,-1,correct answer,0.834335599968,False,True,stimulusKLRU16_2IFC_2019_Jun_17_1609_291,stimulusKLRU16_2IFC_2019_Jun_17_1609_292,False,2019_Jun_17_1609,2IFC,3,KLRU16,
2IFC,71,0,71,0,10.4,-1,correct answer,0.534164800018,False,True,stimulusKLRU16_2IFC_2019_Jun_17_1609_293,stimulusKLRU16_2IFC_2019_Jun_17_1609_294,False,2019_Jun_17_1609,2IFC,3,KLRU16,
2IFC,72,0,72,0,10.4,-1,correct answer,0.433979200025,False,True,stimulusKLRU16_2IFC_2019_Jun_17_1609_295,stimulusKLRU16_2IFC_2019_Jun_17_1609_296,False,2019_Jun_17_1609,2IFC,3,KLRU16,
2IFC,73,0,73,0,10.4,-1,correct answer,0.667763600009,True,False,stimulusKLRU16_2IFC_2019_Jun_17_1609_297,stimulusKLRU16_2IFC_2019_Jun_17_1609_298,False,2019_Jun_17_1609,2IFC,3,KLRU16,
2IFC,74,0,74,0,10.4,-1,correct answer,0.802474200027,True,False,stimulusKLRU16_2IFC_2019_Jun_17_1609_299,stimulusKLRU16_2IFC_2019_Jun_17_1609_300,False,2019_Jun_17_1609,2IFC,3,KLRU16,
2IFC,0,0,0,0,9.3,-1,correct answer,0.500534799998,False,True,stimulusKLRU16_2IFC_2019_Jun_17_1609_301,stimulusKLRU16_2IFC_2019_Jun_17_1609_302,False,2019_Jun_17_1609,2IFC,3,KLRU16,
2IFC,1,0,1,0,9.3,-1,correct answer,0.534364900028,True,False,stimulusKLRU16_2IFC_2019_Jun_17_1609_303,stimulusKLRU16_2IFC_2019_Jun_17_1609_304,False,2019_Jun_17_1609,2IFC,3,KLRU16,
2IFC,2,0,2,0,9.3,-1,wrong answer,0.467281400051,False,True,stimulusKLRU16_2IFC_2019_Jun_17_1609_305,stimulusKLRU16_2IFC_2019_Jun_17_1609_306,False,2019_Jun_17_1609,2IFC,3,KLRU16,
2IFC,3,0,3,0,9.3,-1,correct answer,0.467335299996,False,True,stimulusKLRU16_2IFC_2019_Jun_17_1609_307,stimulusKLRU16_2IFC_2019_Jun_17_1609_308,False,2019_Jun_17_1609,2IFC,3,KLRU16,
2IFC,4,0,4,0,9.3,-1,correct answer,0.633764100028,False,True,stimulusKLRU16_2IFC_2019_Jun_17_1609_309,stimulusKLRU16_2IFC_2019_Jun_17_1609_310,False,2019_Jun_17_1609,2IFC,3,KLRU16,
2IFC,5,0,5,0,9.3,-1,correct answer,0.467887000006,False,True,stimulusKLRU16_2IFC_2019_Jun_17_1609_311,stimulusKLRU16_2IFC_2019_Jun_17_1609_312,False,2019_Jun_17_1609,2IFC,3,KLRU16,
2IFC,6,0,6,0,9.3,-1,correct answer,0.367872800038,True,False,stimulusKLRU16_2IFC_2019_Jun_17_1609_313,stimulusKLRU16_2IFC_2019_Jun_17_1609_314,False,2019_Jun_17_1609,2IFC,3,KLRU16,
2IFC,7,0,7,0,9.3,-1,correct answer,0.567404300033,False,True,stimulusKLRU16_2IFC_2019_Jun_17_1609_315,stimulusKLRU16_2IFC_2019_Jun_17_1609_316,False,2019_Jun_17_1609,2IFC,3,KLRU16,
2IFC,8,0,8,0,9.3,-1,correct answer,0.56793379999,False,True,stimulusKLRU16_2IFC_2019_Jun_17_1609_317,stimulusKLRU16_2IFC_2019_Jun_17_1609_318,False,2019_Jun_17_1609,2IFC,3,KLRU16,
2IFC,9,0,9,0,9.3,-1,correct answer,0.767617200036,False,True,stimulusKLRU16_2IFC_2019_Jun_17_1609_319,stimulusKLRU16_2IFC_2019_Jun_17_1609_320,False,2019_Jun_17_1609,2IFC,3,KLRU16,
2IFC,10,0,10,0,9.3,-1,correct answer,0.402365899994,True,False,stimulusKLRU16_2IFC_2019_Jun_17_1609_321,stimulusKLRU16_2IFC_2019_Jun_17_1609_322,False,2019_Jun_17_1609,2IFC,3,KLRU16,
2IFC,11,0,11,0,9.3,-1,correct answer,0.600603699975,False,True,stimulusKLRU16_2IFC_2019_Jun_17_1609_323,stimulusKLRU16_2IFC_2019_Jun_17_1609_324,False,2019_Jun_17_1609,2IFC,3,KLRU16,
2IFC,12,0,12,0,9.3,-1,correct answer,0.800783300016,False,True,stimulusKLRU16_2IFC_2019_Jun_17_1609_325,stimulusKLRU16_2IFC_2019_Jun_17_1609_326,False,2019_Jun_17_1609,2IFC,3,KLRU16,
2IFC,13,0,13,0,9.3,-1,correct answer,0.667034899991,False,True,stimulusKLRU16_2IFC_2019_Jun_17_1609_327,stimulusKLRU16_2IFC_2019_Jun_17_1609_328,False,2019_Jun_17_1609,2IFC,3,KLRU16,
2IFC,14,0,14,0,9.3,-1,correct answer,0.567348599958,False,True,stimulusKLRU16_2IFC_2019_Jun_17_1609_329,stimulusKLRU16_2IFC_2019_Jun_17_1609_330,False,2019_Jun_17_1609,2IFC,3,KLRU16,
2IFC,15,0,15,0,9.3,-1,correct answer,0.63425469998,False,True,stimulusKLRU16_2IFC_2019_Jun_17_1609_331,stimulusKLRU16_2IFC_2019_Jun_17_1609_332,False,2019_Jun_17_1609,2IFC,3,KLRU16,
2IFC,16,0,16,0,9.3,-1,correct answer,0.800116300001,True,False,stimulusKLRU16_2IFC_2019_Jun_17_1609_333,stimulusKLRU16_2IFC_2019_Jun_17_1609_334,False,2019_Jun_17_1609,2IFC,3,KLRU16,
2IFC,17,0,17,0,9.3,-1,correct answer,0.398412399983,True,False,stimulusKLRU16_2IFC_2019_Jun_17_1609_335,stimulusKLRU16_2IFC_2019_Jun_17_1609_336,False,2019_Jun_17_1609,2IFC,3,KLRU16,
2IFC,18,0,18,0,9.3,-1,correct answer,0.701294900035,False,True,stimulusKLRU16_2IFC_2019_Jun_17_1609_337,stimulusKLRU16_2IFC_2019_Jun_17_1609_338,False,2019_Jun_17_1609,2IFC,3,KLRU16,
2IFC,19,0,19,0,9.3,-1,correct answer,0.4340066,True,False,stimulusKLRU16_2IFC_2019_Jun_17_1609_339,stimulusKLRU16_2IFC_2019_Jun_17_1609_340,False,2019_Jun_17_1609,2IFC,3,KLRU16,
2IFC,20,0,20,0,9.3,-1,correct answer,0.567534200032,False,True,stimulusKLRU16_2IFC_2019_Jun_17_1609_341,stimulusKLRU16_2IFC_2019_Jun_17_1609_342,False,2019_Jun_17_1609,2IFC,3,KLRU16,
2IFC,21,0,21,0,9.3,-1,correct answer,0.500864100002,True,False,stimulusKLRU16_2IFC_2019_Jun_17_1609_343,stimulusKLRU16_2IFC_2019_Jun_17_1609_344,False,2019_Jun_17_1609,2IFC,3,KLRU16,
2IFC,22,0,22,0,9.3,-1,correct answer,0.534140100004,False,True,stimulusKLRU16_2IFC_2019_Jun_17_1609_345,stimulusKLRU16_2IFC_2019_Jun_17_1609_346,False,2019_Jun_17_1609,2IFC,3,KLRU16,
2IFC,23,0,23,0,9.3,-1,correct answer,0.433114900021,True,False,stimulusKLRU16_2IFC_2019_Jun_17_1609_347,stimulusKLRU16_2IFC_2019_Jun_17_1609_348,False,2019_Jun_17_1609,2IFC,3,KLRU16,
2IFC,24,0,24,0,9.3,-1,correct answer,0.634117399983,False,True,stimulusKLRU16_2IFC_2019_Jun_17_1609_349,stimulusKLRU16_2IFC_2019_Jun_17_1609_350,False,2019_Jun_17_1609,2IFC,3,KLRU16,
2IFC,25,0,25,0,9.3,-1,correct answer,0.434697500023,True,False,stimulusKLRU16_2IFC_2019_Jun_17_1609_351,stimulusKLRU16_2IFC_2019_Jun_17_1609_352,False,2019_Jun_17_1609,2IFC,3,KLRU16,
2IFC,26,0,26,0,9.3,-1,correct answer,0.567274899979,False,True,stimulusKLRU16_2IFC_2019_Jun_17_1609_353,stimulusKLRU16_2IFC_2019_Jun_17_1609_354,False,2019_Jun_17_1609,2IFC,3,KLRU16,
2IFC,27,0,27,0,9.3,-1,correct answer,0.502149900014,True,False,stimulusKLRU16_2IFC_2019_Jun_17_1609_355,stimulusKLRU16_2IFC_2019_Jun_17_1609_356,False,2019_Jun_17_1609,2IFC,3,KLRU16,
2IFC,28,0,28,0,9.3,-1,correct answer,0.534143900033,True,False,stimulusKLRU16_2IFC_2019_Jun_17_1609_357,stimulusKLRU16_2IFC_2019_Jun_17_1609_358,False,2019_Jun_17_1609,2IFC,3,KLRU16,
2IFC,29,0,29,0,9.3,-1,correct answer,0.537079599977,False,True,stimulusKLRU16_2IFC_2019_Jun_17_1609_359,stimulusKLRU16_2IFC_2019_Jun_17_1609_360,False,2019_Jun_17_1609,2IFC,3,KLRU16,
2IFC,30,0,30,0,9.3,-1,correct answer,0.601387800009,False,True,stimulusKLRU16_2IFC_2019_Jun_17_1609_361,stimulusKLRU16_2IFC_2019_Jun_17_1609_362,False,2019_Jun_17_1609,2IFC,3,KLRU16,
2IFC,31,0,31,0,9.3,-1,correct answer,0.500652799965,False,True,stimulusKLRU16_2IFC_2019_Jun_17_1609_363,stimulusKLRU16_2IFC_2019_Jun_17_1609_364,False,2019_Jun_17_1609,2IFC,3,KLRU16,
2IFC,32,0,32,0,9.3,-1,correct answer,0.634055000031,True,False,stimulusKLRU16_2IFC_2019_Jun_17_1609_365,stimulusKLRU16_2IFC_2019_Jun_17_1609_366,False,2019_Jun_17_1609,2IFC,3,KLRU16,
2IFC,33,0,33,0,9.3,-1,correct answer,0.500809399993,False,True,stimulusKLRU16_2IFC_2019_Jun_17_1609_367,stimulusKLRU16_2IFC_2019_Jun_17_1609_368,False,2019_Jun_17_1609,2IFC,3,KLRU16,
2IFC,34,0,34,0,9.3,-1,correct answer,0.500565499999,True,False,stimulusKLRU16_2IFC_2019_Jun_17_1609_369,stimulusKLRU16_2IFC_2019_Jun_17_1609_370,False,2019_Jun_17_1609,2IFC,3,KLRU16,
2IFC,35,0,35,0,9.3,-1,correct answer,0.433851899987,True,False,stimulusKLRU16_2IFC_2019_Jun_17_1609_371,stimulusKLRU16_2IFC_2019_Jun_17_1609_372,False,2019_Jun_17_1609,2IFC,3,KLRU16,
2IFC,36,0,36,0,9.3,-1,correct answer,0.434124199965,False,True,stimulusKLRU16_2IFC_2019_Jun_17_1609_373,stimulusKLRU16_2IFC_2019_Jun_17_1609_374,False,2019_Jun_17_1609,2IFC,3,KLRU16,
2IFC,37,0,37,0,9.3,-1,correct answer,0.467329599953,True,False,stimulusKLRU16_2IFC_2019_Jun_17_1609_375,stimulusKLRU16_2IFC_2019_Jun_17_1609_376,False,2019_Jun_17_1609,2IFC,3,KLRU16,
2IFC,38,0,38,0,9.3,-1,correct answer,0.400675099983,True,False,stimulusKLRU16_2IFC_2019_Jun_17_1609_377,stimulusKLRU16_2IFC_2019_Jun_17_1609_378,False,2019_Jun_17_1609,2IFC,3,KLRU16,
2IFC,39,0,39,0,9.3,-1,correct answer,0.433979799971,True,False,stimulusKLRU16_2IFC_2019_Jun_17_1609_379,stimulusKLRU16_2IFC_2019_Jun_17_1609_380,False,2019_Jun_17_1609,2IFC,3,KLRU16,
2IFC,40,0,40,0,9.3,-1,correct answer,0.399684300006,True,False,stimulusKLRU16_2IFC_2019_Jun_17_1609_381,stimulusKLRU16_2IFC_2019_Jun_17_1609_382,False,2019_Jun_17_1609,2IFC,3,KLRU16,
2IFC,41,0,41,0,9.3,-1,correct answer,0.467504800006,True,False,stimulusKLRU16_2IFC_2019_Jun_17_1609_383,stimulusKLRU16_2IFC_2019_Jun_17_1609_384,False,2019_Jun_17_1609,2IFC,3,KLRU16,
2IFC,42,0,42,0,9.3,-1,correct answer,0.501844500017,True,False,stimulusKLRU16_2IFC_2019_Jun_17_1609_385,stimulusKLRU16_2IFC_2019_Jun_17_1609_386,False,2019_Jun_17_1609,2IFC,3,KLRU16,
2IFC,43,0,43,0,9.3,-1,correct answer,0.734219999984,False,True,stimulusKLRU16_2IFC_2019_Jun_17_1609_387,stimulusKLRU16_2IFC_2019_Jun_17_1609_388,False,2019_Jun_17_1609,2IFC,3,KLRU16,
2IFC,44,0,44,0,9.3,-1,correct answer,0.400494600006,True,False,stimulusKLRU16_2IFC_2019_Jun_17_1609_389,stimulusKLRU16_2IFC_2019_Jun_17_1609_390,False,2019_Jun_17_1609,2IFC,3,KLRU16,
2IFC,45,0,45,0,9.3,-1,correct answer,0.500546400028,False,True,stimulusKLRU16_2IFC_2019_Jun_17_1609_391,stimulusKLRU16_2IFC_2019_Jun_17_1609_392,False,2019_Jun_17_1609,2IFC,3,KLRU16,
2IFC,46,0,46,0,9.3,-1,correct answer,0.467540699989,True,False,stimulusKLRU16_2IFC_2019_Jun_17_1609_393,stimulusKLRU16_2IFC_2019_Jun_17_1609_394,False,2019_Jun_17_1609,2IFC,3,KLRU16,
2IFC,47,0,47,0,9.3,-1,correct answer,0.633552499989,True,False,stimulusKLRU16_2IFC_2019_Jun_17_1609_395,stimulusKLRU16_2IFC_2019_Jun_17_1609_396,False,2019_Jun_17_1609,2IFC,3,KLRU16,
2IFC,48,0,48,0,9.3,-1,correct answer,0.600874700001,False,True,stimulusKLRU16_2IFC_2019_Jun_17_1609_397,stimulusKLRU16_2IFC_2019_Jun_17_1609_398,False,2019_Jun_17_1609,2IFC,3,KLRU16,
2IFC,49,0,49,0,9.3,-1,correct answer,0.50006489997,False,True,stimulusKLRU16_2IFC_2019_Jun_17_1609_399,stimulusKLRU16_2IFC_2019_Jun_17_1609_400,False,2019_Jun_17_1609,2IFC,3,KLRU16,
2IFC,50,0,50,0,9.3,-1,correct answer,0.50073259999,False,True,stimulusKLRU16_2IFC_2019_Jun_17_1609_401,stimulusKLRU16_2IFC_2019_Jun_17_1609_402,False,2019_Jun_17_1609,2IFC,3,KLRU16,
2IFC,51,0,51,0,9.3,-1,correct answer,0.50068560004,False,True,stimulusKLRU16_2IFC_2019_Jun_17_1609_403,stimulusKLRU16_2IFC_2019_Jun_17_1609_404,False,2019_Jun_17_1609,2IFC,3,KLRU16,
2IFC,52,0,52,0,9.3,-1,correct answer,0.467416699976,False,True,stimulusKLRU16_2IFC_2019_Jun_17_1609_405,stimulusKLRU16_2IFC_2019_Jun_17_1609_406,False,2019_Jun_17_1609,2IFC,3,KLRU16,
2IFC,53,0,53,0,9.3,-1,correct answer,0.601102099987,True,False,stimulusKLRU16_2IFC_2019_Jun_17_1609_407,stimulusKLRU16_2IFC_2019_Jun_17_1609_408,False,2019_Jun_17_1609,2IFC,3,KLRU16,
2IFC,54,0,54,0,9.3,-1,wrong answer,0.834555700014,False,True,stimulusKLRU16_2IFC_2019_Jun_17_1609_409,stimulusKLRU16_2IFC_2019_Jun_17_1609_410,False,2019_Jun_17_1609,2IFC,3,KLRU16,
2IFC,55,0,55,0,9.3,-1,correct answer,0.56572059996,False,True,stimulusKLRU16_2IFC_2019_Jun_17_1609_411,stimulusKLRU16_2IFC_2019_Jun_17_1609_412,False,2019_Jun_17_1609,2IFC,3,KLRU16,
2IFC,56,0,56,0,9.3,-1,correct answer,0.534219000023,True,False,stimulusKLRU16_2IFC_2019_Jun_17_1609_413,stimulusKLRU16_2IFC_2019_Jun_17_1609_414,False,2019_Jun_17_1609,2IFC,3,KLRU16,
2IFC,57,0,57,0,9.3,-1,correct answer,0.533809399989,False,True,stimulusKLRU16_2IFC_2019_Jun_17_1609_415,stimulusKLRU16_2IFC_2019_Jun_17_1609_416,False,2019_Jun_17_1609,2IFC,3,KLRU16,
2IFC,58,0,58,0,9.3,-1,correct answer,0.500763999997,False,True,stimulusKLRU16_2IFC_2019_Jun_17_1609_417,stimulusKLRU16_2IFC_2019_Jun_17_1609_418,False,2019_Jun_17_1609,2IFC,3,KLRU16,
2IFC,59,0,59,0,9.3,-1,correct answer,0.500660300022,True,False,stimulusKLRU16_2IFC_2019_Jun_17_1609_419,stimulusKLRU16_2IFC_2019_Jun_17_1609_420,False,2019_Jun_17_1609,2IFC,3,KLRU16,
2IFC,60,0,60,0,9.3,-1,correct answer,0.466892900004,True,False,stimulusKLRU16_2IFC_2019_Jun_17_1609_421,stimulusKLRU16_2IFC_2019_Jun_17_1609_422,False,2019_Jun_17_1609,2IFC,3,KLRU16,
2IFC,61,0,61,0,9.3,-1,correct answer,0.401559600024,False,True,stimulusKLRU16_2IFC_2019_Jun_17_1609_423,stimulusKLRU16_2IFC_2019_Jun_17_1609_424,False,2019_Jun_17_1609,2IFC,3,KLRU16,
2IFC,62,0,62,0,9.3,-1,correct answer,0.699641399959,False,True,stimulusKLRU16_2IFC_2019_Jun_17_1609_425,stimulusKLRU16_2IFC_2019_Jun_17_1609_426,False,2019_Jun_17_1609,2IFC,3,KLRU16,
2IFC,63,0,63,0,9.3,-1,correct answer,0.300877100031,True,False,stimulusKLRU16_2IFC_2019_Jun_17_1609_427,stimulusKLRU16_2IFC_2019_Jun_17_1609_428,False,2019_Jun_17_1609,2IFC,3,KLRU16,
2IFC,64,0,64,0,9.3,-1,correct answer,0.467693100043,True,False,stimulusKLRU16_2IFC_2019_Jun_17_1609_429,stimulusKLRU16_2IFC_2019_Jun_17_1609_430,False,2019_Jun_17_1609,2IFC,3,KLRU16,
2IFC,65,0,65,0,9.3,-1,correct answer,0.233180899988,True,False,stimulusKLRU16_2IFC_2019_Jun_17_1609_431,stimulusKLRU16_2IFC_2019_Jun_17_1609_432,False,2019_Jun_17_1609,2IFC,3,KLRU16,
2IFC,66,0,66,0,9.3,-1,correct answer,0.433941199968,False,True,stimulusKLRU16_2IFC_2019_Jun_17_1609_433,stimulusKLRU16_2IFC_2019_Jun_17_1609_434,False,2019_Jun_17_1609,2IFC,3,KLRU16,
2IFC,67,0,67,0,9.3,-1,correct answer,0.333959799958,True,False,stimulusKLRU16_2IFC_2019_Jun_17_1609_435,stimulusKLRU16_2IFC_2019_Jun_17_1609_436,False,2019_Jun_17_1609,2IFC,3,KLRU16,
2IFC,68,0,68,0,9.3,-1,correct answer,0.534411200031,True,False,stimulusKLRU16_2IFC_2019_Jun_17_1609_437,stimulusKLRU16_2IFC_2019_Jun_17_1609_438,False,2019_Jun_17_1609,2IFC,3,KLRU16,
2IFC,69,0,69,0,9.3,-1,correct answer,0.533954800048,False,True,stimulusKLRU16_2IFC_2019_Jun_17_1609_439,stimulusKLRU16_2IFC_2019_Jun_17_1609_440,False,2019_Jun_17_1609,2IFC,3,KLRU16,
2IFC,70,0,70,0,9.3,-1,correct answer,0.267358300043,True,False,stimulusKLRU16_2IFC_2019_Jun_17_1609_441,stimulusKLRU16_2IFC_2019_Jun_17_1609_442,False,2019_Jun_17_1609,2IFC,3,KLRU16,
2IFC,71,0,71,0,9.3,-1,correct answer,0.60021080001,True,False,stimulusKLRU16_2IFC_2019_Jun_17_1609_443,stimulusKLRU16_2IFC_2019_Jun_17_1609_444,False,2019_Jun_17_1609,2IFC,3,KLRU16,
2IFC,72,0,72,0,9.3,-1,correct answer,0.401024899969,True,False,stimulusKLRU16_2IFC_2019_Jun_17_1609_445,stimulusKLRU16_2IFC_2019_Jun_17_1609_446,False,2019_Jun_17_1609,2IFC,3,KLRU16,
2IFC,73,0,73,0,9.3,-1,correct answer,0.400788799976,False,True,stimulusKLRU16_2IFC_2019_Jun_17_1609_447,stimulusKLRU16_2IFC_2019_Jun_17_1609_448,False,2019_Jun_17_1609,2IFC,3,KLRU16,
2IFC,74,0,74,0,9.3,-1,correct answer,0.634578099998,False,True,stimulusKLRU16_2IFC_2019_Jun_17_1609_449,stimulusKLRU16_2IFC_2019_Jun_17_1609_450,False,2019_Jun_17_1609,2IFC,3,KLRU16,
2IFC,0,0,0,0,8.4,-1,correct answer,0.567303800024,True,False,stimulusKLRU16_2IFC_2019_Jun_17_1609_451,stimulusKLRU16_2IFC_2019_Jun_17_1609_452,False,2019_Jun_17_1609,2IFC,3,KLRU16,
2IFC,1,0,1,0,8.4,-1,correct answer,0.500385900028,True,False,stimulusKLRU16_2IFC_2019_Jun_17_1609_453,stimulusKLRU16_2IFC_2019_Jun_17_1609_454,False,2019_Jun_17_1609,2IFC,3,KLRU16,
2IFC,2,0,2,0,8.4,-1,correct answer,0.501208100002,False,True,stimulusKLRU16_2IFC_2019_Jun_17_1609_455,stimulusKLRU16_2IFC_2019_Jun_17_1609_456,False,2019_Jun_17_1609,2IFC,3,KLRU16,
2IFC,3,0,3,0,8.4,-1,correct answer,0.433585799998,True,False,stimulusKLRU16_2IFC_2019_Jun_17_1609_457,stimulusKLRU16_2IFC_2019_Jun_17_1609_458,False,2019_Jun_17_1609,2IFC,3,KLRU16,
2IFC,4,0,4,0,8.4,-1,correct answer,0.533795099996,False,True,stimulusKLRU16_2IFC_2019_Jun_17_1609_459,stimulusKLRU16_2IFC_2019_Jun_17_1609_460,False,2019_Jun_17_1609,2IFC,3,KLRU16,
2IFC,5,0,5,0,8.4,-1,correct answer,0.534374599985,False,True,stimulusKLRU16_2IFC_2019_Jun_17_1609_461,stimulusKLRU16_2IFC_2019_Jun_17_1609_462,False,2019_Jun_17_1609,2IFC,3,KLRU16,
2IFC,6,0,6,0,8.4,-1,correct answer,0.533355399966,False,True,stimulusKLRU16_2IFC_2019_Jun_17_1609_463,stimulusKLRU16_2IFC_2019_Jun_17_1609_464,False,2019_Jun_17_1609,2IFC,3,KLRU16,
2IFC,7,0,7,0,8.4,-1,correct answer,0.400367400027,True,False,stimulusKLRU16_2IFC_2019_Jun_17_1609_465,stimulusKLRU16_2IFC_2019_Jun_17_1609_466,False,2019_Jun_17_1609,2IFC,3,KLRU16,
2IFC,8,0,8,0,8.4,-1,wrong answer,0.533729200019,False,True,stimulusKLRU16_2IFC_2019_Jun_17_1609_467,stimulusKLRU16_2IFC_2019_Jun_17_1609_468,False,2019_Jun_17_1609,2IFC,3,KLRU16,
2IFC,9,0,9,0,8.4,-1,correct answer,0.233420100005,True,False,stimulusKLRU16_2IFC_2019_Jun_17_1609_469,stimulusKLRU16_2IFC_2019_Jun_17_1609_470,False,2019_Jun_17_1609,2IFC,3,KLRU16,
2IFC,10,0,10,0,8.4,-1,correct answer,0.466658499965,False,True,stimulusKLRU16_2IFC_2019_Jun_17_1609_471,stimulusKLRU16_2IFC_2019_Jun_17_1609_472,False,2019_Jun_17_1609,2IFC,3,KLRU16,
2IFC,11,0,11,0,8.4,-1,correct answer,0.567094700004,False,True,stimulusKLRU16_2IFC_2019_Jun_17_1609_473,stimulusKLRU16_2IFC_2019_Jun_17_1609_474,False,2019_Jun_17_1609,2IFC,3,KLRU16,
2IFC,12,0,12,0,8.4,-1,correct answer,0.534224300005,False,True,stimulusKLRU16_2IFC_2019_Jun_17_1609_475,stimulusKLRU16_2IFC_2019_Jun_17_1609_476,False,2019_Jun_17_1609,2IFC,3,KLRU16,
2IFC,13,0,13,0,8.4,-1,correct answer,0.366363400011,True,False,stimulusKLRU16_2IFC_2019_Jun_17_1609_477,stimulusKLRU16_2IFC_2019_Jun_17_1609_478,False,2019_Jun_17_1609,2IFC,3,KLRU16,
2IFC,14,0,14,0,8.4,-1,correct answer,0.500904400018,False,True,stimulusKLRU16_2IFC_2019_Jun_17_1609_479,stimulusKLRU16_2IFC_2019_Jun_17_1609_480,False,2019_Jun_17_1609,2IFC,3,KLRU16,
2IFC,15,0,15,0,8.4,-1,correct answer,0.468104700034,False,True,stimulusKLRU16_2IFC_2019_Jun_17_1609_481,stimulusKLRU16_2IFC_2019_Jun_17_1609_482,False,2019_Jun_17_1609,2IFC,3,KLRU16,
2IFC,16,0,16,0,8.4,-1,correct answer,0.300621700007,True,False,stimulusKLRU16_2IFC_2019_Jun_17_1609_483,stimulusKLRU16_2IFC_2019_Jun_17_1609_484,False,2019_Jun_17_1609,2IFC,3,KLRU16,
2IFC,17,0,17,0,8.4,-1,correct answer,0.534254099999,False,True,stimulusKLRU16_2IFC_2019_Jun_17_1609_485,stimulusKLRU16_2IFC_2019_Jun_17_1609_486,False,2019_Jun_17_1609,2IFC,3,KLRU16,
2IFC,18,0,18,0,8.4,-1,correct answer,0.367691899999,True,False,stimulusKLRU16_2IFC_2019_Jun_17_1609_487,stimulusKLRU16_2IFC_2019_Jun_17_1609_488,False,2019_Jun_17_1609,2IFC,3,KLRU16,
2IFC,19,0,19,0,8.4,-1,correct answer,0.467656299996,False,True,stimulusKLRU16_2IFC_2019_Jun_17_1609_489,stimulusKLRU16_2IFC_2019_Jun_17_1609_490,False,2019_Jun_17_1609,2IFC,3,KLRU16,
2IFC,20,0,20,0,8.4,-1,correct answer,0.53412690002,False,True,stimulusKLRU16_2IFC_2019_Jun_17_1609_491,stimulusKLRU16_2IFC_2019_Jun_17_1609_492,False,2019_Jun_17_1609,2IFC,3,KLRU16,
2IFC,21,0,21,0,8.4,-1,correct answer,0.633660799998,True,False,stimulusKLRU16_2IFC_2019_Jun_17_1609_493,stimulusKLRU16_2IFC_2019_Jun_17_1609_494,False,2019_Jun_17_1609,2IFC,3,KLRU16,
2IFC,22,0,22,0,8.4,-1,correct answer,0.600819099986,True,False,stimulusKLRU16_2IFC_2019_Jun_17_1609_495,stimulusKLRU16_2IFC_2019_Jun_17_1609_496,False,2019_Jun_17_1609,2IFC,3,KLRU16,
2IFC,23,0,23,0,8.4,-1,correct answer,0.666848000023,True,False,stimulusKLRU16_2IFC_2019_Jun_17_1609_497,stimulusKLRU16_2IFC_2019_Jun_17_1609_498,False,2019_Jun_17_1609,2IFC,3,KLRU16,
2IFC,24,0,24,0,8.4,-1,correct answer,0.634099800023,True,False,stimulusKLRU16_2IFC_2019_Jun_17_1609_499,stimulusKLRU16_2IFC_2019_Jun_17_1609_500,False,2019_Jun_17_1609,2IFC,3,KLRU16,
2IFC,25,0,25,0,8.4,-1,correct answer,0.700783399981,True,False,stimulusKLRU16_2IFC_2019_Jun_17_1609_501,stimulusKLRU16_2IFC_2019_Jun_17_1609_502,False,2019_Jun_17_1609,2IFC,3,KLRU16,
2IFC,26,0,26,0,8.4,-1,correct answer,0.43103050004,False,True,stimulusKLRU16_2IFC_2019_Jun_17_1609_503,stimulusKLRU16_2IFC_2019_Jun_17_1609_504,False,2019_Jun_17_1609,2IFC,3,KLRU16,
2IFC,27,0,27,0,8.4,-1,correct answer,0.333943100006,True,False,stimulusKLRU16_2IFC_2019_Jun_17_1609_505,stimulusKLRU16_2IFC_2019_Jun_17_1609_506,False,2019_Jun_17_1609,2IFC,3,KLRU16,
2IFC,28,0,28,0,8.4,-1,correct answer,0.233957199962,True,False,stimulusKLRU16_2IFC_2019_Jun_17_1609_507,stimulusKLRU16_2IFC_2019_Jun_17_1609_508,False,2019_Jun_17_1609,2IFC,3,KLRU16,
2IFC,29,0,29,0,8.4,-1,correct answer,0.501985899988,True,False,stimulusKLRU16_2IFC_2019_Jun_17_1609_509,stimulusKLRU16_2IFC_2019_Jun_17_1609_510,False,2019_Jun_17_1609,2IFC,3,KLRU16,
2IFC,30,0,30,0,8.4,-1,correct answer,0.500594399986,False,True,stimulusKLRU16_2IFC_2019_Jun_17_1609_511,stimulusKLRU16_2IFC_2019_Jun_17_1609_512,False,2019_Jun_17_1609,2IFC,3,KLRU16,
2IFC,31,0,31,0,8.4,-1,correct answer,0.50080899999,False,True,stimulusKLRU16_2IFC_2019_Jun_17_1609_513,stimulusKLRU16_2IFC_2019_Jun_17_1609_514,False,2019_Jun_17_1609,2IFC,3,KLRU16,
2IFC,32,0,32,0,8.4,-1,wrong answer,0.636175199994,True,False,stimulusKLRU16_2IFC_2019_Jun_17_1609_515,stimulusKLRU16_2IFC_2019_Jun_17_1609_516,False,2019_Jun_17_1609,2IFC,3,KLRU16,
2IFC,33,0,33,0,8.4,-1,correct answer,0.667569300043,True,False,stimulusKLRU16_2IFC_2019_Jun_17_1609_517,stimulusKLRU16_2IFC_2019_Jun_17_1609_518,False,2019_Jun_17_1609,2IFC,3,KLRU16,
2IFC,34,0,34,0,8.4,-1,correct answer,0.466948700021,True,False,stimulusKLRU16_2IFC_2019_Jun_17_1609_519,stimulusKLRU16_2IFC_2019_Jun_17_1609_520,False,2019_Jun_17_1609,2IFC,3,KLRU16,
2IFC,35,0,35,0,8.4,-1,correct answer,0.501985000039,True,False,stimulusKLRU16_2IFC_2019_Jun_17_1609_521,stimulusKLRU16_2IFC_2019_Jun_17_1609_522,False,2019_Jun_17_1609,2IFC,3,KLRU16,
2IFC,36,0,36,0,8.4,-1,correct answer,0.467360099952,False,True,stimulusKLRU16_2IFC_2019_Jun_17_1609_523,stimulusKLRU16_2IFC_2019_Jun_17_1609_524,False,2019_Jun_17_1609,2IFC,3,KLRU16,
2IFC,37,0,37,0,8.4,-1,correct answer,0.333805200004,True,False,stimulusKLRU16_2IFC_2019_Jun_17_1609_525,stimulusKLRU16_2IFC_2019_Jun_17_1609_526,False,2019_Jun_17_1609,2IFC,3,KLRU16,
2IFC,38,0,38,0,8.4,-1,correct answer,0.467271899979,True,False,stimulusKLRU16_2IFC_2019_Jun_17_1609_527,stimulusKLRU16_2IFC_2019_Jun_17_1609_528,False,2019_Jun_17_1609,2IFC,3,KLRU16,
2IFC,39,0,39,0,8.4,-1,correct answer,0.36604980001,True,False,stimulusKLRU16_2IFC_2019_Jun_17_1609_529,stimulusKLRU16_2IFC_2019_Jun_17_1609_530,False,2019_Jun_17_1609,2IFC,3,KLRU16,
2IFC,40,0,40,0,8.4,-1,no answer,-1,False,True,stimulusKLRU16_2IFC_2019_Jun_17_1609_531,stimulusKLRU16_2IFC_2019_Jun_17_1609_532,False,2019_Jun_17_1609,2IFC,3,KLRU16,
2IFC,41,0,41,0,8.4,-1,correct answer,0.600974400004,False,True,stimulusKLRU16_2IFC_2019_Jun_17_1609_533,stimulusKLRU16_2IFC_2019_Jun_17_1609_534,False,2019_Jun_17_1609,2IFC,3,KLRU16,
2IFC,42,0,42,0,8.4,-1,correct answer,0.36686900002,True,False,stimulusKLRU16_2IFC_2019_Jun_17_1609_535,stimulusKLRU16_2IFC_2019_Jun_17_1609_536,False,2019_Jun_17_1609,2IFC,3,KLRU16,
2IFC,43,0,43,0,8.4,-1,correct answer,0.534016399994,False,True,stimulusKLRU16_2IFC_2019_Jun_17_1609_537,stimulusKLRU16_2IFC_2019_Jun_17_1609_538,False,2019_Jun_17_1609,2IFC,3,KLRU16,
2IFC,44,0,44,0,8.4,-1,correct answer,0.734179900028,False,True,stimulusKLRU16_2IFC_2019_Jun_17_1609_539,stimulusKLRU16_2IFC_2019_Jun_17_1609_540,False,2019_Jun_17_1609,2IFC,3,KLRU16,
2IFC,45,0,45,0,8.4,-1,correct answer,0.600635899988,False,True,stimulusKLRU16_2IFC_2019_Jun_17_1609_541,stimulusKLRU16_2IFC_2019_Jun_17_1609_542,False,2019_Jun_17_1609,2IFC,3,KLRU16,
2IFC,46,0,46,0,8.4,-1,correct answer,0.332300700014,True,False,stimulusKLRU16_2IFC_2019_Jun_17_1609_543,stimulusKLRU16_2IFC_2019_Jun_17_1609_544,False,2019_Jun_17_1609,2IFC,3,KLRU16,
2IFC,47,0,47,0,8.4,-1,correct answer,0.500636199955,False,True,stimulusKLRU16_2IFC_2019_Jun_17_1609_545,stimulusKLRU16_2IFC_2019_Jun_17_1609_546,False,2019_Jun_17_1609,2IFC,3,KLRU16,
2IFC,48,0,48,0,8.4,-1,correct answer,0.53510400001,False,True,stimulusKLRU16_2IFC_2019_Jun_17_1609_547,stimulusKLRU16_2IFC_2019_Jun_17_1609_548,False,2019_Jun_17_1609,2IFC,3,KLRU16,
2IFC,49,0,49,0,8.4,-1,wrong answer,0.46718560002,True,False,stimulusKLRU16_2IFC_2019_Jun_17_1609_549,stimulusKLRU16_2IFC_2019_Jun_17_1609_550,False,2019_Jun_17_1609,2IFC,3,KLRU16,
2IFC,50,0,50,0,8.4,-1,no answer,-1,False,True,stimulusKLRU16_2IFC_2019_Jun_17_1609_551,stimulusKLRU16_2IFC_2019_Jun_17_1609_552,False,2019_Jun_17_1609,2IFC,3,KLRU16,
2IFC,51,0,51,0,8.4,-1,correct answer,0.333451400045,True,False,stimulusKLRU16_2IFC_2019_Jun_17_1609_553,stimulusKLRU16_2IFC_2019_Jun_17_1609_554,False,2019_Jun_17_1609,2IFC,3,KLRU16,
2IFC,52,0,52,0,8.4,-1,correct answer,0.533530900022,False,True,stimulusKLRU16_2IFC_2019_Jun_17_1609_555,stimulusKLRU16_2IFC_2019_Jun_17_1609_556,False,2019_Jun_17_1609,2IFC,3,KLRU16,
2IFC,53,0,53,0,8.4,-1,correct answer,0.36709070002,True,False,stimulusKLRU16_2IFC_2019_Jun_17_1609_557,stimulusKLRU16_2IFC_2019_Jun_17_1609_558,False,2019_Jun_17_1609,2IFC,3,KLRU16,
2IFC,54,0,54,0,8.4,-1,correct answer,0.533786099986,False,True,stimulusKLRU16_2IFC_2019_Jun_17_1609_559,stimulusKLRU16_2IFC_2019_Jun_17_1609_560,False,2019_Jun_17_1609,2IFC,3,KLRU16,
2IFC,55,0,55,0,8.4,-1,correct answer,0.50062419998,True,False,stimulusKLRU16_2IFC_2019_Jun_17_1609_561,stimulusKLRU16_2IFC_2019_Jun_17_1609_562,False,2019_Jun_17_1609,2IFC,3,KLRU16,
2IFC,56,0,56,0,8.4,-1,correct answer,0.567723600019,False,True,stimulusKLRU16_2IFC_2019_Jun_17_1609_563,stimulusKLRU16_2IFC_2019_Jun_17_1609_564,False,2019_Jun_17_1609,2IFC,3,KLRU16,
2IFC,57,0,57,0,8.4,-1,correct answer,0.467376000015,True,False,stimulusKLRU16_2IFC_2019_Jun_17_1609_565,stimulusKLRU16_2IFC_2019_Jun_17_1609_566,False,2019_Jun_17_1609,2IFC,3,KLRU16,
2IFC,58,0,58,0,8.4,-1,correct answer,0.50217339996,False,True,stimulusKLRU16_2IFC_2019_Jun_17_1609_567,stimulusKLRU16_2IFC_2019_Jun_17_1609_568,False,2019_Jun_17_1609,2IFC,3,KLRU16,
2IFC,59,0,59,0,8.4,-1,correct answer,0.600134999957,False,True,stimulusKLRU16_2IFC_2019_Jun_17_1609_569,stimulusKLRU16_2IFC_2019_Jun_17_1609_570,False,2019_Jun_17_1609,2IFC,3,KLRU16,
2IFC,60,0,60,0,8.4,-1,correct answer,0.434601100045,True,False,stimulusKLRU16_2IFC_2019_Jun_17_1609_571,stimulusKLRU16_2IFC_2019_Jun_17_1609_572,False,2019_Jun_17_1609,2IFC,3,KLRU16,
2IFC,61,0,61,0,8.4,-1,correct answer,0.600092999986,False,True,stimulusKLRU16_2IFC_2019_Jun_17_1609_573,stimulusKLRU16_2IFC_2019_Jun_17_1609_574,False,2019_Jun_17_1609,2IFC,3,KLRU16,
2IFC,62,0,62,0,8.4,-1,correct answer,0.500318800041,False,True,stimulusKLRU16_2IFC_2019_Jun_17_1609_575,stimulusKLRU16_2IFC_2019_Jun_17_1609_576,False,2019_Jun_17_1609,2IFC,3,KLRU16,
2IFC,63,0,63,0,8.4,-1,correct answer,0.267412299989,True,False,stimulusKLRU16_2IFC_2019_Jun_17_1609_577,stimulusKLRU16_2IFC_2019_Jun_17_1609_578,False,2019_Jun_17_1609,2IFC,3,KLRU16,
2IFC,64,0,64,0,8.4,-1,correct answer,0.333478099958,True,False,stimulusKLRU16_2IFC_2019_Jun_17_1609_579,stimulusKLRU16_2IFC_2019_Jun_17_1609_580,False,2019_Jun_17_1609,2IFC,3,KLRU16,
2IFC,65,0,65,0,8.4,-1,correct answer,0.267330200004,True,False,stimulusKLRU16_2IFC_2019_Jun_17_1609_581,stimulusKLRU16_2IFC_2019_Jun_17_1609_582,False,2019_Jun_17_1609,2IFC,3,KLRU16,
2IFC,66,0,66,0,8.4,-1,correct answer,0.300435299985,True,False,stimulusKLRU16_2IFC_2019_Jun_17_1609_583,stimulusKLRU16_2IFC_2019_Jun_17_1609_584,False,2019_Jun_17_1609,2IFC,3,KLRU16,
2IFC,67,0,67,0,8.4,-1,correct answer,0.468067499984,True,False,stimulusKLRU16_2IFC_2019_Jun_17_1609_585,stimulusKLRU16_2IFC_2019_Jun_17_1609_586,False,2019_Jun_17_1609,2IFC,3,KLRU16,
2IFC,68,0,68,0,8.4,-1,correct answer,0.333695100038,True,False,stimulusKLRU16_2IFC_2019_Jun_17_1609_587,stimulusKLRU16_2IFC_2019_Jun_17_1609_588,False,2019_Jun_17_1609,2IFC,3,KLRU16,
2IFC,69,0,69,0,8.4,-1,correct answer,0.433719700028,False,True,stimulusKLRU16_2IFC_2019_Jun_17_1609_589,stimulusKLRU16_2IFC_2019_Jun_17_1609_590,False,2019_Jun_17_1609,2IFC,3,KLRU16,
2IFC,70,0,70,0,8.4,-1,correct answer,0.467496799945,False,True,stimulusKLRU16_2IFC_2019_Jun_17_1609_591,stimulusKLRU16_2IFC_2019_Jun_17_1609_592,False,2019_Jun_17_1609,2IFC,3,KLRU16,
2IFC,71,0,71,0,8.4,-1,correct answer,0.700634599954,False,True,stimulusKLRU16_2IFC_2019_Jun_17_1609_593,stimulusKLRU16_2IFC_2019_Jun_17_1609_594,False,2019_Jun_17_1609,2IFC,3,KLRU16,
2IFC,72,0,72,0,8.4,-1,correct answer,0.469967400015,False,True,stimulusKLRU16_2IFC_2019_Jun_17_1609_595,stimulusKLRU16_2IFC_2019_Jun_17_1609_596,False,2019_Jun_17_1609,2IFC,3,KLRU16,
2IFC,73,0,73,0,8.4,-1,correct answer,0.399892700021,False,True,stimulusKLRU16_2IFC_2019_Jun_17_1609_597,stimulusKLRU16_2IFC_2019_Jun_17_1609_598,False,2019_Jun_17_1609,2IFC,3,KLRU16,
2IFC,74,0,74,0,8.4,-1,correct answer,0.433860399993,False,True,stimulusKLRU16_2IFC_2019_Jun_17_1609_599,stimulusKLRU16_2IFC_2019_Jun_17_1609_600,False,2019_Jun_17_1609,2IFC,3,KLRU16,
2IFC,0,0,0,0,3.5,-1,correct answer,0.667615599988,False,True,stimulusKLRU16_2IFC_2019_Jun_17_1609_601,stimulusKLRU16_2IFC_2019_Jun_17_1609_602,False,2019_Jun_17_1609,2IFC,3,KLRU16,
2IFC,1,0,1,0,3.5,-1,wrong answer,0.700014100003,True,False,stimulusKLRU16_2IFC_2019_Jun_17_1609_603,stimulusKLRU16_2IFC_2019_Jun_17_1609_604,False,2019_Jun_17_1609,2IFC,3,KLRU16,
2IFC,2,0,2,0,3.5,-1,wrong answer,0.734566900006,True,False,stimulusKLRU16_2IFC_2019_Jun_17_1609_605,stimulusKLRU16_2IFC_2019_Jun_17_1609_606,False,2019_Jun_17_1609,2IFC,3,KLRU16,
2IFC,3,0,3,0,3.5,-1,correct answer,0.601054600033,False,True,stimulusKLRU16_2IFC_2019_Jun_17_1609_607,stimulusKLRU16_2IFC_2019_Jun_17_1609_608,False,2019_Jun_17_1609,2IFC,3,KLRU16,
2IFC,4,0,4,0,3.5,-1,wrong answer,0.701248099969,True,False,stimulusKLRU16_2IFC_2019_Jun_17_1609_609,stimulusKLRU16_2IFC_2019_Jun_17_1609_610,False,2019_Jun_17_1609,2IFC,3,KLRU16,
2IFC,5,0,5,0,3.5,-1,correct answer,0.733631299983,True,False,stimulusKLRU16_2IFC_2019_Jun_17_1609_611,stimulusKLRU16_2IFC_2019_Jun_17_1609_612,False,2019_Jun_17_1609,2IFC,3,KLRU16,
2IFC,6,0,6,0,3.5,-1,wrong answer,0.500581400003,False,True,stimulusKLRU16_2IFC_2019_Jun_17_1609_613,stimulusKLRU16_2IFC_2019_Jun_17_1609_614,False,2019_Jun_17_1609,2IFC,3,KLRU16,
2IFC,7,0,7,0,3.5,-1,correct answer,0.667841200018,False,True,stimulusKLRU16_2IFC_2019_Jun_17_1609_615,stimulusKLRU16_2IFC_2019_Jun_17_1609_616,False,2019_Jun_17_1609,2IFC,3,KLRU16,
2IFC,8,0,8,0,3.5,-1,correct answer,0.634016199969,True,False,stimulusKLRU16_2IFC_2019_Jun_17_1609_617,stimulusKLRU16_2IFC_2019_Jun_17_1609_618,False,2019_Jun_17_1609,2IFC,3,KLRU16,
2IFC,9,0,9,0,3.5,-1,correct answer,0.633687999973,True,False,stimulusKLRU16_2IFC_2019_Jun_17_1609_619,stimulusKLRU16_2IFC_2019_Jun_17_1609_620,False,2019_Jun_17_1609,2IFC,3,KLRU16,
2IFC,10,0,10,0,3.5,-1,correct answer,0.667816700006,False,True,stimulusKLRU16_2IFC_2019_Jun_17_1609_621,stimulusKLRU16_2IFC_2019_Jun_17_1609_622,False,2019_Jun_17_1609,2IFC,3,KLRU16,
2IFC,11,0,11,0,3.5,-1,correct answer,0.700717900007,False,True,stimulusKLRU16_2IFC_2019_Jun_17_1609_623,stimulusKLRU16_2IFC_2019_Jun_17_1609_624,False,2019_Jun_17_1609,2IFC,3,KLRU16,
2IFC,12,0,12,0,3.5,-1,no answer,-1,False,True,stimulusKLRU16_2IFC_2019_Jun_17_1609_625,stimulusKLRU16_2IFC_2019_Jun_17_1609_626,False,2019_Jun_17_1609,2IFC,3,KLRU16,
2IFC,13,0,13,0,3.5,-1,correct answer,0.600288700021,False,True,stimulusKLRU16_2IFC_2019_Jun_17_1609_627,stimulusKLRU16_2IFC_2019_Jun_17_1609_628,False,2019_Jun_17_1609,2IFC,3,KLRU16,
2IFC,14,0,14,0,3.5,-1,correct answer,0.59932639997,False,True,stimulusKLRU16_2IFC_2019_Jun_17_1609_629,stimulusKLRU16_2IFC_2019_Jun_17_1609_630,False,2019_Jun_17_1609,2IFC,3,KLRU16,
2IFC,15,0,15,0,3.5,-1,wrong answer,0.634236200014,True,False,stimulusKLRU16_2IFC_2019_Jun_17_1609_631,stimulusKLRU16_2IFC_2019_Jun_17_1609_632,False,2019_Jun_17_1609,2IFC,3,KLRU16,
2IFC,16,0,16,0,3.5,-1,correct answer,0.566477400018,True,False,stimulusKLRU16_2IFC_2019_Jun_17_1609_633,stimulusKLRU16_2IFC_2019_Jun_17_1609_634,False,2019_Jun_17_1609,2IFC,3,KLRU16,
2IFC,17,0,17,0,3.5,-1,correct answer,0.767499300011,True,False,stimulusKLRU16_2IFC_2019_Jun_17_1609_635,stimulusKLRU16_2IFC_2019_Jun_17_1609_636,False,2019_Jun_17_1609,2IFC,3,KLRU16,
2IFC,18,0,18,0,3.5,-1,correct answer,0.534077399992,False,True,stimulusKLRU16_2IFC_2019_Jun_17_1609_637,stimulusKLRU16_2IFC_2019_Jun_17_1609_638,False,2019_Jun_17_1609,2IFC,3,KLRU16,
2IFC,19,0,19,0,3.5,-1,correct answer,0.534575199999,False,True,stimulusKLRU16_2IFC_2019_Jun_17_1609_639,stimulusKLRU16_2IFC_2019_Jun_17_1609_640,False,2019_Jun_17_1609,2IFC,3,KLRU16,
2IFC,20,0,20,0,3.5,-1,wrong answer,0.567445499997,False,True,stimulusKLRU16_2IFC_2019_Jun_17_1609_641,stimulusKLRU16_2IFC_2019_Jun_17_1609_642,False,2019_Jun_17_1609,2IFC,3,KLRU16,
2IFC,21,0,21,0,3.5,-1,no answer,-1,False,True,stimulusKLRU16_2IFC_2019_Jun_17_1609_643,stimulusKLRU16_2IFC_2019_Jun_17_1609_644,False,2019_Jun_17_1609,2IFC,3,KLRU16,
2IFC,22,0,22,0,3.5,-1,correct answer,0.600726399978,False,True,stimulusKLRU16_2IFC_2019_Jun_17_1609_645,stimulusKLRU16_2IFC_2019_Jun_17_1609_646,False,2019_Jun_17_1609,2IFC,3,KLRU16,
2IFC,23,0,23,0,3.5,-1,correct answer,0.667550600017,False,True,stimulusKLRU16_2IFC_2019_Jun_17_1609_647,stimulusKLRU16_2IFC_2019_Jun_17_1609_648,False,2019_Jun_17_1609,2IFC,3,KLRU16,
2IFC,24,0,24,0,3.5,-1,correct answer,0.53389630001,False,True,stimulusKLRU16_2IFC_2019_Jun_17_1609_649,stimulusKLRU16_2IFC_2019_Jun_17_1609_650,False,2019_Jun_17_1609,2IFC,3,KLRU16,
2IFC,25,0,25,0,3.5,-1,correct answer,0.635166499997,False,True,stimulusKLRU16_2IFC_2019_Jun_17_1609_651,stimulusKLRU16_2IFC_2019_Jun_17_1609_652,False,2019_Jun_17_1609,2IFC,3,KLRU16,
2IFC,26,0,26,0,3.5,-1,correct answer,0.467352500011,True,False,stimulusKLRU16_2IFC_2019_Jun_17_1609_653,stimulusKLRU16_2IFC_2019_Jun_17_1609_654,False,2019_Jun_17_1609,2IFC,3,KLRU16,
2IFC,27,0,27,0,3.5,-1,wrong answer,0.767397699994,False,True,stimulusKLRU16_2IFC_2019_Jun_17_1609_655,stimulusKLRU16_2IFC_2019_Jun_17_1609_656,False,2019_Jun_17_1609,2IFC,3,KLRU16,
2IFC,28,0,28,0,3.5,-1,correct answer,0.433968400001,True,False,stimulusKLRU16_2IFC_2019_Jun_17_1609_657,stimulusKLRU16_2IFC_2019_Jun_17_1609_658,False,2019_Jun_17_1609,2IFC,3,KLRU16,
2IFC,29,0,29,0,3.5,-1,wrong answer,0.633970099967,True,False,stimulusKLRU16_2IFC_2019_Jun_17_1609_659,stimulusKLRU16_2IFC_2019_Jun_17_1609_660,False,2019_Jun_17_1609,2IFC,3,KLRU16,
2IFC,30,0,30,0,3.5,-1,correct answer,0.500766499958,False,True,stimulusKLRU16_2IFC_2019_Jun_17_1609_661,stimulusKLRU16_2IFC_2019_Jun_17_1609_662,False,2019_Jun_17_1609,2IFC,3,KLRU16,
2IFC,31,0,31,0,3.5,-1,wrong answer,0.634053700021,False,True,stimulusKLRU16_2IFC_2019_Jun_17_1609_663,stimulusKLRU16_2IFC_2019_Jun_17_1609_664,False,2019_Jun_17_1609,2IFC,3,KLRU16,
2IFC,32,0,32,0,3.5,-1,correct answer,0.536925600027,False,True,stimulusKLRU16_2IFC_2019_Jun_17_1609_665,stimulusKLRU16_2IFC_2019_Jun_17_1609_666,False,2019_Jun_17_1609,2IFC,3,KLRU16,
2IFC,33,0,33,0,3.5,-1,correct answer,0.467564099992,True,False,stimulusKLRU16_2IFC_2019_Jun_17_1609_667,stimulusKLRU16_2IFC_2019_Jun_17_1609_668,False,2019_Jun_17_1609,2IFC,3,KLRU16,
2IFC,34,0,34,0,3.5,-1,wrong answer,0.567182099971,False,True,stimulusKLRU16_2IFC_2019_Jun_17_1609_669,stimulusKLRU16_2IFC_2019_Jun_17_1609_670,False,2019_Jun_17_1609,2IFC,3,KLRU16,
2IFC,35,0,35,0,3.5,-1,correct answer,0.668310999987,False,True,stimulusKLRU16_2IFC_2019_Jun_17_1609_671,stimulusKLRU16_2IFC_2019_Jun_17_1609_672,False,2019_Jun_17_1609,2IFC,3,KLRU16,
2IFC,36,0,36,0,3.5,-1,wrong answer,0.534192299994,False,True,stimulusKLRU16_2IFC_2019_Jun_17_1609_673,stimulusKLRU16_2IFC_2019_Jun_17_1609_674,False,2019_Jun_17_1609,2IFC,3,KLRU16,
2IFC,37,0,37,0,3.5,-1,correct answer,0.834284100041,True,False,stimulusKLRU16_2IFC_2019_Jun_17_1609_675,stimulusKLRU16_2IFC_2019_Jun_17_1609_676,False,2019_Jun_17_1609,2IFC,3,KLRU16,
2IFC,38,0,38,0,3.5,-1,wrong answer,0.800511000038,False,True,stimulusKLRU16_2IFC_2019_Jun_17_1609_677,stimulusKLRU16_2IFC_2019_Jun_17_1609_678,False,2019_Jun_17_1609,2IFC,3,KLRU16,
2IFC,39,0,39,0,3.5,-1,correct answer,0.666037900024,False,True,stimulusKLRU16_2IFC_2019_Jun_17_1609_679,stimulusKLRU16_2IFC_2019_Jun_17_1609_680,False,2019_Jun_17_1609,2IFC,3,KLRU16,
2IFC,40,0,40,0,3.5,-1,wrong answer,0.534476699948,False,True,stimulusKLRU16_2IFC_2019_Jun_17_1609_681,stimulusKLRU16_2IFC_2019_Jun_17_1609_682,False,2019_Jun_17_1609,2IFC,3,KLRU16,
2IFC,41,0,41,0,3.5,-1,correct answer,0.600518300023,False,True,stimulusKLRU16_2IFC_2019_Jun_17_1609_683,stimulusKLRU16_2IFC_2019_Jun_17_1609_684,False,2019_Jun_17_1609,2IFC,3,KLRU16,
2IFC,42,0,42,0,3.5,-1,correct answer,0.567165899964,False,True,stimulusKLRU16_2IFC_2019_Jun_17_1609_685,stimulusKLRU16_2IFC_2019_Jun_17_1609_686,False,2019_Jun_17_1609,2IFC,3,KLRU16,
2IFC,43,0,43,0,3.5,-1,wrong answer,0.500672399998,False,True,stimulusKLRU16_2IFC_2019_Jun_17_1609_687,stimulusKLRU16_2IFC_2019_Jun_17_1609_688,False,2019_Jun_17_1609,2IFC,3,KLRU16,
2IFC,44,0,44,0,3.5,-1,correct answer,0.668520600011,True,False,stimulusKLRU16_2IFC_2019_Jun_17_1609_689,stimulusKLRU16_2IFC_2019_Jun_17_1609_690,False,2019_Jun_17_1609,2IFC,3,KLRU16,
2IFC,45,0,45,0,3.5,-1,correct answer,0.534406899998,False,True,stimulusKLRU16_2IFC_2019_Jun_17_1609_691,stimulusKLRU16_2IFC_2019_Jun_17_1609_692,False,2019_Jun_17_1609,2IFC,3,KLRU16,
2IFC,46,0,46,0,3.5,-1,wrong answer,0.633762200014,True,False,stimulusKLRU16_2IFC_2019_Jun_17_1609_693,stimulusKLRU16_2IFC_2019_Jun_17_1609_694,False,2019_Jun_17_1609,2IFC,3,KLRU16,
2IFC,47,0,47,0,3.5,-1,correct answer,0.634432099992,False,True,stimulusKLRU16_2IFC_2019_Jun_17_1609_695,stimulusKLRU16_2IFC_2019_Jun_17_1609_696,False,2019_Jun_17_1609,2IFC,3,KLRU16,
2IFC,48,0,48,0,3.5,-1,wrong answer,0.600531400007,False,True,stimulusKLRU16_2IFC_2019_Jun_17_1609_697,stimulusKLRU16_2IFC_2019_Jun_17_1609_698,False,2019_Jun_17_1609,2IFC,3,KLRU16,
2IFC,49,0,49,0,3.5,-1,wrong answer,0.600771100027,True,False,stimulusKLRU16_2IFC_2019_Jun_17_1609_699,stimulusKLRU16_2IFC_2019_Jun_17_1609_700,False,2019_Jun_17_1609,2IFC,3,KLRU16,
2IFC,50,0,50,0,3.5,-1,correct answer,0.833969499974,True,False,stimulusKLRU16_2IFC_2019_Jun_17_1609_701,stimulusKLRU16_2IFC_2019_Jun_17_1609_702,False,2019_Jun_17_1609,2IFC,3,KLRU16,
2IFC,51,0,51,0,3.5,-1,wrong answer,0.598436200002,False,True,stimulusKLRU16_2IFC_2019_Jun_17_1609_703,stimulusKLRU16_2IFC_2019_Jun_17_1609_704,False,2019_Jun_17_1609,2IFC,3,KLRU16,
2IFC,52,0,52,0,3.5,-1,wrong answer,0.634847600013,True,False,stimulusKLRU16_2IFC_2019_Jun_17_1609_705,stimulusKLRU16_2IFC_2019_Jun_17_1609_706,False,2019_Jun_17_1609,2IFC,3,KLRU16,
2IFC,53,0,53,0,3.5,-1,correct answer,0.767694400041,False,True,stimulusKLRU16_2IFC_2019_Jun_17_1609_707,stimulusKLRU16_2IFC_2019_Jun_17_1609_708,False,2019_Jun_17_1609,2IFC,3,KLRU16,
2IFC,54,0,54,0,3.5,-1,correct answer,0.533600599971,True,False,stimulusKLRU16_2IFC_2019_Jun_17_1609_709,stimulusKLRU16_2IFC_2019_Jun_17_1609_710,False,2019_Jun_17_1609,2IFC,3,KLRU16,
2IFC,55,0,55,0,3.5,-1,correct answer,0.600738000008,True,False,stimulusKLRU16_2IFC_2019_Jun_17_1609_711,stimulusKLRU16_2IFC_2019_Jun_17_1609_712,False,2019_Jun_17_1609,2IFC,3,KLRU16,
2IFC,56,0,56,0,3.5,-1,correct answer,0.667504900019,True,False,stimulusKLRU16_2IFC_2019_Jun_17_1609_713,stimulusKLRU16_2IFC_2019_Jun_17_1609_714,False,2019_Jun_17_1609,2IFC,3,KLRU16,
2IFC,57,0,57,0,3.5,-1,wrong answer,0.568237600033,True,False,stimulusKLRU16_2IFC_2019_Jun_17_1609_715,stimulusKLRU16_2IFC_2019_Jun_17_1609_716,False,2019_Jun_17_1609,2IFC,3,KLRU16,
2IFC,58,0,58,0,3.5,-1,wrong answer,0.734249599976,True,False,stimulusKLRU16_2IFC_2019_Jun_17_1609_717,stimulusKLRU16_2IFC_2019_Jun_17_1609_718,False,2019_Jun_17_1609,2IFC,3,KLRU16,
2IFC,59,0,59,0,3.5,-1,correct answer,0.767657499993,False,True,stimulusKLRU16_2IFC_2019_Jun_17_1609_719,stimulusKLRU16_2IFC_2019_Jun_17_1609_720,False,2019_Jun_17_1609,2IFC,3,KLRU16,
2IFC,60,0,60,0,3.5,-1,correct answer,0.735187099956,False,True,stimulusKLRU16_2IFC_2019_Jun_17_1609_721,stimulusKLRU16_2IFC_2019_Jun_17_1609_722,False,2019_Jun_17_1609,2IFC,3,KLRU16,
2IFC,61,0,61,0,3.5,-1,correct answer,0.700590400025,False,True,stimulusKLRU16_2IFC_2019_Jun_17_1609_723,stimulusKLRU16_2IFC_2019_Jun_17_1609_724,False,2019_Jun_17_1609,2IFC,3,KLRU16,
2IFC,62,0,62,0,3.5,-1,correct answer,0.600643499987,True,False,stimulusKLRU16_2IFC_2019_Jun_17_1609_725,stimulusKLRU16_2IFC_2019_Jun_17_1609_726,False,2019_Jun_17_1609,2IFC,3,KLRU16,
2IFC,63,0,63,0,3.5,-1,wrong answer,0.66744260001,True,False,stimulusKLRU16_2IFC_2019_Jun_17_1609_727,stimulusKLRU16_2IFC_2019_Jun_17_1609_728,False,2019_Jun_17_1609,2IFC,3,KLRU16,
2IFC,64,0,64,0,3.5,-1,no answer,-1,False,True,stimulusKLRU16_2IFC_2019_Jun_17_1609_729,stimulusKLRU16_2IFC_2019_Jun_17_1609_730,False,2019_Jun_17_1609,2IFC,3,KLRU16,
2IFC,65,0,65,0,3.5,-1,correct answer,0.666529499984,False,True,stimulusKLRU16_2IFC_2019_Jun_17_1609_731,stimulusKLRU16_2IFC_2019_Jun_17_1609_732,False,2019_Jun_17_1609,2IFC,3,KLRU16,
2IFC,66,0,66,0,3.5,-1,correct answer,0.534774400003,True,False,stimulusKLRU16_2IFC_2019_Jun_17_1609_733,stimulusKLRU16_2IFC_2019_Jun_17_1609_734,False,2019_Jun_17_1609,2IFC,3,KLRU16,
2IFC,67,0,67,0,3.5,-1,correct answer,0.601985700021,False,True,stimulusKLRU16_2IFC_2019_Jun_17_1609_735,stimulusKLRU16_2IFC_2019_Jun_17_1609_736,False,2019_Jun_17_1609,2IFC,3,KLRU16,
2IFC,68,0,68,0,3.5,-1,correct answer,0.600498099986,True,False,stimulusKLRU16_2IFC_2019_Jun_17_1609_737,stimulusKLRU16_2IFC_2019_Jun_17_1609_738,False,2019_Jun_17_1609,2IFC,3,KLRU16,
2IFC,69,0,69,0,3.5,-1,correct answer,0.566355300019,True,False,stimulusKLRU16_2IFC_2019_Jun_17_1609_739,stimulusKLRU16_2IFC_2019_Jun_17_1609_740,False,2019_Jun_17_1609,2IFC,3,KLRU16,
2IFC,70,0,70,0,3.5,-1,wrong answer,0.50104230002,True,False,stimulusKLRU16_2IFC_2019_Jun_17_1609_741,stimulusKLRU16_2IFC_2019_Jun_17_1609_742,False,2019_Jun_17_1609,2IFC,3,KLRU16,
2IFC,71,0,71,0,3.5,-1,correct answer,0.666420299967,True,False,stimulusKLRU16_2IFC_2019_Jun_17_1609_743,stimulusKLRU16_2IFC_2019_Jun_17_1609_744,False,2019_Jun_17_1609,2IFC,3,KLRU16,
2IFC,72,0,72,0,3.5,-1,correct answer,0.667351800017,True,False,stimulusKLRU16_2IFC_2019_Jun_17_1609_745,stimulusKLRU16_2IFC_2019_Jun_17_1609_746,False,2019_Jun_17_1609,2IFC,3,KLRU16,
2IFC,73,0,73,0,3.5,-1,wrong answer,0.500924399996,False,True,stimulusKLRU16_2IFC_2019_Jun_17_1609_747,stimulusKLRU16_2IFC_2019_Jun_17_1609_748,False,2019_Jun_17_1609,2IFC,3,KLRU16,
2IFC,74,0,74,0,3.5,-1,correct answer,0.600616600015,True,False,stimulusKLRU16_2IFC_2019_Jun_17_1609_749,stimulusKLRU16_2IFC_2019_Jun_17_1609_750,False,2019_Jun_17_1609,2IFC,3,KLRU16,
2IFC,0,0,0,0,7.4,-1,correct answer,0.433848699962,False,True,stimulusKLRU16_2IFC_2019_Jun_17_1609_751,stimulusKLRU16_2IFC_2019_Jun_17_1609_752,False,2019_Jun_17_1609,2IFC,3,KLRU16,
2IFC,1,0,1,0,7.4,-1,correct answer,0.534232900012,False,True,stimulusKLRU16_2IFC_2019_Jun_17_1609_753,stimulusKLRU16_2IFC_2019_Jun_17_1609_754,False,2019_Jun_17_1609,2IFC,3,KLRU16,
2IFC,2,0,2,0,7.4,-1,correct answer,0.667381999956,False,True,stimulusKLRU16_2IFC_2019_Jun_17_1609_755,stimulusKLRU16_2IFC_2019_Jun_17_1609_756,False,2019_Jun_17_1609,2IFC,3,KLRU16,
2IFC,3,0,3,0,7.4,-1,correct answer,0.467355800036,True,False,stimulusKLRU16_2IFC_2019_Jun_17_1609_757,stimulusKLRU16_2IFC_2019_Jun_17_1609_758,False,2019_Jun_17_1609,2IFC,3,KLRU16,
2IFC,4,0,4,0,7.4,-1,correct answer,0.434106400004,True,False,stimulusKLRU16_2IFC_2019_Jun_17_1609_759,stimulusKLRU16_2IFC_2019_Jun_17_1609_760,False,2019_Jun_17_1609,2IFC,3,KLRU16,
2IFC,5,0,5,0,7.4,-1,correct answer,0.467316499969,True,False,stimulusKLRU16_2IFC_2019_Jun_17_1609_761,stimulusKLRU16_2IFC_2019_Jun_17_1609_762,False,2019_Jun_17_1609,2IFC,3,KLRU16,
2IFC,6,0,6,0,7.4,-1,correct answer,0.467204599991,True,False,stimulusKLRU16_2IFC_2019_Jun_17_1609_763,stimulusKLRU16_2IFC_2019_Jun_17_1609_764,False,2019_Jun_17_1609,2IFC,3,KLRU16,
2IFC,7,0,7,0,7.4,-1,correct answer,0.60077889997,False,True,stimulusKLRU16_2IFC_2019_Jun_17_1609_765,stimulusKLRU16_2IFC_2019_Jun_17_1609_766,False,2019_Jun_17_1609,2IFC,3,KLRU16,
2IFC,8,0,8,0,7.4,-1,correct answer,0.56763569999,True,False,stimulusKLRU16_2IFC_2019_Jun_17_1609_767,stimulusKLRU16_2IFC_2019_Jun_17_1609_768,False,2019_Jun_17_1609,2IFC,3,KLRU16,
2IFC,9,0,9,0,7.4,-1,correct answer,0.465556100011,True,False,stimulusKLRU16_2IFC_2019_Jun_17_1609_769,stimulusKLRU16_2IFC_2019_Jun_17_1609_770,False,2019_Jun_17_1609,2IFC,3,KLRU16,
2IFC,10,0,10,0,7.4,-1,correct answer,0.500404799997,True,False,stimulusKLRU16_2IFC_2019_Jun_17_1609_771,stimulusKLRU16_2IFC_2019_Jun_17_1609_772,False,2019_Jun_17_1609,2IFC,3,KLRU16,
2IFC,11,0,11,0,7.4,-1,correct answer,0.500547999982,False,True,stimulusKLRU16_2IFC_2019_Jun_17_1609_773,stimulusKLRU16_2IFC_2019_Jun_17_1609_774,False,2019_Jun_17_1609,2IFC,3,KLRU16,
2IFC,12,0,12,0,7.4,-1,correct answer,0.534251100034,False,True,stimulusKLRU16_2IFC_2019_Jun_17_1609_775,stimulusKLRU16_2IFC_2019_Jun_17_1609_776,False,2019_Jun_17_1609,2IFC,3,KLRU16,
2IFC,13,0,13,0,7.4,-1,correct answer,0.667520900024,False,True,stimulusKLRU16_2IFC_2019_Jun_17_1609_777,stimulusKLRU16_2IFC_2019_Jun_17_1609_778,False,2019_Jun_17_1609,2IFC,3,KLRU16,
2IFC,14,0,14,0,7.4,-1,correct answer,0.367116899986,True,False,stimulusKLRU16_2IFC_2019_Jun_17_1609_779,stimulusKLRU16_2IFC_2019_Jun_17_1609_780,False,2019_Jun_17_1609,2IFC,3,KLRU16,
2IFC,15,0,15,0,7.4,-1,wrong answer,0.534369600005,False,True,stimulusKLRU16_2IFC_2019_Jun_17_1609_781,stimulusKLRU16_2IFC_2019_Jun_17_1609_782,False,2019_Jun_17_1609,2IFC,3,KLRU16,
2IFC,16,0,16,0,7.4,-1,correct answer,0.400702600018,True,False,stimulusKLRU16_2IFC_2019_Jun_17_1609_783,stimulusKLRU16_2IFC_2019_Jun_17_1609_784,False,2019_Jun_17_1609,2IFC,3,KLRU16,
2IFC,17,0,17,0,7.4,-1,correct answer,0.567338400055,False,True,stimulusKLRU16_2IFC_2019_Jun_17_1609_785,stimulusKLRU16_2IFC_2019_Jun_17_1609_786,False,2019_Jun_17_1609,2IFC,3,KLRU16,
2IFC,18,0,18,0,7.4,-1,correct answer,0.434074599994,True,False,stimulusKLRU16_2IFC_2019_Jun_17_1609_787,stimulusKLRU16_2IFC_2019_Jun_17_1609_788,False,2019_Jun_17_1609,2IFC,3,KLRU16,
2IFC,19,0,19,0,7.4,-1,correct answer,0.467671399994,True,False,stimulusKLRU16_2IFC_2019_Jun_17_1609_789,stimulusKLRU16_2IFC_2019_Jun_17_1609_790,False,2019_Jun_17_1609,2IFC,3,KLRU16,
2IFC,20,0,20,0,7.4,-1,correct answer,0.434032999969,False,True,stimulusKLRU16_2IFC_2019_Jun_17_1609_791,stimulusKLRU16_2IFC_2019_Jun_17_1609_792,False,2019_Jun_17_1609,2IFC,3,KLRU16,
2IFC,21,0,21,0,7.4,-1,correct answer,0.400667899987,True,False,stimulusKLRU16_2IFC_2019_Jun_17_1609_793,stimulusKLRU16_2IFC_2019_Jun_17_1609_794,False,2019_Jun_17_1609,2IFC,3,KLRU16,
2IFC,22,0,22,0,7.4,-1,correct answer,0.601053900027,False,True,stimulusKLRU16_2IFC_2019_Jun_17_1609_795,stimulusKLRU16_2IFC_2019_Jun_17_1609_796,False,2019_Jun_17_1609,2IFC,3,KLRU16,
2IFC,23,0,23,0,7.4,-1,correct answer,0.735622700013,False,True,stimulusKLRU16_2IFC_2019_Jun_17_1609_797,stimulusKLRU16_2IFC_2019_Jun_17_1609_798,False,2019_Jun_17_1609,2IFC,3,KLRU16,
2IFC,24,0,24,0,7.4,-1,correct answer,0.770239500038,False,True,stimulusKLRU16_2IFC_2019_Jun_17_1609_799,stimulusKLRU16_2IFC_2019_Jun_17_1609_800,False,2019_Jun_17_1609,2IFC,3,KLRU16,
2IFC,25,0,25,0,7.4,-1,wrong answer,0.465195099998,True,False,stimulusKLRU16_2IFC_2019_Jun_17_1609_801,stimulusKLRU16_2IFC_2019_Jun_17_1609_802,False,2019_Jun_17_1609,2IFC,3,KLRU16,
2IFC,26,0,26,0,7.4,-1,correct answer,0.834288799961,False,True,stimulusKLRU16_2IFC_2019_Jun_17_1609_803,stimulusKLRU16_2IFC_2019_Jun_17_1609_804,False,2019_Jun_17_1609,2IFC,3,KLRU16,
2IFC,27,0,27,0,7.4,-1,correct answer,0.56697460002,False,True,stimulusKLRU16_2IFC_2019_Jun_17_1609_805,stimulusKLRU16_2IFC_2019_Jun_17_1609_806,False,2019_Jun_17_1609,2IFC,3,KLRU16,
2IFC,28,0,28,0,7.4,-1,correct answer,0.665774499997,True,False,stimulusKLRU16_2IFC_2019_Jun_17_1609_807,stimulusKLRU16_2IFC_2019_Jun_17_1609_808,False,2019_Jun_17_1609,2IFC,3,KLRU16,
2IFC,29,0,29,0,7.4,-1,correct answer,0.533766800014,False,True,stimulusKLRU16_2IFC_2019_Jun_17_1609_809,stimulusKLRU16_2IFC_2019_Jun_17_1609_810,False,2019_Jun_17_1609,2IFC,3,KLRU16,
2IFC,30,0,30,0,7.4,-1,correct answer,0.533931199985,False,True,stimulusKLRU16_2IFC_2019_Jun_17_1609_811,stimulusKLRU16_2IFC_2019_Jun_17_1609_812,False,2019_Jun_17_1609,2IFC,3,KLRU16,
2IFC,31,0,31,0,7.4,-1,correct answer,0.733198300004,False,True,stimulusKLRU16_2IFC_2019_Jun_17_1609_813,stimulusKLRU16_2IFC_2019_Jun_17_1609_814,False,2019_Jun_17_1609,2IFC,3,KLRU16,
2IFC,32,0,32,0,7.4,-1,correct answer,0.434309500037,True,False,stimulusKLRU16_2IFC_2019_Jun_17_1609_815,stimulusKLRU16_2IFC_2019_Jun_17_1609_816,False,2019_Jun_17_1609,2IFC,3,KLRU16,
2IFC,33,0,33,0,7.4,-1,correct answer,0.500756299996,False,True,stimulusKLRU16_2IFC_2019_Jun_17_1609_817,stimulusKLRU16_2IFC_2019_Jun_17_1609_818,False,2019_Jun_17_1609,2IFC,3,KLRU16,
2IFC,34,0,34,0,7.4,-1,correct answer,0.469533200026,True,False,stimulusKLRU16_2IFC_2019_Jun_17_1609_819,stimulusKLRU16_2IFC_2019_Jun_17_1609_820,False,2019_Jun_17_1609,2IFC,3,KLRU16,
2IFC,35,0,35,0,7.4,-1,correct answer,0.467587100051,False,True,stimulusKLRU16_2IFC_2019_Jun_17_1609_821,stimulusKLRU16_2IFC_2019_Jun_17_1609_822,False,2019_Jun_17_1609,2IFC,3,KLRU16,
2IFC,36,0,36,0,7.4,-1,correct answer,0.534416200011,True,False,stimulusKLRU16_2IFC_2019_Jun_17_1609_823,stimulusKLRU16_2IFC_2019_Jun_17_1609_824,False,2019_Jun_17_1609,2IFC,3,KLRU16,
2IFC,37,0,37,0,7.4,-1,correct answer,0.368168800022,False,True,stimulusKLRU16_2IFC_2019_Jun_17_1609_825,stimulusKLRU16_2IFC_2019_Jun_17_1609_826,False,2019_Jun_17_1609,2IFC,3,KLRU16,
2IFC,38,0,38,0,7.4,-1,correct answer,0.63378829998,False,True,stimulusKLRU16_2IFC_2019_Jun_17_1609_827,stimulusKLRU16_2IFC_2019_Jun_17_1609_828,False,2019_Jun_17_1609,2IFC,3,KLRU16,
2IFC,39,0,39,0,7.4,-1,correct answer,0.400457700016,True,False,stimulusKLRU16_2IFC_2019_Jun_17_1609_829,stimulusKLRU16_2IFC_2019_Jun_17_1609_830,False,2019_Jun_17_1609,2IFC,3,KLRU16,
2IFC,40,0,40,0,7.4,-1,correct answer,0.3997753,False,True,stimulusKLRU16_2IFC_2019_Jun_17_1609_831,stimulusKLRU16_2IFC_2019_Jun_17_1609_832,False,2019_Jun_17_1609,2IFC,3,KLRU16,
2IFC,41,0,41,0,7.4,-1,correct answer,0.567571300024,False,True,stimulusKLRU16_2IFC_2019_Jun_17_1609_833,stimulusKLRU16_2IFC_2019_Jun_17_1609_834,False,2019_Jun_17_1609,2IFC,3,KLRU16,
2IFC,42,0,42,0,7.4,-1,wrong answer,0.567454200005,True,False,stimulusKLRU16_2IFC_2019_Jun_17_1609_835,stimulusKLRU16_2IFC_2019_Jun_17_1609_836,False,2019_Jun_17_1609,2IFC,3,KLRU16,
2IFC,43,0,43,0,7.4,-1,correct answer,0.601377999992,False,True,stimulusKLRU16_2IFC_2019_Jun_17_1609_837,stimulusKLRU16_2IFC_2019_Jun_17_1609_838,False,2019_Jun_17_1609,2IFC,3,KLRU16,
2IFC,44,0,44,0,7.4,-1,correct answer,0.634329699969,False,True,stimulusKLRU16_2IFC_2019_Jun_17_1609_839,stimulusKLRU16_2IFC_2019_Jun_17_1609_840,False,2019_Jun_17_1609,2IFC,3,KLRU16,
2IFC,45,0,45,0,7.4,-1,correct answer,0.701328299998,True,False,stimulusKLRU16_2IFC_2019_Jun_17_1609_841,stimulusKLRU16_2IFC_2019_Jun_17_1609_842,False,2019_Jun_17_1609,2IFC,3,KLRU16,
2IFC,46,0,46,0,7.4,-1,correct answer,0.566988300008,True,False,stimulusKLRU16_2IFC_2019_Jun_17_1609_843,stimulusKLRU16_2IFC_2019_Jun_17_1609_844,False,2019_Jun_17_1609,2IFC,3,KLRU16,
2IFC,47,0,47,0,7.4,-1,correct answer,0.738430500031,False,True,stimulusKLRU16_2IFC_2019_Jun_17_1609_845,stimulusKLRU16_2IFC_2019_Jun_17_1609_846,False,2019_Jun_17_1609,2IFC,3,KLRU16,
2IFC,48,0,48,0,7.4,-1,correct answer,0.800533599977,False,True,stimulusKLRU16_2IFC_2019_Jun_17_1609_847,stimulusKLRU16_2IFC_2019_Jun_17_1609_848,False,2019_Jun_17_1609,2IFC,3,KLRU16,
2IFC,49,0,49,0,7.4,-1,correct answer,0.701174499991,False,True,stimulusKLRU16_2IFC_2019_Jun_17_1609_849,stimulusKLRU16_2IFC_2019_Jun_17_1609_850,False,2019_Jun_17_1609,2IFC,3,KLRU16,
2IFC,50,0,50,0,7.4,-1,correct answer,0.768106699979,False,True,stimulusKLRU16_2IFC_2019_Jun_17_1609_851,stimulusKLRU16_2IFC_2019_Jun_17_1609_852,False,2019_Jun_17_1609,2IFC,3,KLRU16,
2IFC,51,0,51,0,7.4,-1,correct answer,0.634995299974,False,True,stimulusKLRU16_2IFC_2019_Jun_17_1609_853,stimulusKLRU16_2IFC_2019_Jun_17_1609_854,False,2019_Jun_17_1609,2IFC,3,KLRU16,
2IFC,52,0,52,0,7.4,-1,correct answer,0.600870199967,True,False,stimulusKLRU16_2IFC_2019_Jun_17_1609_855,stimulusKLRU16_2IFC_2019_Jun_17_1609_856,False,2019_Jun_17_1609,2IFC,3,KLRU16,
2IFC,53,0,53,0,7.4,-1,correct answer,0.535065500007,True,False,stimulusKLRU16_2IFC_2019_Jun_17_1609_857,stimulusKLRU16_2IFC_2019_Jun_17_1609_858,False,2019_Jun_17_1609,2IFC,3,KLRU16,
2IFC,54,0,54,0,7.4,-1,correct answer,0.600871299976,False,True,stimulusKLRU16_2IFC_2019_Jun_17_1609_859,stimulusKLRU16_2IFC_2019_Jun_17_1609_860,False,2019_Jun_17_1609,2IFC,3,KLRU16,
2IFC,55,0,55,0,7.4,-1,correct answer,0.533779899997,True,False,stimulusKLRU16_2IFC_2019_Jun_17_1609_861,stimulusKLRU16_2IFC_2019_Jun_17_1609_862,False,2019_Jun_17_1609,2IFC,3,KLRU16,
2IFC,56,0,56,0,7.4,-1,correct answer,0.500758000009,True,False,stimulusKLRU16_2IFC_2019_Jun_17_1609_863,stimulusKLRU16_2IFC_2019_Jun_17_1609_864,False,2019_Jun_17_1609,2IFC,3,KLRU16,
2IFC,57,0,57,0,7.4,-1,correct answer,0.834533100016,True,False,stimulusKLRU16_2IFC_2019_Jun_17_1609_865,stimulusKLRU16_2IFC_2019_Jun_17_1609_866,False,2019_Jun_17_1609,2IFC,3,KLRU16,
2IFC,58,0,58,0,7.4,-1,correct answer,0.500637999969,False,True,stimulusKLRU16_2IFC_2019_Jun_17_1609_867,stimulusKLRU16_2IFC_2019_Jun_17_1609_868,False,2019_Jun_17_1609,2IFC,3,KLRU16,
2IFC,59,0,59,0,7.4,-1,wrong answer,0.667446699983,True,False,stimulusKLRU16_2IFC_2019_Jun_17_1609_869,stimulusKLRU16_2IFC_2019_Jun_17_1609_870,False,2019_Jun_17_1609,2IFC,3,KLRU16,
2IFC,60,0,60,0,7.4,-1,correct answer,0.467209300026,True,False,stimulusKLRU16_2IFC_2019_Jun_17_1609_871,stimulusKLRU16_2IFC_2019_Jun_17_1609_872,False,2019_Jun_17_1609,2IFC,3,KLRU16,
2IFC,61,0,61,0,7.4,-1,correct answer,0.634384699981,False,True,stimulusKLRU16_2IFC_2019_Jun_17_1609_873,stimulusKLRU16_2IFC_2019_Jun_17_1609_874,False,2019_Jun_17_1609,2IFC,3,KLRU16,
2IFC,62,0,62,0,7.4,-1,correct answer,0.367034299998,True,False,stimulusKLRU16_2IFC_2019_Jun_17_1609_875,stimulusKLRU16_2IFC_2019_Jun_17_1609_876,False,2019_Jun_17_1609,2IFC,3,KLRU16,
2IFC,63,0,63,0,7.4,-1,correct answer,0.500995999959,False,True,stimulusKLRU16_2IFC_2019_Jun_17_1609_877,stimulusKLRU16_2IFC_2019_Jun_17_1609_878,False,2019_Jun_17_1609,2IFC,3,KLRU16,
2IFC,64,0,64,0,7.4,-1,correct answer,0.53401090001,True,False,stimulusKLRU16_2IFC_2019_Jun_17_1609_879,stimulusKLRU16_2IFC_2019_Jun_17_1609_880,False,2019_Jun_17_1609,2IFC,3,KLRU16,
2IFC,65,0,65,0,7.4,-1,correct answer,0.467485400033,True,False,stimulusKLRU16_2IFC_2019_Jun_17_1609_881,stimulusKLRU16_2IFC_2019_Jun_17_1609_882,False,2019_Jun_17_1609,2IFC,3,KLRU16,
2IFC,66,0,66,0,7.4,-1,correct answer,0.435359900002,False,True,stimulusKLRU16_2IFC_2019_Jun_17_1609_883,stimulusKLRU16_2IFC_2019_Jun_17_1609_884,False,2019_Jun_17_1609,2IFC,3,KLRU16,
2IFC,67,0,67,0,7.4,-1,correct answer,0.434432199982,False,True,stimulusKLRU16_2IFC_2019_Jun_17_1609_885,stimulusKLRU16_2IFC_2019_Jun_17_1609_886,False,2019_Jun_17_1609,2IFC,3,KLRU16,
2IFC,68,0,68,0,7.4,-1,correct answer,0.433932200016,True,False,stimulusKLRU16_2IFC_2019_Jun_17_1609_887,stimulusKLRU16_2IFC_2019_Jun_17_1609_888,False,2019_Jun_17_1609,2IFC,3,KLRU16,
2IFC,69,0,69,0,7.4,-1,correct answer,0.467445299961,False,True,stimulusKLRU16_2IFC_2019_Jun_17_1609_889,stimulusKLRU16_2IFC_2019_Jun_17_1609_890,False,2019_Jun_17_1609,2IFC,3,KLRU16,
2IFC,70,0,70,0,7.4,-1,correct answer,0.433762700006,True,False,stimulusKLRU16_2IFC_2019_Jun_17_1609_891,stimulusKLRU16_2IFC_2019_Jun_17_1609_892,False,2019_Jun_17_1609,2IFC,3,KLRU16,
2IFC,71,0,71,0,7.4,-1,correct answer,0.40042640001,False,True,stimulusKLRU16_2IFC_2019_Jun_17_1609_893,stimulusKLRU16_2IFC_2019_Jun_17_1609_894,False,2019_Jun_17_1609,2IFC,3,KLRU16,
2IFC,72,0,72,0,7.4,-1,correct answer,0.367389499967,False,True,stimulusKLRU16_2IFC_2019_Jun_17_1609_895,stimulusKLRU16_2IFC_2019_Jun_17_1609_896,False,2019_Jun_17_1609,2IFC,3,KLRU16,
2IFC,73,0,73,0,7.4,-1,correct answer,0.600389899977,False,True,stimulusKLRU16_2IFC_2019_Jun_17_1609_897,stimulusKLRU16_2IFC_2019_Jun_17_1609_898,False,2019_Jun_17_1609,2IFC,3,KLRU16,
2IFC,74,0,74,0,7.4,-1,correct answer,0.433755400009,False,True,stimulusKLRU16_2IFC_2019_Jun_17_1609_899,stimulusKLRU16_2IFC_2019_Jun_17_1609_900,False,2019_Jun_17_1609,2IFC,3,KLRU16,
2IFC,0,0,0,0,5.1,-1,wrong answer,0.500646299974,True,False,stimulusKLRU16_2IFC_2019_Jun_17_1609_901,stimulusKLRU16_2IFC_2019_Jun_17_1609_902,False,2019_Jun_17_1609,2IFC,3,KLRU16,
2IFC,1,0,1,0,5.1,-1,correct answer,0.601155799988,False,True,stimulusKLRU16_2IFC_2019_Jun_17_1609_903,stimulusKLRU16_2IFC_2019_Jun_17_1609_904,False,2019_Jun_17_1609,2IFC,3,KLRU16,
2IFC,2,0,2,0,5.1,-1,correct answer,0.60064259998,True,False,stimulusKLRU16_2IFC_2019_Jun_17_1609_905,stimulusKLRU16_2IFC_2019_Jun_17_1609_906,False,2019_Jun_17_1609,2IFC,3,KLRU16,
2IFC,3,0,3,0,5.1,-1,correct answer,0.433683500043,False,True,stimulusKLRU16_2IFC_2019_Jun_17_1609_907,stimulusKLRU16_2IFC_2019_Jun_17_1609_908,False,2019_Jun_17_1609,2IFC,3,KLRU16,
2IFC,4,0,4,0,5.1,-1,correct answer,0.533184200001,True,False,stimulusKLRU16_2IFC_2019_Jun_17_1609_909,stimulusKLRU16_2IFC_2019_Jun_17_1609_910,False,2019_Jun_17_1609,2IFC,3,KLRU16,
2IFC,5,0,5,0,5.1,-1,wrong answer,0.6346319,False,True,stimulusKLRU16_2IFC_2019_Jun_17_1609_911,stimulusKLRU16_2IFC_2019_Jun_17_1609_912,False,2019_Jun_17_1609,2IFC,3,KLRU16,
2IFC,6,0,6,0,5.1,-1,correct answer,0.400503500015,True,False,stimulusKLRU16_2IFC_2019_Jun_17_1609_913,stimulusKLRU16_2IFC_2019_Jun_17_1609_914,False,2019_Jun_17_1609,2IFC,3,KLRU16,
2IFC,7,0,7,0,5.1,-1,correct answer,0.4671753,True,False,stimulusKLRU16_2IFC_2019_Jun_17_1609_915,stimulusKLRU16_2IFC_2019_Jun_17_1609_916,False,2019_Jun_17_1609,2IFC,3,KLRU16,
2IFC,8,0,8,0,5.1,-1,wrong answer,0.567915499967,True,False,stimulusKLRU16_2IFC_2019_Jun_17_1609_917,stimulusKLRU16_2IFC_2019_Jun_17_1609_918,False,2019_Jun_17_1609,2IFC,3,KLRU16,
2IFC,9,0,9,0,5.1,-1,correct answer,0.400482099969,True,False,stimulusKLRU16_2IFC_2019_Jun_17_1609_919,stimulusKLRU16_2IFC_2019_Jun_17_1609_920,False,2019_Jun_17_1609,2IFC,3,KLRU16,
2IFC,10,0,10,0,5.1,-1,correct answer,0.502827299992,True,False,stimulusKLRU16_2IFC_2019_Jun_17_1609_921,stimulusKLRU16_2IFC_2019_Jun_17_1609_922,False,2019_Jun_17_1609,2IFC,3,KLRU16,
2IFC,11,0,11,0,5.1,-1,correct answer,0.533851400018,True,False,stimulusKLRU16_2IFC_2019_Jun_17_1609_923,stimulusKLRU16_2IFC_2019_Jun_17_1609_924,False,2019_Jun_17_1609,2IFC,3,KLRU16,
2IFC,12,0,12,0,5.1,-1,correct answer,0.700151900004,True,False,stimulusKLRU16_2IFC_2019_Jun_17_1609_925,stimulusKLRU16_2IFC_2019_Jun_17_1609_926,False,2019_Jun_17_1609,2IFC,3,KLRU16,
2IFC,13,0,13,0,5.1,-1,correct answer,0.567276699992,False,True,stimulusKLRU16_2IFC_2019_Jun_17_1609_927,stimulusKLRU16_2IFC_2019_Jun_17_1609_928,False,2019_Jun_17_1609,2IFC,3,KLRU16,
2IFC,14,0,14,0,5.1,-1,correct answer,0.466675599979,True,False,stimulusKLRU16_2IFC_2019_Jun_17_1609_929,stimulusKLRU16_2IFC_2019_Jun_17_1609_930,False,2019_Jun_17_1609,2IFC,3,KLRU16,
2IFC,15,0,15,0,5.1,-1,correct answer,0.466361599974,True,False,stimulusKLRU16_2IFC_2019_Jun_17_1609_931,stimulusKLRU16_2IFC_2019_Jun_17_1609_932,False,2019_Jun_17_1609,2IFC,3,KLRU16,
2IFC,16,0,16,0,5.1,-1,correct answer,0.499986500014,True,False,stimulusKLRU16_2IFC_2019_Jun_17_1609_933,stimulusKLRU16_2IFC_2019_Jun_17_1609_934,False,2019_Jun_17_1609,2IFC,3,KLRU16,
2IFC,17,0,17,0,5.1,-1,correct answer,0.401126600045,False,True,stimulusKLRU16_2IFC_2019_Jun_17_1609_935,stimulusKLRU16_2IFC_2019_Jun_17_1609_936,False,2019_Jun_17_1609,2IFC,3,KLRU16,
2IFC,18,0,18,0,5.1,-1,correct answer,0.46729890001,True,False,stimulusKLRU16_2IFC_2019_Jun_17_1609_937,stimulusKLRU16_2IFC_2019_Jun_17_1609_938,False,2019_Jun_17_1609,2IFC,3,KLRU16,
2IFC,19,0,19,0,5.1,-1,correct answer,0.433417099994,False,True,stimulusKLRU16_2IFC_2019_Jun_17_1609_939,stimulusKLRU16_2IFC_2019_Jun_17_1609_940,False,2019_Jun_17_1609,2IFC,3,KLRU16,
2IFC,20,0,20,0,5.1,-1,wrong answer,0.600793199963,True,False,stimulusKLRU16_2IFC_2019_Jun_17_1609_941,stimulusKLRU16_2IFC_2019_Jun_17_1609_942,False,2019_Jun_17_1609,2IFC,3,KLRU16,
2IFC,21,0,21,0,5.1,-1,correct answer,0.56736549997,True,False,stimulusKLRU16_2IFC_2019_Jun_17_1609_943,stimulusKLRU16_2IFC_2019_Jun_17_1609_944,False,2019_Jun_17_1609,2IFC,3,KLRU16,
2IFC,22,0,22,0,5.1,-1,correct answer,0.534029399976,True,False,stimulusKLRU16_2IFC_2019_Jun_17_1609_945,stimulusKLRU16_2IFC_2019_Jun_17_1609_946,False,2019_Jun_17_1609,2IFC,3,KLRU16,
2IFC,23,0,23,0,5.1,-1,correct answer,0.6022964,True,False,stimulusKLRU16_2IFC_2019_Jun_17_1609_947,stimulusKLRU16_2IFC_2019_Jun_17_1609_948,False,2019_Jun_17_1609,2IFC,3,KLRU16,
2IFC,24,0,24,0,5.1,-1,correct answer,0.569263399986,True,False,stimulusKLRU16_2IFC_2019_Jun_17_1609_949,stimulusKLRU16_2IFC_2019_Jun_17_1609_950,False,2019_Jun_17_1609,2IFC,3,KLRU16,
2IFC,25,0,25,0,5.1,-1,correct answer,0.567544699996,True,False,stimulusKLRU16_2IFC_2019_Jun_17_1609_951,stimulusKLRU16_2IFC_2019_Jun_17_1609_952,False,2019_Jun_17_1609,2IFC,3,KLRU16,
2IFC,26,0,26,0,5.1,-1,correct answer,0.634380600008,True,False,stimulusKLRU16_2IFC_2019_Jun_17_1609_953,stimulusKLRU16_2IFC_2019_Jun_17_1609_954,False,2019_Jun_17_1609,2IFC,3,KLRU16,
2IFC,27,0,27,0,5.1,-1,wrong answer,0.867541000014,True,False,stimulusKLRU16_2IFC_2019_Jun_17_1609_955,stimulusKLRU16_2IFC_2019_Jun_17_1609_956,False,2019_Jun_17_1609,2IFC,3,KLRU16,
2IFC,28,0,28,0,5.1,-1,correct answer,0.6009509,True,False,stimulusKLRU16_2IFC_2019_Jun_17_1609_957,stimulusKLRU16_2IFC_2019_Jun_17_1609_958,False,2019_Jun_17_1609,2IFC,3,KLRU16,
2IFC,29,0,29,0,5.1,-1,correct answer,0.56713510002,True,False,stimulusKLRU16_2IFC_2019_Jun_17_1609_959,stimulusKLRU16_2IFC_2019_Jun_17_1609_960,False,2019_Jun_17_1609,2IFC,3,KLRU16,
2IFC,30,0,30,0,5.1,-1,correct answer,0.566503799986,True,False,stimulusKLRU16_2IFC_2019_Jun_17_1609_961,stimulusKLRU16_2IFC_2019_Jun_17_1609_962,False,2019_Jun_17_1609,2IFC,3,KLRU16,
2IFC,31,0,31,0,5.1,-1,correct answer,0.500678499986,False,True,stimulusKLRU16_2IFC_2019_Jun_17_1609_963,stimulusKLRU16_2IFC_2019_Jun_17_1609_964,False,2019_Jun_17_1609,2IFC,3,KLRU16,
2IFC,32,0,32,0,5.1,-1,correct answer,0.534258699976,True,False,stimulusKLRU16_2IFC_2019_Jun_17_1609_965,stimulusKLRU16_2IFC_2019_Jun_17_1609_966,False,2019_Jun_17_1609,2IFC,3,KLRU16,
2IFC,33,0,33,0,5.1,-1,correct answer,0.500654699979,True,False,stimulusKLRU16_2IFC_2019_Jun_17_1609_967,stimulusKLRU16_2IFC_2019_Jun_17_1609_968,False,2019_Jun_17_1609,2IFC,3,KLRU16,
2IFC,34,0,34,0,5.1,-1,correct answer,0.600860300008,True,False,stimulusKLRU16_2IFC_2019_Jun_17_1609_969,stimulusKLRU16_2IFC_2019_Jun_17_1609_970,False,2019_Jun_17_1609,2IFC,3,KLRU16,
2IFC,35,0,35,0,5.1,-1,correct answer,0.500606700021,False,True,stimulusKLRU16_2IFC_2019_Jun_17_1609_971,stimulusKLRU16_2IFC_2019_Jun_17_1609_972,False,2019_Jun_17_1609,2IFC,3,KLRU16,
2IFC,36,0,36,0,5.1,-1,correct answer,0.56715279998,False,True,stimulusKLRU16_2IFC_2019_Jun_17_1609_973,stimulusKLRU16_2IFC_2019_Jun_17_1609_974,False,2019_Jun_17_1609,2IFC,3,KLRU16,
2IFC,37,0,37,0,5.1,-1,correct answer,0.567654599959,True,False,stimulusKLRU16_2IFC_2019_Jun_17_1609_975,stimulusKLRU16_2IFC_2019_Jun_17_1609_976,False,2019_Jun_17_1609,2IFC,3,KLRU16,
2IFC,38,0,38,0,5.1,-1,wrong answer,0.4674199,True,False,stimulusKLRU16_2IFC_2019_Jun_17_1609_977,stimulusKLRU16_2IFC_2019_Jun_17_1609_978,False,2019_Jun_17_1609,2IFC,3,KLRU16,
2IFC,39,0,39,0,5.1,-1,correct answer,0.600785799965,False,True,stimulusKLRU16_2IFC_2019_Jun_17_1609_979,stimulusKLRU16_2IFC_2019_Jun_17_1609_980,False,2019_Jun_17_1609,2IFC,3,KLRU16,
2IFC,40,0,40,0,5.1,-1,correct answer,0.600050600013,False,True,stimulusKLRU16_2IFC_2019_Jun_17_1609_981,stimulusKLRU16_2IFC_2019_Jun_17_1609_982,False,2019_Jun_17_1609,2IFC,3,KLRU16,
2IFC,41,0,41,0,5.1,-1,correct answer,0.334488800028,False,True,stimulusKLRU16_2IFC_2019_Jun_17_1609_983,stimulusKLRU16_2IFC_2019_Jun_17_1609_984,False,2019_Jun_17_1609,2IFC,3,KLRU16,
2IFC,42,0,42,0,5.1,-1,correct answer,0.43436819996,False,True,stimulusKLRU16_2IFC_2019_Jun_17_1609_985,stimulusKLRU16_2IFC_2019_Jun_17_1609_986,False,2019_Jun_17_1609,2IFC,3,KLRU16,
2IFC,43,0,43,0,5.1,-1,wrong answer,0.436808999977,True,False,stimulusKLRU16_2IFC_2019_Jun_17_1609_987,stimulusKLRU16_2IFC_2019_Jun_17_1609_988,False,2019_Jun_17_1609,2IFC,3,KLRU16,
2IFC,44,0,44,0,5.1,-1,correct answer,0.501013700035,True,False,stimulusKLRU16_2IFC_2019_Jun_17_1609_989,stimulusKLRU16_2IFC_2019_Jun_17_1609_990,False,2019_Jun_17_1609,2IFC,3,KLRU16,
2IFC,45,0,45,0,5.1,-1,wrong answer,0.734829500027,False,True,stimulusKLRU16_2IFC_2019_Jun_17_1609_991,stimulusKLRU16_2IFC_2019_Jun_17_1609_992,False,2019_Jun_17_1609,2IFC,3,KLRU16,
2IFC,46,0,46,0,5.1,-1,correct answer,0.568120600015,False,True,stimulusKLRU16_2IFC_2019_Jun_17_1609_993,stimulusKLRU16_2IFC_2019_Jun_17_1609_994,False,2019_Jun_17_1609,2IFC,3,KLRU16,
2IFC,47,0,47,0,5.1,-1,wrong answer,0.534110900015,True,False,stimulusKLRU16_2IFC_2019_Jun_17_1609_995,stimulusKLRU16_2IFC_2019_Jun_17_1609_996,False,2019_Jun_17_1609,2IFC,3,KLRU16,
2IFC,48,0,48,0,5.1,-1,correct answer,0.50136200001,False,True,stimulusKLRU16_2IFC_2019_Jun_17_1609_997,stimulusKLRU16_2IFC_2019_Jun_17_1609_998,False,2019_Jun_17_1609,2IFC,3,KLRU16,
2IFC,49,0,49,0,5.1,-1,wrong answer,0.700871600013,False,True,stimulusKLRU16_2IFC_2019_Jun_17_1609_999,stimulusKLRU16_2IFC_2019_Jun_17_1609_1000,False,2019_Jun_17_1609,2IFC,3,KLRU16,
2IFC,50,0,50,0,5.1,-1,wrong answer,0.600639200013,True,False,stimulusKLRU16_2IFC_2019_Jun_17_1609_1001,stimulusKLRU16_2IFC_2019_Jun_17_1609_1002,False,2019_Jun_17_1609,2IFC,3,KLRU16,
2IFC,51,0,51,0,5.1,-1,correct answer,0.434617299994,True,False,stimulusKLRU16_2IFC_2019_Jun_17_1609_1003,stimulusKLRU16_2IFC_2019_Jun_17_1609_1004,False,2019_Jun_17_1609,2IFC,3,KLRU16,
2IFC,52,0,52,0,5.1,-1,wrong answer,0.534441699972,False,True,stimulusKLRU16_2IFC_2019_Jun_17_1609_1005,stimulusKLRU16_2IFC_2019_Jun_17_1609_1006,False,2019_Jun_17_1609,2IFC,3,KLRU16,
2IFC,53,0,53,0,5.1,-1,wrong answer,0.801050999959,False,True,stimulusKLRU16_2IFC_2019_Jun_17_1609_1007,stimulusKLRU16_2IFC_2019_Jun_17_1609_1008,False,2019_Jun_17_1609,2IFC,3,KLRU16,
2IFC,54,0,54,0,5.1,-1,correct answer,0.5671477,False,True,stimulusKLRU16_2IFC_2019_Jun_17_1609_1009,stimulusKLRU16_2IFC_2019_Jun_17_1609_1010,False,2019_Jun_17_1609,2IFC,3,KLRU16,
2IFC,55,0,55,0,5.1,-1,wrong answer,0.734601299977,True,False,stimulusKLRU16_2IFC_2019_Jun_17_1609_1011,stimulusKLRU16_2IFC_2019_Jun_17_1609_1012,False,2019_Jun_17_1609,2IFC,3,KLRU16,
2IFC,56,0,56,0,5.1,-1,correct answer,0.566168099991,True,False,stimulusKLRU16_2IFC_2019_Jun_17_1609_1013,stimulusKLRU16_2IFC_2019_Jun_17_1609_1014,False,2019_Jun_17_1609,2IFC,3,KLRU16,
2IFC,57,0,57,0,5.1,-1,correct answer,0.600416699948,False,True,stimulusKLRU16_2IFC_2019_Jun_17_1609_1015,stimulusKLRU16_2IFC_2019_Jun_17_1609_1016,False,2019_Jun_17_1609,2IFC,3,KLRU16,
2IFC,58,0,58,0,5.1,-1,wrong answer,0.600804299989,False,True,stimulusKLRU16_2IFC_2019_Jun_17_1609_1017,stimulusKLRU16_2IFC_2019_Jun_17_1609_1018,False,2019_Jun_17_1609,2IFC,3,KLRU16,
2IFC,59,0,59,0,5.1,-1,correct answer,0.500654500036,True,False,stimulusKLRU16_2IFC_2019_Jun_17_1609_1019,stimulusKLRU16_2IFC_2019_Jun_17_1609_1020,False,2019_Jun_17_1609,2IFC,3,KLRU16,
2IFC,60,0,60,0,5.1,-1,correct answer,0.567114400037,True,False,stimulusKLRU16_2IFC_2019_Jun_17_1609_1021,stimulusKLRU16_2IFC_2019_Jun_17_1609_1022,False,2019_Jun_17_1609,2IFC,3,KLRU16,
2IFC,61,0,61,0,5.1,-1,correct answer,0.567524200014,True,False,stimulusKLRU16_2IFC_2019_Jun_17_1609_1023,stimulusKLRU16_2IFC_2019_Jun_17_1609_1024,False,2019_Jun_17_1609,2IFC,3,KLRU16,
2IFC,62,0,62,0,5.1,-1,correct answer,0.333974300011,True,False,stimulusKLRU16_2IFC_2019_Jun_17_1609_1025,stimulusKLRU16_2IFC_2019_Jun_17_1609_1026,False,2019_Jun_17_1609,2IFC,3,KLRU16,
2IFC,63,0,63,0,5.1,-1,correct answer,0.53410759999,True,False,stimulusKLRU16_2IFC_2019_Jun_17_1609_1027,stimulusKLRU16_2IFC_2019_Jun_17_1609_1028,False,2019_Jun_17_1609,2IFC,3,KLRU16,
2IFC,64,0,64,0,5.1,-1,correct answer,0.56769940001,True,False,stimulusKLRU16_2IFC_2019_Jun_17_1609_1029,stimulusKLRU16_2IFC_2019_Jun_17_1609_1030,False,2019_Jun_17_1609,2IFC,3,KLRU16,
2IFC,65,0,65,0,5.1,-1,wrong answer,0.669931099983,True,False,stimulusKLRU16_2IFC_2019_Jun_17_1609_1031,stimulusKLRU16_2IFC_2019_Jun_17_1609_1032,False,2019_Jun_17_1609,2IFC,3,KLRU16,
2IFC,66,0,66,0,5.1,-1,no answer,-1,False,True,stimulusKLRU16_2IFC_2019_Jun_17_1609_1033,stimulusKLRU16_2IFC_2019_Jun_17_1609_1034,False,2019_Jun_17_1609,2IFC,3,KLRU16,
2IFC,67,0,67,0,5.1,-1,correct answer,0.333825799986,True,False,stimulusKLRU16_2IFC_2019_Jun_17_1609_1035,stimulusKLRU16_2IFC_2019_Jun_17_1609_1036,False,2019_Jun_17_1609,2IFC,3,KLRU16,
2IFC,68,0,68,0,5.1,-1,correct answer,0.334814900008,True,False,stimulusKLRU16_2IFC_2019_Jun_17_1609_1037,stimulusKLRU16_2IFC_2019_Jun_17_1609_1038,False,2019_Jun_17_1609,2IFC,3,KLRU16,
2IFC,69,0,69,0,5.1,-1,correct answer,0.46721079998,True,False,stimulusKLRU16_2IFC_2019_Jun_17_1609_1039,stimulusKLRU16_2IFC_2019_Jun_17_1609_1040,False,2019_Jun_17_1609,2IFC,3,KLRU16,
2IFC,70,0,70,0,5.1,-1,wrong answer,0.63428550004,False,True,stimulusKLRU16_2IFC_2019_Jun_17_1609_1041,stimulusKLRU16_2IFC_2019_Jun_17_1609_1042,False,2019_Jun_17_1609,2IFC,3,KLRU16,
2IFC,71,0,71,0,5.1,-1,correct answer,0.700783799984,True,False,stimulusKLRU16_2IFC_2019_Jun_17_1609_1043,stimulusKLRU16_2IFC_2019_Jun_17_1609_1044,False,2019_Jun_17_1609,2IFC,3,KLRU16,
2IFC,72,0,72,0,5.1,-1,correct answer,0.467341800046,False,True,stimulusKLRU16_2IFC_2019_Jun_17_1609_1045,stimulusKLRU16_2IFC_2019_Jun_17_1609_1046,False,2019_Jun_17_1609,2IFC,3,KLRU16,
2IFC,73,0,73,0,5.1,-1,correct answer,0.533956600004,True,False,stimulusKLRU16_2IFC_2019_Jun_17_1609_1047,stimulusKLRU16_2IFC_2019_Jun_17_1609_1048,False,2019_Jun_17_1609,2IFC,3,KLRU16,
2IFC,74,0,74,0,5.1,-1,correct answer,0.56703809998,False,True,stimulusKLRU16_2IFC_2019_Jun_17_1609_1049,stimulusKLRU16_2IFC_2019_Jun_17_1609_1050,False,2019_Jun_17_1609,2IFC,3,KLRU16,
2IFC,0,0,0,0,6.4,-1,correct answer,0.434140700032,True,False,stimulusKLRU16_2IFC_2019_Jun_17_1609_1051,stimulusKLRU16_2IFC_2019_Jun_17_1609_1052,False,2019_Jun_17_1609,2IFC,3,KLRU16,
2IFC,1,0,1,0,6.4,-1,correct answer,0.4672823,True,False,stimulusKLRU16_2IFC_2019_Jun_17_1609_1053,stimulusKLRU16_2IFC_2019_Jun_17_1609_1054,False,2019_Jun_17_1609,2IFC,3,KLRU16,
2IFC,2,0,2,0,6.4,-1,correct answer,0.567507100001,False,True,stimulusKLRU16_2IFC_2019_Jun_17_1609_1055,stimulusKLRU16_2IFC_2019_Jun_17_1609_1056,False,2019_Jun_17_1609,2IFC,3,KLRU16,
2IFC,3,0,3,0,6.4,-1,correct answer,0.501010200009,False,True,stimulusKLRU16_2IFC_2019_Jun_17_1609_1057,stimulusKLRU16_2IFC_2019_Jun_17_1609_1058,False,2019_Jun_17_1609,2IFC,3,KLRU16,
2IFC,4,0,4,0,6.4,-1,correct answer,0.500748199993,False,True,stimulusKLRU16_2IFC_2019_Jun_17_1609_1059,stimulusKLRU16_2IFC_2019_Jun_17_1609_1060,False,2019_Jun_17_1609,2IFC,3,KLRU16,
2IFC,5,0,5,0,6.4,-1,correct answer,0.498738399998,False,True,stimulusKLRU16_2IFC_2019_Jun_17_1609_1061,stimulusKLRU16_2IFC_2019_Jun_17_1609_1062,False,2019_Jun_17_1609,2IFC,3,KLRU16,
2IFC,6,0,6,0,6.4,-1,correct answer,0.567805900006,False,True,stimulusKLRU16_2IFC_2019_Jun_17_1609_1063,stimulusKLRU16_2IFC_2019_Jun_17_1609_1064,False,2019_Jun_17_1609,2IFC,3,KLRU16,
2IFC,7,0,7,0,6.4,-1,correct answer,0.534469800012,False,True,stimulusKLRU16_2IFC_2019_Jun_17_1609_1065,stimulusKLRU16_2IFC_2019_Jun_17_1609_1066,False,2019_Jun_17_1609,2IFC,3,KLRU16,
2IFC,8,0,8,0,6.4,-1,correct answer,0.700173599995,True,False,stimulusKLRU16_2IFC_2019_Jun_17_1609_1067,stimulusKLRU16_2IFC_2019_Jun_17_1609_1068,False,2019_Jun_17_1609,2IFC,3,KLRU16,
2IFC,9,0,9,0,6.4,-1,wrong answer,0.600771000027,True,False,stimulusKLRU16_2IFC_2019_Jun_17_1609_1069,stimulusKLRU16_2IFC_2019_Jun_17_1609_1070,False,2019_Jun_17_1609,2IFC,3,KLRU16,
2IFC,10,0,10,0,6.4,-1,correct answer,0.700656100002,True,False,stimulusKLRU16_2IFC_2019_Jun_17_1609_1071,stimulusKLRU16_2IFC_2019_Jun_17_1609_1072,False,2019_Jun_17_1609,2IFC,3,KLRU16,
2IFC,11,0,11,0,6.4,-1,correct answer,0.402580099995,False,True,stimulusKLRU16_2IFC_2019_Jun_17_1609_1073,stimulusKLRU16_2IFC_2019_Jun_17_1609_1074,False,2019_Jun_17_1609,2IFC,3,KLRU16,
2IFC,12,0,12,0,6.4,-1,correct answer,0.535314100038,True,False,stimulusKLRU16_2IFC_2019_Jun_17_1609_1075,stimulusKLRU16_2IFC_2019_Jun_17_1609_1076,False,2019_Jun_17_1609,2IFC,3,KLRU16,
2IFC,13,0,13,0,6.4,-1,wrong answer,0.634031199967,True,False,stimulusKLRU16_2IFC_2019_Jun_17_1609_1077,stimulusKLRU16_2IFC_2019_Jun_17_1609_1078,False,2019_Jun_17_1609,2IFC,3,KLRU16,
2IFC,14,0,14,0,6.4,-1,correct answer,0.501004600024,False,True,stimulusKLRU16_2IFC_2019_Jun_17_1609_1079,stimulusKLRU16_2IFC_2019_Jun_17_1609_1080,False,2019_Jun_17_1609,2IFC,3,KLRU16,
2IFC,15,0,15,0,6.4,-1,correct answer,0.534539900022,True,False,stimulusKLRU16_2IFC_2019_Jun_17_1609_1081,stimulusKLRU16_2IFC_2019_Jun_17_1609_1082,False,2019_Jun_17_1609,2IFC,3,KLRU16,
2IFC,16,0,16,0,6.4,-1,correct answer,0.633762200014,False,True,stimulusKLRU16_2IFC_2019_Jun_17_1609_1083,stimulusKLRU16_2IFC_2019_Jun_17_1609_1084,False,2019_Jun_17_1609,2IFC,3,KLRU16,
2IFC,17,0,17,0,6.4,-1,correct answer,0.834462500003,False,True,stimulusKLRU16_2IFC_2019_Jun_17_1609_1085,stimulusKLRU16_2IFC_2019_Jun_17_1609_1086,False,2019_Jun_17_1609,2IFC,3,KLRU16,
2IFC,18,0,18,0,6.4,-1,wrong answer,0.599131099996,False,True,stimulusKLRU16_2IFC_2019_Jun_17_1609_1087,stimulusKLRU16_2IFC_2019_Jun_17_1609_1088,False,2019_Jun_17_1609,2IFC,3,KLRU16,
2IFC,19,0,19,0,6.4,-1,correct answer,0.734714700026,False,True,stimulusKLRU16_2IFC_2019_Jun_17_1609_1089,stimulusKLRU16_2IFC_2019_Jun_17_1609_1090,False,2019_Jun_17_1609,2IFC,3,KLRU16,
2IFC,20,0,20,0,6.4,-1,wrong answer,0.500903000007,False,True,stimulusKLRU16_2IFC_2019_Jun_17_1609_1091,stimulusKLRU16_2IFC_2019_Jun_17_1609_1092,False,2019_Jun_17_1609,2IFC,3,KLRU16,
2IFC,21,0,21,0,6.4,-1,wrong answer,0.768064300006,True,False,stimulusKLRU16_2IFC_2019_Jun_17_1609_1093,stimulusKLRU16_2IFC_2019_Jun_17_1609_1094,False,2019_Jun_17_1609,2IFC,3,KLRU16,
