Task,trials.thisRepN,trials.thisTrialN,trials.thisN,trials.thisIndex,signal_intensity,constant Value,response,time_response,signal_on_stimuluspos1,signal_on_stimuluspos2,stimulus_name_pos1,stimulus_name_pos2,random_intensity,date,expName,session,participant,
Yes-No Task,0,0,0,0,11.6,-1,Correct Rejection,0.50037090003,False,-1,stimulus_KLRU16_Yes-No Task_2019_Jun_17_1717_1,-1,False,2019_Jun_17_1717,Yes-No Task,3,KLRU16,
Yes-No Task,1,0,1,0,11.6,-1,Correct Rejection,0.767601999978,False,-1,stimulus_KLRU16_Yes-No Task_2019_Jun_17_1717_2,-1,False,2019_Jun_17_1717,Yes-No Task,3,KLRU16,
Yes-No Task,2,0,2,0,11.6,-1,Hit,0.465846799954,True,-1,stimulus_KLRU16_Yes-No Task_2019_Jun_17_1717_3,-1,False,2019_Jun_17_1717,Yes-No Task,3,KLRU16,
Yes-No Task,3,0,3,0,11.6,-1,Correct Rejection,0.500047599955,False,-1,stimulus_KLRU16_Yes-No Task_2019_Jun_17_1717_4,-1,False,2019_Jun_17_1717,Yes-No Task,3,KLRU16,
Yes-No Task,4,0,4,0,11.6,-1,Hit,0.467043799988,True,-1,stimulus_KLRU16_Yes-No Task_2019_Jun_17_1717_5,-1,False,2019_Jun_17_1717,Yes-No Task,3,KLRU16,
Yes-No Task,5,0,5,0,11.6,-1,Hit,0.50055300002,True,-1,stimulus_KLRU16_Yes-No Task_2019_Jun_17_1717_6,-1,False,2019_Jun_17_1717,Yes-No Task,3,KLRU16,
Yes-No Task,6,0,6,0,11.6,-1,Hit,0.466540599999,True,-1,stimulus_KLRU16_Yes-No Task_2019_Jun_17_1717_7,-1,False,2019_Jun_17_1717,Yes-No Task,3,KLRU16,
Yes-No Task,7,0,7,0,11.6,-1,Correct Rejection,0.433268700028,False,-1,stimulus_KLRU16_Yes-No Task_2019_Jun_17_1717_8,-1,False,2019_Jun_17_1717,Yes-No Task,3,KLRU16,
Yes-No Task,8,0,8,0,11.6,-1,Correct Rejection,0.500842100009,False,-1,stimulus_KLRU16_Yes-No Task_2019_Jun_17_1717_9,-1,False,2019_Jun_17_1717,Yes-No Task,3,KLRU16,
Yes-No Task,9,0,9,0,11.6,-1,Hit,0.433882299985,True,-1,stimulus_KLRU16_Yes-No Task_2019_Jun_17_1717_10,-1,False,2019_Jun_17_1717,Yes-No Task,3,KLRU16,
Yes-No Task,10,0,10,0,11.6,-1,Hit,0.567295400018,True,-1,stimulus_KLRU16_Yes-No Task_2019_Jun_17_1717_11,-1,False,2019_Jun_17_1717,Yes-No Task,3,KLRU16,
Yes-No Task,11,0,11,0,11.6,-1,Hit,0.533118799969,True,-1,stimulus_KLRU16_Yes-No Task_2019_Jun_17_1717_12,-1,False,2019_Jun_17_1717,Yes-No Task,3,KLRU16,
Yes-No Task,12,0,12,0,11.6,-1,Correct Rejection,0.43482340005,False,-1,stimulus_KLRU16_Yes-No Task_2019_Jun_17_1717_13,-1,False,2019_Jun_17_1717,Yes-No Task,3,KLRU16,
Yes-No Task,13,0,13,0,11.6,-1,Correct Rejection,0.468655399978,False,-1,stimulus_KLRU16_Yes-No Task_2019_Jun_17_1717_14,-1,False,2019_Jun_17_1717,Yes-No Task,3,KLRU16,
Yes-No Task,14,0,14,0,11.6,-1,Hit,0.433735699975,True,-1,stimulus_KLRU16_Yes-No Task_2019_Jun_17_1717_15,-1,False,2019_Jun_17_1717,Yes-No Task,3,KLRU16,
Yes-No Task,15,0,15,0,11.6,-1,Correct Rejection,0.468343099987,False,-1,stimulus_KLRU16_Yes-No Task_2019_Jun_17_1717_16,-1,False,2019_Jun_17_1717,Yes-No Task,3,KLRU16,
Yes-No Task,16,0,16,0,11.6,-1,Hit,0.433704799972,True,-1,stimulus_KLRU16_Yes-No Task_2019_Jun_17_1717_17,-1,False,2019_Jun_17_1717,Yes-No Task,3,KLRU16,
Yes-No Task,17,0,17,0,11.6,-1,Hit,0.467097399989,True,-1,stimulus_KLRU16_Yes-No Task_2019_Jun_17_1717_18,-1,False,2019_Jun_17_1717,Yes-No Task,3,KLRU16,
Yes-No Task,18,0,18,0,11.6,-1,Correct Rejection,0.434455199982,False,-1,stimulus_KLRU16_Yes-No Task_2019_Jun_17_1717_19,-1,False,2019_Jun_17_1717,Yes-No Task,3,KLRU16,
Yes-No Task,19,0,19,0,11.6,-1,Hit,0.400884000002,True,-1,stimulus_KLRU16_Yes-No Task_2019_Jun_17_1717_20,-1,False,2019_Jun_17_1717,Yes-No Task,3,KLRU16,
Yes-No Task,20,0,20,0,11.6,-1,Correct Rejection,0.367252200027,False,-1,stimulus_KLRU16_Yes-No Task_2019_Jun_17_1717_21,-1,False,2019_Jun_17_1717,Yes-No Task,3,KLRU16,
Yes-No Task,21,0,21,0,11.6,-1,Hit,0.367227700015,True,-1,stimulus_KLRU16_Yes-No Task_2019_Jun_17_1717_22,-1,False,2019_Jun_17_1717,Yes-No Task,3,KLRU16,
Yes-No Task,22,0,22,0,11.6,-1,Correct Rejection,0.400444800034,False,-1,stimulus_KLRU16_Yes-No Task_2019_Jun_17_1717_23,-1,False,2019_Jun_17_1717,Yes-No Task,3,KLRU16,
Yes-No Task,23,0,23,0,11.6,-1,Hit,0.399507800001,True,-1,stimulus_KLRU16_Yes-No Task_2019_Jun_17_1717_24,-1,False,2019_Jun_17_1717,Yes-No Task,3,KLRU16,
Yes-No Task,24,0,24,0,11.6,-1,Hit,0.500494200038,True,-1,stimulus_KLRU16_Yes-No Task_2019_Jun_17_1717_25,-1,False,2019_Jun_17_1717,Yes-No Task,3,KLRU16,
Yes-No Task,25,0,25,0,11.6,-1,Hit,0.535440100008,True,-1,stimulus_KLRU16_Yes-No Task_2019_Jun_17_1717_26,-1,False,2019_Jun_17_1717,Yes-No Task,3,KLRU16,
Yes-No Task,26,0,26,0,11.6,-1,Hit,0.567598299996,True,-1,stimulus_KLRU16_Yes-No Task_2019_Jun_17_1717_27,-1,False,2019_Jun_17_1717,Yes-No Task,3,KLRU16,
Yes-No Task,27,0,27,0,11.6,-1,Correct Rejection,0.500837199972,False,-1,stimulus_KLRU16_Yes-No Task_2019_Jun_17_1717_28,-1,False,2019_Jun_17_1717,Yes-No Task,3,KLRU16,
Yes-No Task,28,0,28,0,11.6,-1,Correct Rejection,0.536061400024,False,-1,stimulus_KLRU16_Yes-No Task_2019_Jun_17_1717_29,-1,False,2019_Jun_17_1717,Yes-No Task,3,KLRU16,
Yes-No Task,29,0,29,0,11.6,-1,Correct Rejection,0.466469499981,False,-1,stimulus_KLRU16_Yes-No Task_2019_Jun_17_1717_30,-1,False,2019_Jun_17_1717,Yes-No Task,3,KLRU16,
Yes-No Task,30,0,30,0,11.6,-1,Correct Rejection,0.468435300048,False,-1,stimulus_KLRU16_Yes-No Task_2019_Jun_17_1717_31,-1,False,2019_Jun_17_1717,Yes-No Task,3,KLRU16,
Yes-No Task,31,0,31,0,11.6,-1,Hit,0.40012320003,True,-1,stimulus_KLRU16_Yes-No Task_2019_Jun_17_1717_32,-1,False,2019_Jun_17_1717,Yes-No Task,3,KLRU16,
Yes-No Task,32,0,32,0,11.6,-1,Correct Rejection,0.466140800039,False,-1,stimulus_KLRU16_Yes-No Task_2019_Jun_17_1717_33,-1,False,2019_Jun_17_1717,Yes-No Task,3,KLRU16,
Yes-No Task,33,0,33,0,11.6,-1,Hit,0.434182199999,True,-1,stimulus_KLRU16_Yes-No Task_2019_Jun_17_1717_34,-1,False,2019_Jun_17_1717,Yes-No Task,3,KLRU16,
Yes-No Task,34,0,34,0,11.6,-1,Hit,0.432910199976,True,-1,stimulus_KLRU16_Yes-No Task_2019_Jun_17_1717_35,-1,False,2019_Jun_17_1717,Yes-No Task,3,KLRU16,
Yes-No Task,35,0,35,0,11.6,-1,Hit,0.501673199993,True,-1,stimulus_KLRU16_Yes-No Task_2019_Jun_17_1717_36,-1,False,2019_Jun_17_1717,Yes-No Task,3,KLRU16,
Yes-No Task,36,0,36,0,11.6,-1,Hit,0.46728760004,True,-1,stimulus_KLRU16_Yes-No Task_2019_Jun_17_1717_37,-1,False,2019_Jun_17_1717,Yes-No Task,3,KLRU16,
Yes-No Task,37,0,37,0,11.6,-1,Correct Rejection,0.5003364,False,-1,stimulus_KLRU16_Yes-No Task_2019_Jun_17_1717_38,-1,False,2019_Jun_17_1717,Yes-No Task,3,KLRU16,
Yes-No Task,38,0,38,0,11.6,-1,False Alarm,0.534141000011,False,-1,stimulus_KLRU16_Yes-No Task_2019_Jun_17_1717_39,-1,False,2019_Jun_17_1717,Yes-No Task,3,KLRU16,
Yes-No Task,39,0,39,0,11.6,-1,Hit,0.533140100015,True,-1,stimulus_KLRU16_Yes-No Task_2019_Jun_17_1717_40,-1,False,2019_Jun_17_1717,Yes-No Task,3,KLRU16,
Yes-No Task,40,0,40,0,11.6,-1,Hit,0.467202899978,True,-1,stimulus_KLRU16_Yes-No Task_2019_Jun_17_1717_41,-1,False,2019_Jun_17_1717,Yes-No Task,3,KLRU16,
Yes-No Task,41,0,41,0,11.6,-1,Hit,0.467456900049,True,-1,stimulus_KLRU16_Yes-No Task_2019_Jun_17_1717_42,-1,False,2019_Jun_17_1717,Yes-No Task,3,KLRU16,
Yes-No Task,42,0,42,0,11.6,-1,Correct Rejection,0.567384099995,False,-1,stimulus_KLRU16_Yes-No Task_2019_Jun_17_1717_43,-1,False,2019_Jun_17_1717,Yes-No Task,3,KLRU16,
Yes-No Task,43,0,43,0,11.6,-1,Hit,0.535372100014,True,-1,stimulus_KLRU16_Yes-No Task_2019_Jun_17_1717_44,-1,False,2019_Jun_17_1717,Yes-No Task,3,KLRU16,
Yes-No Task,44,0,44,0,11.6,-1,Correct Rejection,0.534280999971,False,-1,stimulus_KLRU16_Yes-No Task_2019_Jun_17_1717_45,-1,False,2019_Jun_17_1717,Yes-No Task,3,KLRU16,
Yes-No Task,45,0,45,0,11.6,-1,Hit,0.467920599971,True,-1,stimulus_KLRU16_Yes-No Task_2019_Jun_17_1717_46,-1,False,2019_Jun_17_1717,Yes-No Task,3,KLRU16,
Yes-No Task,46,0,46,0,11.6,-1,Correct Rejection,0.400472000008,False,-1,stimulus_KLRU16_Yes-No Task_2019_Jun_17_1717_47,-1,False,2019_Jun_17_1717,Yes-No Task,3,KLRU16,
Yes-No Task,47,0,47,0,11.6,-1,Correct Rejection,0.567292599997,False,-1,stimulus_KLRU16_Yes-No Task_2019_Jun_17_1717_48,-1,False,2019_Jun_17_1717,Yes-No Task,3,KLRU16,
Yes-No Task,48,0,48,0,11.6,-1,Hit,0.500694400049,True,-1,stimulus_KLRU16_Yes-No Task_2019_Jun_17_1717_49,-1,False,2019_Jun_17_1717,Yes-No Task,3,KLRU16,
Yes-No Task,49,0,49,0,11.6,-1,Hit,0.534208099998,True,-1,stimulus_KLRU16_Yes-No Task_2019_Jun_17_1717_50,-1,False,2019_Jun_17_1717,Yes-No Task,3,KLRU16,
Yes-No Task,50,0,50,0,11.6,-1,Hit,0.533529800014,True,-1,stimulus_KLRU16_Yes-No Task_2019_Jun_17_1717_51,-1,False,2019_Jun_17_1717,Yes-No Task,3,KLRU16,
Yes-No Task,51,0,51,0,11.6,-1,Hit,0.500407400017,True,-1,stimulus_KLRU16_Yes-No Task_2019_Jun_17_1717_52,-1,False,2019_Jun_17_1717,Yes-No Task,3,KLRU16,
Yes-No Task,52,0,52,0,11.6,-1,Correct Rejection,0.567740699975,False,-1,stimulus_KLRU16_Yes-No Task_2019_Jun_17_1717_53,-1,False,2019_Jun_17_1717,Yes-No Task,3,KLRU16,
Yes-No Task,53,0,53,0,11.6,-1,Hit,0.400525600009,True,-1,stimulus_KLRU16_Yes-No Task_2019_Jun_17_1717_54,-1,False,2019_Jun_17_1717,Yes-No Task,3,KLRU16,
Yes-No Task,54,0,54,0,11.6,-1,Hit,0.501626999991,True,-1,stimulus_KLRU16_Yes-No Task_2019_Jun_17_1717_55,-1,False,2019_Jun_17_1717,Yes-No Task,3,KLRU16,
Yes-No Task,55,0,55,0,11.6,-1,Hit,0.499561099976,True,-1,stimulus_KLRU16_Yes-No Task_2019_Jun_17_1717_56,-1,False,2019_Jun_17_1717,Yes-No Task,3,KLRU16,
Yes-No Task,56,0,56,0,11.6,-1,Correct Rejection,0.501235200034,False,-1,stimulus_KLRU16_Yes-No Task_2019_Jun_17_1717_57,-1,False,2019_Jun_17_1717,Yes-No Task,3,KLRU16,
Yes-No Task,57,0,57,0,11.6,-1,Hit,0.497828799998,True,-1,stimulus_KLRU16_Yes-No Task_2019_Jun_17_1717_58,-1,False,2019_Jun_17_1717,Yes-No Task,3,KLRU16,
Yes-No Task,58,0,58,0,11.6,-1,Correct Rejection,0.634071300039,False,-1,stimulus_KLRU16_Yes-No Task_2019_Jun_17_1717_59,-1,False,2019_Jun_17_1717,Yes-No Task,3,KLRU16,
Yes-No Task,59,0,59,0,11.6,-1,Hit,0.534407499945,True,-1,stimulus_KLRU16_Yes-No Task_2019_Jun_17_1717_60,-1,False,2019_Jun_17_1717,Yes-No Task,3,KLRU16,
Yes-No Task,60,0,60,0,11.6,-1,Correct Rejection,0.500424600032,False,-1,stimulus_KLRU16_Yes-No Task_2019_Jun_17_1717_61,-1,False,2019_Jun_17_1717,Yes-No Task,3,KLRU16,
Yes-No Task,61,0,61,0,11.6,-1,Correct Rejection,0.434085800021,False,-1,stimulus_KLRU16_Yes-No Task_2019_Jun_17_1717_62,-1,False,2019_Jun_17_1717,Yes-No Task,3,KLRU16,
Yes-No Task,62,0,62,0,11.6,-1,Correct Rejection,0.566697100003,False,-1,stimulus_KLRU16_Yes-No Task_2019_Jun_17_1717_63,-1,False,2019_Jun_17_1717,Yes-No Task,3,KLRU16,
Yes-No Task,63,0,63,0,11.6,-1,Correct Rejection,0.500526999997,False,-1,stimulus_KLRU16_Yes-No Task_2019_Jun_17_1717_64,-1,False,2019_Jun_17_1717,Yes-No Task,3,KLRU16,
Yes-No Task,64,0,64,0,11.6,-1,Correct Rejection,0.499393400038,False,-1,stimulus_KLRU16_Yes-No Task_2019_Jun_17_1717_65,-1,False,2019_Jun_17_1717,Yes-No Task,3,KLRU16,
Yes-No Task,65,0,65,0,11.6,-1,Hit,0.567313699983,True,-1,stimulus_KLRU16_Yes-No Task_2019_Jun_17_1717_66,-1,False,2019_Jun_17_1717,Yes-No Task,3,KLRU16,
Yes-No Task,66,0,66,0,11.6,-1,Hit,0.501499400008,True,-1,stimulus_KLRU16_Yes-No Task_2019_Jun_17_1717_67,-1,False,2019_Jun_17_1717,Yes-No Task,3,KLRU16,
Yes-No Task,67,0,67,0,11.6,-1,Hit,0.49928649998,True,-1,stimulus_KLRU16_Yes-No Task_2019_Jun_17_1717_68,-1,False,2019_Jun_17_1717,Yes-No Task,3,KLRU16,
Yes-No Task,68,0,68,0,11.6,-1,Correct Rejection,0.500604100002,False,-1,stimulus_KLRU16_Yes-No Task_2019_Jun_17_1717_69,-1,False,2019_Jun_17_1717,Yes-No Task,3,KLRU16,
Yes-No Task,69,0,69,0,11.6,-1,Correct Rejection,0.500750000007,False,-1,stimulus_KLRU16_Yes-No Task_2019_Jun_17_1717_70,-1,False,2019_Jun_17_1717,Yes-No Task,3,KLRU16,
Yes-No Task,70,0,70,0,11.6,-1,Correct Rejection,0.500619800005,False,-1,stimulus_KLRU16_Yes-No Task_2019_Jun_17_1717_71,-1,False,2019_Jun_17_1717,Yes-No Task,3,KLRU16,
Yes-No Task,71,0,71,0,11.6,-1,Correct Rejection,0.400588299963,False,-1,stimulus_KLRU16_Yes-No Task_2019_Jun_17_1717_72,-1,False,2019_Jun_17_1717,Yes-No Task,3,KLRU16,
Yes-No Task,72,0,72,0,11.6,-1,Hit,0.534080899961,True,-1,stimulus_KLRU16_Yes-No Task_2019_Jun_17_1717_73,-1,False,2019_Jun_17_1717,Yes-No Task,3,KLRU16,
Yes-No Task,73,0,73,0,11.6,-1,Hit,0.50078870001,True,-1,stimulus_KLRU16_Yes-No Task_2019_Jun_17_1717_74,-1,False,2019_Jun_17_1717,Yes-No Task,3,KLRU16,
Yes-No Task,74,0,74,0,11.6,-1,Hit,0.500387799984,True,-1,stimulus_KLRU16_Yes-No Task_2019_Jun_17_1717_75,-1,False,2019_Jun_17_1717,Yes-No Task,3,KLRU16,
Yes-No Task,0,0,0,0,10.4,-1,Correct Rejection,0.53406939999,False,-1,stimulus_KLRU16_Yes-No Task_2019_Jun_17_1717_76,-1,False,2019_Jun_17_1717,Yes-No Task,3,KLRU16,
Yes-No Task,1,0,1,0,10.4,-1,Correct Rejection,0.398972399998,False,-1,stimulus_KLRU16_Yes-No Task_2019_Jun_17_1717_77,-1,False,2019_Jun_17_1717,Yes-No Task,3,KLRU16,
Yes-No Task,2,0,2,0,10.4,-1,Correct Rejection,0.500097499986,False,-1,stimulus_KLRU16_Yes-No Task_2019_Jun_17_1717_78,-1,False,2019_Jun_17_1717,Yes-No Task,3,KLRU16,
Yes-No Task,3,0,3,0,10.4,-1,Correct Rejection,0.433939800016,False,-1,stimulus_KLRU16_Yes-No Task_2019_Jun_17_1717_79,-1,False,2019_Jun_17_1717,Yes-No Task,3,KLRU16,
Yes-No Task,4,0,4,0,10.4,-1,Correct Rejection,0.467490100011,False,-1,stimulus_KLRU16_Yes-No Task_2019_Jun_17_1717_80,-1,False,2019_Jun_17_1717,Yes-No Task,3,KLRU16,
Yes-No Task,5,0,5,0,10.4,-1,Correct Rejection,0.467660899973,False,-1,stimulus_KLRU16_Yes-No Task_2019_Jun_17_1717_81,-1,False,2019_Jun_17_1717,Yes-No Task,3,KLRU16,
Yes-No Task,6,0,6,0,10.4,-1,Hit,0.501657799992,True,-1,stimulus_KLRU16_Yes-No Task_2019_Jun_17_1717_82,-1,False,2019_Jun_17_1717,Yes-No Task,3,KLRU16,
Yes-No Task,7,0,7,0,10.4,-1,Correct Rejection,0.568429199979,False,-1,stimulus_KLRU16_Yes-No Task_2019_Jun_17_1717_83,-1,False,2019_Jun_17_1717,Yes-No Task,3,KLRU16,
Yes-No Task,8,0,8,0,10.4,-1,Hit,0.50092099997,True,-1,stimulus_KLRU16_Yes-No Task_2019_Jun_17_1717_84,-1,False,2019_Jun_17_1717,Yes-No Task,3,KLRU16,
Yes-No Task,9,0,9,0,10.4,-1,Miss,0.500775399967,True,-1,stimulus_KLRU16_Yes-No Task_2019_Jun_17_1717_85,-1,False,2019_Jun_17_1717,Yes-No Task,3,KLRU16,
Yes-No Task,10,0,10,0,10.4,-1,Hit,0.467241799983,True,-1,stimulus_KLRU16_Yes-No Task_2019_Jun_17_1717_86,-1,False,2019_Jun_17_1717,Yes-No Task,3,KLRU16,
Yes-No Task,11,0,11,0,10.4,-1,Correct Rejection,0.400283099967,False,-1,stimulus_KLRU16_Yes-No Task_2019_Jun_17_1717_87,-1,False,2019_Jun_17_1717,Yes-No Task,3,KLRU16,
Yes-No Task,12,0,12,0,10.4,-1,Correct Rejection,0.435496000049,False,-1,stimulus_KLRU16_Yes-No Task_2019_Jun_17_1717_88,-1,False,2019_Jun_17_1717,Yes-No Task,3,KLRU16,
Yes-No Task,13,0,13,0,10.4,-1,Correct Rejection,0.400331399986,False,-1,stimulus_KLRU16_Yes-No Task_2019_Jun_17_1717_89,-1,False,2019_Jun_17_1717,Yes-No Task,3,KLRU16,
Yes-No Task,14,0,14,0,10.4,-1,Hit,0.500990800036,True,-1,stimulus_KLRU16_Yes-No Task_2019_Jun_17_1717_90,-1,False,2019_Jun_17_1717,Yes-No Task,3,KLRU16,
Yes-No Task,15,0,15,0,10.4,-1,Hit,0.533519399993,True,-1,stimulus_KLRU16_Yes-No Task_2019_Jun_17_1717_91,-1,False,2019_Jun_17_1717,Yes-No Task,3,KLRU16,
Yes-No Task,16,0,16,0,10.4,-1,Correct Rejection,0.466450000007,False,-1,stimulus_KLRU16_Yes-No Task_2019_Jun_17_1717_92,-1,False,2019_Jun_17_1717,Yes-No Task,3,KLRU16,
Yes-No Task,17,0,17,0,10.4,-1,Hit,0.434255599976,True,-1,stimulus_KLRU16_Yes-No Task_2019_Jun_17_1717_93,-1,False,2019_Jun_17_1717,Yes-No Task,3,KLRU16,
Yes-No Task,18,0,18,0,10.4,-1,Correct Rejection,0.467397800006,False,-1,stimulus_KLRU16_Yes-No Task_2019_Jun_17_1717_94,-1,False,2019_Jun_17_1717,Yes-No Task,3,KLRU16,
Yes-No Task,19,0,19,0,10.4,-1,Hit,0.367214299971,True,-1,stimulus_KLRU16_Yes-No Task_2019_Jun_17_1717_95,-1,False,2019_Jun_17_1717,Yes-No Task,3,KLRU16,
Yes-No Task,20,0,20,0,10.4,-1,Correct Rejection,0.36743470002,False,-1,stimulus_KLRU16_Yes-No Task_2019_Jun_17_1717_96,-1,False,2019_Jun_17_1717,Yes-No Task,3,KLRU16,
Yes-No Task,21,0,21,0,10.4,-1,Hit,0.401573300012,True,-1,stimulus_KLRU16_Yes-No Task_2019_Jun_17_1717_97,-1,False,2019_Jun_17_1717,Yes-No Task,3,KLRU16,
Yes-No Task,22,0,22,0,10.4,-1,Hit,0.534391900001,True,-1,stimulus_KLRU16_Yes-No Task_2019_Jun_17_1717_98,-1,False,2019_Jun_17_1717,Yes-No Task,3,KLRU16,
Yes-No Task,23,0,23,0,10.4,-1,Hit,0.467630600033,True,-1,stimulus_KLRU16_Yes-No Task_2019_Jun_17_1717_99,-1,False,2019_Jun_17_1717,Yes-No Task,3,KLRU16,
Yes-No Task,24,0,24,0,10.4,-1,Correct Rejection,0.465974599996,False,-1,stimulus_KLRU16_Yes-No Task_2019_Jun_17_1717_100,-1,False,2019_Jun_17_1717,Yes-No Task,3,KLRU16,
Yes-No Task,25,0,25,0,10.4,-1,Hit,0.434007600008,True,-1,stimulus_KLRU16_Yes-No Task_2019_Jun_17_1717_101,-1,False,2019_Jun_17_1717,Yes-No Task,3,KLRU16,
Yes-No Task,26,0,26,0,10.4,-1,Correct Rejection,0.368020900001,False,-1,stimulus_KLRU16_Yes-No Task_2019_Jun_17_1717_102,-1,False,2019_Jun_17_1717,Yes-No Task,3,KLRU16,
Yes-No Task,27,0,27,0,10.4,-1,Hit,0.404135699966,True,-1,stimulus_KLRU16_Yes-No Task_2019_Jun_17_1717_103,-1,False,2019_Jun_17_1717,Yes-No Task,3,KLRU16,
Yes-No Task,28,0,28,0,10.4,-1,Hit,0.534262900008,True,-1,stimulus_KLRU16_Yes-No Task_2019_Jun_17_1717_104,-1,False,2019_Jun_17_1717,Yes-No Task,3,KLRU16,
Yes-No Task,29,0,29,0,10.4,-1,Hit,0.534136700036,True,-1,stimulus_KLRU16_Yes-No Task_2019_Jun_17_1717_105,-1,False,2019_Jun_17_1717,Yes-No Task,3,KLRU16,
Yes-No Task,30,0,30,0,10.4,-1,Correct Rejection,0.39985799999,False,-1,stimulus_KLRU16_Yes-No Task_2019_Jun_17_1717_106,-1,False,2019_Jun_17_1717,Yes-No Task,3,KLRU16,
Yes-No Task,31,0,31,0,10.4,-1,Hit,0.43398729997,True,-1,stimulus_KLRU16_Yes-No Task_2019_Jun_17_1717_107,-1,False,2019_Jun_17_1717,Yes-No Task,3,KLRU16,
Yes-No Task,32,0,32,0,10.4,-1,Correct Rejection,0.43345479999,False,-1,stimulus_KLRU16_Yes-No Task_2019_Jun_17_1717_108,-1,False,2019_Jun_17_1717,Yes-No Task,3,KLRU16,
Yes-No Task,33,0,33,0,10.4,-1,Hit,0.399520999985,True,-1,stimulus_KLRU16_Yes-No Task_2019_Jun_17_1717_109,-1,False,2019_Jun_17_1717,Yes-No Task,3,KLRU16,
Yes-No Task,34,0,34,0,10.4,-1,Correct Rejection,0.366862199968,False,-1,stimulus_KLRU16_Yes-No Task_2019_Jun_17_1717_110,-1,False,2019_Jun_17_1717,Yes-No Task,3,KLRU16,
Yes-No Task,35,0,35,0,10.4,-1,False Alarm,0.299585100031,False,-1,stimulus_KLRU16_Yes-No Task_2019_Jun_17_1717_111,-1,False,2019_Jun_17_1717,Yes-No Task,3,KLRU16,
Yes-No Task,36,0,36,0,10.4,-1,Hit,0.500884899986,True,-1,stimulus_KLRU16_Yes-No Task_2019_Jun_17_1717_112,-1,False,2019_Jun_17_1717,Yes-No Task,3,KLRU16,
Yes-No Task,37,0,37,0,10.4,-1,Correct Rejection,0.367631000001,False,-1,stimulus_KLRU16_Yes-No Task_2019_Jun_17_1717_113,-1,False,2019_Jun_17_1717,Yes-No Task,3,KLRU16,
Yes-No Task,38,0,38,0,10.4,-1,Miss,0.768687500036,True,-1,stimulus_KLRU16_Yes-No Task_2019_Jun_17_1717_114,-1,False,2019_Jun_17_1717,Yes-No Task,3,KLRU16,
Yes-No Task,39,0,39,0,10.4,-1,Correct Rejection,0.501982699963,False,-1,stimulus_KLRU16_Yes-No Task_2019_Jun_17_1717_115,-1,False,2019_Jun_17_1717,Yes-No Task,3,KLRU16,
Yes-No Task,40,0,40,0,10.4,-1,Correct Rejection,0.566980300006,False,-1,stimulus_KLRU16_Yes-No Task_2019_Jun_17_1717_116,-1,False,2019_Jun_17_1717,Yes-No Task,3,KLRU16,
Yes-No Task,41,0,41,0,10.4,-1,Correct Rejection,0.467110200028,False,-1,stimulus_KLRU16_Yes-No Task_2019_Jun_17_1717_117,-1,False,2019_Jun_17_1717,Yes-No Task,3,KLRU16,
Yes-No Task,42,0,42,0,10.4,-1,Hit,0.533992400044,True,-1,stimulus_KLRU16_Yes-No Task_2019_Jun_17_1717_118,-1,False,2019_Jun_17_1717,Yes-No Task,3,KLRU16,
Yes-No Task,43,0,43,0,10.4,-1,Correct Rejection,0.40021990001,False,-1,stimulus_KLRU16_Yes-No Task_2019_Jun_17_1717_119,-1,False,2019_Jun_17_1717,Yes-No Task,3,KLRU16,
Yes-No Task,44,0,44,0,10.4,-1,False Alarm,0.500429600012,False,-1,stimulus_KLRU16_Yes-No Task_2019_Jun_17_1717_120,-1,False,2019_Jun_17_1717,Yes-No Task,3,KLRU16,
Yes-No Task,45,0,45,0,10.4,-1,Correct Rejection,0.501018200011,False,-1,stimulus_KLRU16_Yes-No Task_2019_Jun_17_1717_121,-1,False,2019_Jun_17_1717,Yes-No Task,3,KLRU16,
Yes-No Task,46,0,46,0,10.4,-1,Correct Rejection,0.467243199993,False,-1,stimulus_KLRU16_Yes-No Task_2019_Jun_17_1717_122,-1,False,2019_Jun_17_1717,Yes-No Task,3,KLRU16,
Yes-No Task,47,0,47,0,10.4,-1,Hit,0.467274800001,True,-1,stimulus_KLRU16_Yes-No Task_2019_Jun_17_1717_123,-1,False,2019_Jun_17_1717,Yes-No Task,3,KLRU16,
Yes-No Task,48,0,48,0,10.4,-1,Correct Rejection,0.434252800012,False,-1,stimulus_KLRU16_Yes-No Task_2019_Jun_17_1717_124,-1,False,2019_Jun_17_1717,Yes-No Task,3,KLRU16,
Yes-No Task,49,0,49,0,10.4,-1,Correct Rejection,0.500094399962,False,-1,stimulus_KLRU16_Yes-No Task_2019_Jun_17_1717_125,-1,False,2019_Jun_17_1717,Yes-No Task,3,KLRU16,
Yes-No Task,50,0,50,0,10.4,-1,Correct Rejection,0.40061349998,False,-1,stimulus_KLRU16_Yes-No Task_2019_Jun_17_1717_126,-1,False,2019_Jun_17_1717,Yes-No Task,3,KLRU16,
Yes-No Task,51,0,51,0,10.4,-1,Correct Rejection,0.433911599976,False,-1,stimulus_KLRU16_Yes-No Task_2019_Jun_17_1717_127,-1,False,2019_Jun_17_1717,Yes-No Task,3,KLRU16,
Yes-No Task,52,0,52,0,10.4,-1,Hit,0.534107000043,True,-1,stimulus_KLRU16_Yes-No Task_2019_Jun_17_1717_128,-1,False,2019_Jun_17_1717,Yes-No Task,3,KLRU16,
Yes-No Task,53,0,53,0,10.4,-1,Correct Rejection,0.433615899994,False,-1,stimulus_KLRU16_Yes-No Task_2019_Jun_17_1717_129,-1,False,2019_Jun_17_1717,Yes-No Task,3,KLRU16,
Yes-No Task,54,0,54,0,10.4,-1,Hit,0.43369440001,True,-1,stimulus_KLRU16_Yes-No Task_2019_Jun_17_1717_130,-1,False,2019_Jun_17_1717,Yes-No Task,3,KLRU16,
Yes-No Task,55,0,55,0,10.4,-1,Hit,0.466086299974,True,-1,stimulus_KLRU16_Yes-No Task_2019_Jun_17_1717_131,-1,False,2019_Jun_17_1717,Yes-No Task,3,KLRU16,
Yes-No Task,56,0,56,0,10.4,-1,Hit,0.50033770001,True,-1,stimulus_KLRU16_Yes-No Task_2019_Jun_17_1717_132,-1,False,2019_Jun_17_1717,Yes-No Task,3,KLRU16,
Yes-No Task,57,0,57,0,10.4,-1,Hit,0.3671263,True,-1,stimulus_KLRU16_Yes-No Task_2019_Jun_17_1717_133,-1,False,2019_Jun_17_1717,Yes-No Task,3,KLRU16,
Yes-No Task,58,0,58,0,10.4,-1,Correct Rejection,0.466911100026,False,-1,stimulus_KLRU16_Yes-No Task_2019_Jun_17_1717_134,-1,False,2019_Jun_17_1717,Yes-No Task,3,KLRU16,
Yes-No Task,59,0,59,0,10.4,-1,Correct Rejection,0.43468950002,False,-1,stimulus_KLRU16_Yes-No Task_2019_Jun_17_1717_135,-1,False,2019_Jun_17_1717,Yes-No Task,3,KLRU16,
Yes-No Task,60,0,60,0,10.4,-1,Hit,0.500822300033,True,-1,stimulus_KLRU16_Yes-No Task_2019_Jun_17_1717_136,-1,False,2019_Jun_17_1717,Yes-No Task,3,KLRU16,
Yes-No Task,61,0,61,0,10.4,-1,Hit,0.502547800017,True,-1,stimulus_KLRU16_Yes-No Task_2019_Jun_17_1717_137,-1,False,2019_Jun_17_1717,Yes-No Task,3,KLRU16,
Yes-No Task,62,0,62,0,10.4,-1,Hit,0.467211199983,True,-1,stimulus_KLRU16_Yes-No Task_2019_Jun_17_1717_138,-1,False,2019_Jun_17_1717,Yes-No Task,3,KLRU16,
Yes-No Task,63,0,63,0,10.4,-1,Miss,0.566511300043,True,-1,stimulus_KLRU16_Yes-No Task_2019_Jun_17_1717_139,-1,False,2019_Jun_17_1717,Yes-No Task,3,KLRU16,
Yes-No Task,64,0,64,0,10.4,-1,Correct Rejection,0.533665399998,False,-1,stimulus_KLRU16_Yes-No Task_2019_Jun_17_1717_140,-1,False,2019_Jun_17_1717,Yes-No Task,3,KLRU16,
Yes-No Task,65,0,65,0,10.4,-1,Hit,0.465610600018,True,-1,stimulus_KLRU16_Yes-No Task_2019_Jun_17_1717_141,-1,False,2019_Jun_17_1717,Yes-No Task,3,KLRU16,
Yes-No Task,66,0,66,0,10.4,-1,Miss,0.533264999976,True,-1,stimulus_KLRU16_Yes-No Task_2019_Jun_17_1717_142,-1,False,2019_Jun_17_1717,Yes-No Task,3,KLRU16,
Yes-No Task,67,0,67,0,10.4,-1,Correct Rejection,0.600456200016,False,-1,stimulus_KLRU16_Yes-No Task_2019_Jun_17_1717_143,-1,False,2019_Jun_17_1717,Yes-No Task,3,KLRU16,
Yes-No Task,68,0,68,0,10.4,-1,Correct Rejection,0.533863699995,False,-1,stimulus_KLRU16_Yes-No Task_2019_Jun_17_1717_144,-1,False,2019_Jun_17_1717,Yes-No Task,3,KLRU16,
Yes-No Task,69,0,69,0,10.4,-1,Correct Rejection,0.498071399983,False,-1,stimulus_KLRU16_Yes-No Task_2019_Jun_17_1717_145,-1,False,2019_Jun_17_1717,Yes-No Task,3,KLRU16,
Yes-No Task,70,0,70,0,10.4,-1,Correct Rejection,0.534650499991,False,-1,stimulus_KLRU16_Yes-No Task_2019_Jun_17_1717_146,-1,False,2019_Jun_17_1717,Yes-No Task,3,KLRU16,
Yes-No Task,71,0,71,0,10.4,-1,Correct Rejection,0.470178499992,False,-1,stimulus_KLRU16_Yes-No Task_2019_Jun_17_1717_147,-1,False,2019_Jun_17_1717,Yes-No Task,3,KLRU16,
Yes-No Task,72,0,72,0,10.4,-1,Correct Rejection,0.500234199979,False,-1,stimulus_KLRU16_Yes-No Task_2019_Jun_17_1717_148,-1,False,2019_Jun_17_1717,Yes-No Task,3,KLRU16,
Yes-No Task,73,0,73,0,10.4,-1,Correct Rejection,0.50030449999,False,-1,stimulus_KLRU16_Yes-No Task_2019_Jun_17_1717_149,-1,False,2019_Jun_17_1717,Yes-No Task,3,KLRU16,
Yes-No Task,74,0,74,0,10.4,-1,Hit,0.467356799985,True,-1,stimulus_KLRU16_Yes-No Task_2019_Jun_17_1717_150,-1,False,2019_Jun_17_1717,Yes-No Task,3,KLRU16,
Yes-No Task,0,0,0,0,9.3,-1,Miss,0.434020200046,True,-1,stimulus_KLRU16_Yes-No Task_2019_Jun_17_1717_151,-1,False,2019_Jun_17_1717,Yes-No Task,3,KLRU16,
Yes-No Task,1,0,1,0,9.3,-1,Correct Rejection,0.567367799988,False,-1,stimulus_KLRU16_Yes-No Task_2019_Jun_17_1717_152,-1,False,2019_Jun_17_1717,Yes-No Task,3,KLRU16,
Yes-No Task,2,0,2,0,9.3,-1,Hit,0.499059900001,True,-1,stimulus_KLRU16_Yes-No Task_2019_Jun_17_1717_153,-1,False,2019_Jun_17_1717,Yes-No Task,3,KLRU16,
Yes-No Task,3,0,3,0,9.3,-1,Correct Rejection,0.433287799999,False,-1,stimulus_KLRU16_Yes-No Task_2019_Jun_17_1717_154,-1,False,2019_Jun_17_1717,Yes-No Task,3,KLRU16,
Yes-No Task,4,0,4,0,9.3,-1,Correct Rejection,0.434142699989,False,-1,stimulus_KLRU16_Yes-No Task_2019_Jun_17_1717_155,-1,False,2019_Jun_17_1717,Yes-No Task,3,KLRU16,
Yes-No Task,5,0,5,0,9.3,-1,Correct Rejection,0.434049100033,False,-1,stimulus_KLRU16_Yes-No Task_2019_Jun_17_1717_156,-1,False,2019_Jun_17_1717,Yes-No Task,3,KLRU16,
Yes-No Task,6,0,6,0,9.3,-1,Correct Rejection,0.533976300037,False,-1,stimulus_KLRU16_Yes-No Task_2019_Jun_17_1717_157,-1,False,2019_Jun_17_1717,Yes-No Task,3,KLRU16,
Yes-No Task,7,0,7,0,9.3,-1,Hit,0.467873800022,True,-1,stimulus_KLRU16_Yes-No Task_2019_Jun_17_1717_158,-1,False,2019_Jun_17_1717,Yes-No Task,3,KLRU16,
Yes-No Task,8,0,8,0,9.3,-1,Correct Rejection,0.433609399945,False,-1,stimulus_KLRU16_Yes-No Task_2019_Jun_17_1717_159,-1,False,2019_Jun_17_1717,Yes-No Task,3,KLRU16,
Yes-No Task,9,0,9,0,9.3,-1,Hit,0.401063300029,True,-1,stimulus_KLRU16_Yes-No Task_2019_Jun_17_1717_160,-1,False,2019_Jun_17_1717,Yes-No Task,3,KLRU16,
Yes-No Task,10,0,10,0,9.3,-1,Correct Rejection,0.401509399991,False,-1,stimulus_KLRU16_Yes-No Task_2019_Jun_17_1717_161,-1,False,2019_Jun_17_1717,Yes-No Task,3,KLRU16,
Yes-No Task,11,0,11,0,9.3,-1,Hit,0.400171199988,True,-1,stimulus_KLRU16_Yes-No Task_2019_Jun_17_1717_162,-1,False,2019_Jun_17_1717,Yes-No Task,3,KLRU16,
Yes-No Task,12,0,12,0,9.3,-1,Correct Rejection,0.300524099963,False,-1,stimulus_KLRU16_Yes-No Task_2019_Jun_17_1717_163,-1,False,2019_Jun_17_1717,Yes-No Task,3,KLRU16,
Yes-No Task,13,0,13,0,9.3,-1,Hit,0.500866200018,True,-1,stimulus_KLRU16_Yes-No Task_2019_Jun_17_1717_164,-1,False,2019_Jun_17_1717,Yes-No Task,3,KLRU16,
Yes-No Task,14,0,14,0,9.3,-1,Hit,0.601756400021,True,-1,stimulus_KLRU16_Yes-No Task_2019_Jun_17_1717_165,-1,False,2019_Jun_17_1717,Yes-No Task,3,KLRU16,
Yes-No Task,15,0,15,0,9.3,-1,Hit,0.533906300028,True,-1,stimulus_KLRU16_Yes-No Task_2019_Jun_17_1717_166,-1,False,2019_Jun_17_1717,Yes-No Task,3,KLRU16,
Yes-No Task,16,0,16,0,9.3,-1,Miss,0.40057920001,True,-1,stimulus_KLRU16_Yes-No Task_2019_Jun_17_1717_167,-1,False,2019_Jun_17_1717,Yes-No Task,3,KLRU16,
Yes-No Task,17,0,17,0,9.3,-1,Correct Rejection,0.467871600005,False,-1,stimulus_KLRU16_Yes-No Task_2019_Jun_17_1717_168,-1,False,2019_Jun_17_1717,Yes-No Task,3,KLRU16,
Yes-No Task,18,0,18,0,9.3,-1,Correct Rejection,0.533983500034,False,-1,stimulus_KLRU16_Yes-No Task_2019_Jun_17_1717_169,-1,False,2019_Jun_17_1717,Yes-No Task,3,KLRU16,
Yes-No Task,19,0,19,0,9.3,-1,Hit,0.567439100007,True,-1,stimulus_KLRU16_Yes-No Task_2019_Jun_17_1717_170,-1,False,2019_Jun_17_1717,Yes-No Task,3,KLRU16,
Yes-No Task,20,0,20,0,9.3,-1,Correct Rejection,0.466523599986,False,-1,stimulus_KLRU16_Yes-No Task_2019_Jun_17_1717_171,-1,False,2019_Jun_17_1717,Yes-No Task,3,KLRU16,
Yes-No Task,21,0,21,0,9.3,-1,Hit,0.433209199982,True,-1,stimulus_KLRU16_Yes-No Task_2019_Jun_17_1717_172,-1,False,2019_Jun_17_1717,Yes-No Task,3,KLRU16,
Yes-No Task,22,0,22,0,9.3,-1,Correct Rejection,0.534308100003,False,-1,stimulus_KLRU16_Yes-No Task_2019_Jun_17_1717_173,-1,False,2019_Jun_17_1717,Yes-No Task,3,KLRU16,
Yes-No Task,23,0,23,0,9.3,-1,Correct Rejection,0.633055699989,False,-1,stimulus_KLRU16_Yes-No Task_2019_Jun_17_1717_174,-1,False,2019_Jun_17_1717,Yes-No Task,3,KLRU16,
Yes-No Task,24,0,24,0,9.3,-1,Correct Rejection,0.500742900011,False,-1,stimulus_KLRU16_Yes-No Task_2019_Jun_17_1717_175,-1,False,2019_Jun_17_1717,Yes-No Task,3,KLRU16,
Yes-No Task,25,0,25,0,9.3,-1,Hit,0.467264999985,True,-1,stimulus_KLRU16_Yes-No Task_2019_Jun_17_1717_176,-1,False,2019_Jun_17_1717,Yes-No Task,3,KLRU16,
Yes-No Task,26,0,26,0,9.3,-1,Correct Rejection,0.466503500007,False,-1,stimulus_KLRU16_Yes-No Task_2019_Jun_17_1717_177,-1,False,2019_Jun_17_1717,Yes-No Task,3,KLRU16,
Yes-No Task,27,0,27,0,9.3,-1,Hit,0.500592200027,True,-1,stimulus_KLRU16_Yes-No Task_2019_Jun_17_1717_178,-1,False,2019_Jun_17_1717,Yes-No Task,3,KLRU16,
Yes-No Task,28,0,28,0,9.3,-1,Hit,0.5335815,True,-1,stimulus_KLRU16_Yes-No Task_2019_Jun_17_1717_179,-1,False,2019_Jun_17_1717,Yes-No Task,3,KLRU16,
Yes-No Task,29,0,29,0,9.3,-1,Correct Rejection,0.500444900012,False,-1,stimulus_KLRU16_Yes-No Task_2019_Jun_17_1717_180,-1,False,2019_Jun_17_1717,Yes-No Task,3,KLRU16,
Yes-No Task,30,0,30,0,9.3,-1,Correct Rejection,0.467397300003,False,-1,stimulus_KLRU16_Yes-No Task_2019_Jun_17_1717_181,-1,False,2019_Jun_17_1717,Yes-No Task,3,KLRU16,
Yes-No Task,31,0,31,0,9.3,-1,Miss,0.63390690001,True,-1,stimulus_KLRU16_Yes-No Task_2019_Jun_17_1717_182,-1,False,2019_Jun_17_1717,Yes-No Task,3,KLRU16,
Yes-No Task,32,0,32,0,9.3,-1,Hit,0.533888300008,True,-1,stimulus_KLRU16_Yes-No Task_2019_Jun_17_1717_183,-1,False,2019_Jun_17_1717,Yes-No Task,3,KLRU16,
Yes-No Task,33,0,33,0,9.3,-1,Correct Rejection,0.600243300025,False,-1,stimulus_KLRU16_Yes-No Task_2019_Jun_17_1717_184,-1,False,2019_Jun_17_1717,Yes-No Task,3,KLRU16,
Yes-No Task,34,0,34,0,9.3,-1,Correct Rejection,0.469530600007,False,-1,stimulus_KLRU16_Yes-No Task_2019_Jun_17_1717_185,-1,False,2019_Jun_17_1717,Yes-No Task,3,KLRU16,
Yes-No Task,35,0,35,0,9.3,-1,Hit,0.500946900051,True,-1,stimulus_KLRU16_Yes-No Task_2019_Jun_17_1717_186,-1,False,2019_Jun_17_1717,Yes-No Task,3,KLRU16,
Yes-No Task,36,0,36,0,9.3,-1,Hit,0.467187100032,True,-1,stimulus_KLRU16_Yes-No Task_2019_Jun_17_1717_187,-1,False,2019_Jun_17_1717,Yes-No Task,3,KLRU16,
Yes-No Task,37,0,37,0,9.3,-1,False Alarm,0.53320060001,False,-1,stimulus_KLRU16_Yes-No Task_2019_Jun_17_1717_188,-1,False,2019_Jun_17_1717,Yes-No Task,3,KLRU16,
Yes-No Task,38,0,38,0,9.3,-1,Correct Rejection,0.43374920002,False,-1,stimulus_KLRU16_Yes-No Task_2019_Jun_17_1717_189,-1,False,2019_Jun_17_1717,Yes-No Task,3,KLRU16,
Yes-No Task,39,0,39,0,9.3,-1,Correct Rejection,0.466279100045,False,-1,stimulus_KLRU16_Yes-No Task_2019_Jun_17_1717_190,-1,False,2019_Jun_17_1717,Yes-No Task,3,KLRU16,
Yes-No Task,40,0,40,0,9.3,-1,Correct Rejection,0.500344900007,False,-1,stimulus_KLRU16_Yes-No Task_2019_Jun_17_1717_191,-1,False,2019_Jun_17_1717,Yes-No Task,3,KLRU16,
Yes-No Task,41,0,41,0,9.3,-1,Hit,0.467798700032,True,-1,stimulus_KLRU16_Yes-No Task_2019_Jun_17_1717_192,-1,False,2019_Jun_17_1717,Yes-No Task,3,KLRU16,
Yes-No Task,42,0,42,0,9.3,-1,Correct Rejection,0.53412929998,False,-1,stimulus_KLRU16_Yes-No Task_2019_Jun_17_1717_193,-1,False,2019_Jun_17_1717,Yes-No Task,3,KLRU16,
Yes-No Task,43,0,43,0,9.3,-1,Correct Rejection,0.501176499994,False,-1,stimulus_KLRU16_Yes-No Task_2019_Jun_17_1717_194,-1,False,2019_Jun_17_1717,Yes-No Task,3,KLRU16,
Yes-No Task,44,0,44,0,9.3,-1,Correct Rejection,0.500712400011,False,-1,stimulus_KLRU16_Yes-No Task_2019_Jun_17_1717_195,-1,False,2019_Jun_17_1717,Yes-No Task,3,KLRU16,
Yes-No Task,45,0,45,0,9.3,-1,Hit,0.433752300043,True,-1,stimulus_KLRU16_Yes-No Task_2019_Jun_17_1717_196,-1,False,2019_Jun_17_1717,Yes-No Task,3,KLRU16,
Yes-No Task,46,0,46,0,9.3,-1,Correct Rejection,0.567344400042,False,-1,stimulus_KLRU16_Yes-No Task_2019_Jun_17_1717_197,-1,False,2019_Jun_17_1717,Yes-No Task,3,KLRU16,
Yes-No Task,47,0,47,0,9.3,-1,False Alarm,0.466890899988,False,-1,stimulus_KLRU16_Yes-No Task_2019_Jun_17_1717_198,-1,False,2019_Jun_17_1717,Yes-No Task,3,KLRU16,
Yes-No Task,48,0,48,0,9.3,-1,Hit,0.566814399965,True,-1,stimulus_KLRU16_Yes-No Task_2019_Jun_17_1717_199,-1,False,2019_Jun_17_1717,Yes-No Task,3,KLRU16,
Yes-No Task,49,0,49,0,9.3,-1,Correct Rejection,0.533477699966,False,-1,stimulus_KLRU16_Yes-No Task_2019_Jun_17_1717_200,-1,False,2019_Jun_17_1717,Yes-No Task,3,KLRU16,
Yes-No Task,50,0,50,0,9.3,-1,Correct Rejection,0.5350721,False,-1,stimulus_KLRU16_Yes-No Task_2019_Jun_17_1717_201,-1,False,2019_Jun_17_1717,Yes-No Task,3,KLRU16,
Yes-No Task,51,0,51,0,9.3,-1,Hit,0.500585399976,True,-1,stimulus_KLRU16_Yes-No Task_2019_Jun_17_1717_202,-1,False,2019_Jun_17_1717,Yes-No Task,3,KLRU16,
Yes-No Task,52,0,52,0,9.3,-1,Hit,0.532773700019,True,-1,stimulus_KLRU16_Yes-No Task_2019_Jun_17_1717_203,-1,False,2019_Jun_17_1717,Yes-No Task,3,KLRU16,
Yes-No Task,53,0,53,0,9.3,-1,Correct Rejection,0.566985399986,False,-1,stimulus_KLRU16_Yes-No Task_2019_Jun_17_1717_204,-1,False,2019_Jun_17_1717,Yes-No Task,3,KLRU16,
Yes-No Task,54,0,54,0,9.3,-1,Correct Rejection,0.466570100049,False,-1,stimulus_KLRU16_Yes-No Task_2019_Jun_17_1717_205,-1,False,2019_Jun_17_1717,Yes-No Task,3,KLRU16,
Yes-No Task,55,0,55,0,9.3,-1,Correct Rejection,0.699970800022,False,-1,stimulus_KLRU16_Yes-No Task_2019_Jun_17_1717_206,-1,False,2019_Jun_17_1717,Yes-No Task,3,KLRU16,
Yes-No Task,56,0,56,0,9.3,-1,Correct Rejection,0.46685180004,False,-1,stimulus_KLRU16_Yes-No Task_2019_Jun_17_1717_207,-1,False,2019_Jun_17_1717,Yes-No Task,3,KLRU16,
Yes-No Task,57,0,57,0,9.3,-1,Hit,0.535292999994,True,-1,stimulus_KLRU16_Yes-No Task_2019_Jun_17_1717_208,-1,False,2019_Jun_17_1717,Yes-No Task,3,KLRU16,
Yes-No Task,58,0,58,0,9.3,-1,Hit,0.567242199962,True,-1,stimulus_KLRU16_Yes-No Task_2019_Jun_17_1717_209,-1,False,2019_Jun_17_1717,Yes-No Task,3,KLRU16,
Yes-No Task,59,0,59,0,9.3,-1,Correct Rejection,0.469202100008,False,-1,stimulus_KLRU16_Yes-No Task_2019_Jun_17_1717_210,-1,False,2019_Jun_17_1717,Yes-No Task,3,KLRU16,
Yes-No Task,60,0,60,0,9.3,-1,Correct Rejection,0.533166699985,False,-1,stimulus_KLRU16_Yes-No Task_2019_Jun_17_1717_211,-1,False,2019_Jun_17_1717,Yes-No Task,3,KLRU16,
Yes-No Task,61,0,61,0,9.3,-1,Correct Rejection,0.500466199999,False,-1,stimulus_KLRU16_Yes-No Task_2019_Jun_17_1717_212,-1,False,2019_Jun_17_1717,Yes-No Task,3,KLRU16,
Yes-No Task,62,0,62,0,9.3,-1,Correct Rejection,0.500534900057,False,-1,stimulus_KLRU16_Yes-No Task_2019_Jun_17_1717_213,-1,False,2019_Jun_17_1717,Yes-No Task,3,KLRU16,
Yes-No Task,63,0,63,0,9.3,-1,Correct Rejection,0.533785699983,False,-1,stimulus_KLRU16_Yes-No Task_2019_Jun_17_1717_214,-1,False,2019_Jun_17_1717,Yes-No Task,3,KLRU16,
Yes-No Task,64,0,64,0,9.3,-1,Hit,0.500513400009,True,-1,stimulus_KLRU16_Yes-No Task_2019_Jun_17_1717_215,-1,False,2019_Jun_17_1717,Yes-No Task,3,KLRU16,
Yes-No Task,65,0,65,0,9.3,-1,Correct Rejection,0.500897300022,False,-1,stimulus_KLRU16_Yes-No Task_2019_Jun_17_1717_216,-1,False,2019_Jun_17_1717,Yes-No Task,3,KLRU16,
Yes-No Task,66,0,66,0,9.3,-1,Hit,0.534918299993,True,-1,stimulus_KLRU16_Yes-No Task_2019_Jun_17_1717_217,-1,False,2019_Jun_17_1717,Yes-No Task,3,KLRU16,
Yes-No Task,67,0,67,0,9.3,-1,Hit,0.534862799977,True,-1,stimulus_KLRU16_Yes-No Task_2019_Jun_17_1717_218,-1,False,2019_Jun_17_1717,Yes-No Task,3,KLRU16,
Yes-No Task,68,0,68,0,9.3,-1,Hit,0.533757500001,True,-1,stimulus_KLRU16_Yes-No Task_2019_Jun_17_1717_219,-1,False,2019_Jun_17_1717,Yes-No Task,3,KLRU16,
Yes-No Task,69,0,69,0,9.3,-1,Correct Rejection,0.500852499972,False,-1,stimulus_KLRU16_Yes-No Task_2019_Jun_17_1717_220,-1,False,2019_Jun_17_1717,Yes-No Task,3,KLRU16,
Yes-No Task,70,0,70,0,9.3,-1,Hit,0.467435099999,True,-1,stimulus_KLRU16_Yes-No Task_2019_Jun_17_1717_221,-1,False,2019_Jun_17_1717,Yes-No Task,3,KLRU16,
Yes-No Task,71,0,71,0,9.3,-1,Correct Rejection,0.500748899998,False,-1,stimulus_KLRU16_Yes-No Task_2019_Jun_17_1717_222,-1,False,2019_Jun_17_1717,Yes-No Task,3,KLRU16,
Yes-No Task,72,0,72,0,9.3,-1,Hit,0.500765900011,True,-1,stimulus_KLRU16_Yes-No Task_2019_Jun_17_1717_223,-1,False,2019_Jun_17_1717,Yes-No Task,3,KLRU16,
Yes-No Task,73,0,73,0,9.3,-1,Hit,0.466252599959,True,-1,stimulus_KLRU16_Yes-No Task_2019_Jun_17_1717_224,-1,False,2019_Jun_17_1717,Yes-No Task,3,KLRU16,
Yes-No Task,74,0,74,0,9.3,-1,Hit,0.500981200021,True,-1,stimulus_KLRU16_Yes-No Task_2019_Jun_17_1717_225,-1,False,2019_Jun_17_1717,Yes-No Task,3,KLRU16,
Yes-No Task,0,0,0,0,8.4,-1,Correct Rejection,0.366842099989,False,-1,stimulus_KLRU16_Yes-No Task_2019_Jun_17_1717_226,-1,False,2019_Jun_17_1717,Yes-No Task,3,KLRU16,
Yes-No Task,1,0,1,0,8.4,-1,Correct Rejection,0.398065199959,False,-1,stimulus_KLRU16_Yes-No Task_2019_Jun_17_1717_227,-1,False,2019_Jun_17_1717,Yes-No Task,3,KLRU16,
Yes-No Task,2,0,2,0,8.4,-1,Hit,0.433856599964,True,-1,stimulus_KLRU16_Yes-No Task_2019_Jun_17_1717_228,-1,False,2019_Jun_17_1717,Yes-No Task,3,KLRU16,
Yes-No Task,3,0,3,0,8.4,-1,Miss,0.567174599972,True,-1,stimulus_KLRU16_Yes-No Task_2019_Jun_17_1717_229,-1,False,2019_Jun_17_1717,Yes-No Task,3,KLRU16,
Yes-No Task,4,0,4,0,8.4,-1,Correct Rejection,0.434214500012,False,-1,stimulus_KLRU16_Yes-No Task_2019_Jun_17_1717_230,-1,False,2019_Jun_17_1717,Yes-No Task,3,KLRU16,
Yes-No Task,5,0,5,0,8.4,-1,Hit,0.466379399993,True,-1,stimulus_KLRU16_Yes-No Task_2019_Jun_17_1717_231,-1,False,2019_Jun_17_1717,Yes-No Task,3,KLRU16,
Yes-No Task,6,0,6,0,8.4,-1,Miss,0.400345799979,True,-1,stimulus_KLRU16_Yes-No Task_2019_Jun_17_1717_232,-1,False,2019_Jun_17_1717,Yes-No Task,3,KLRU16,
Yes-No Task,7,0,7,0,8.4,-1,Correct Rejection,0.434064200032,False,-1,stimulus_KLRU16_Yes-No Task_2019_Jun_17_1717_233,-1,False,2019_Jun_17_1717,Yes-No Task,3,KLRU16,
Yes-No Task,8,0,8,0,8.4,-1,Correct Rejection,0.600574300042,False,-1,stimulus_KLRU16_Yes-No Task_2019_Jun_17_1717_234,-1,False,2019_Jun_17_1717,Yes-No Task,3,KLRU16,
Yes-No Task,9,0,9,0,8.4,-1,Hit,0.4671906,True,-1,stimulus_KLRU16_Yes-No Task_2019_Jun_17_1717_235,-1,False,2019_Jun_17_1717,Yes-No Task,3,KLRU16,
Yes-No Task,10,0,10,0,8.4,-1,Correct Rejection,0.433840700018,False,-1,stimulus_KLRU16_Yes-No Task_2019_Jun_17_1717_236,-1,False,2019_Jun_17_1717,Yes-No Task,3,KLRU16,
Yes-No Task,11,0,11,0,8.4,-1,Correct Rejection,0.467222700012,False,-1,stimulus_KLRU16_Yes-No Task_2019_Jun_17_1717_237,-1,False,2019_Jun_17_1717,Yes-No Task,3,KLRU16,
Yes-No Task,12,0,12,0,8.4,-1,Correct Rejection,0.600718899979,False,-1,stimulus_KLRU16_Yes-No Task_2019_Jun_17_1717_238,-1,False,2019_Jun_17_1717,Yes-No Task,3,KLRU16,
Yes-No Task,13,0,13,0,8.4,-1,Hit,0.433785000001,True,-1,stimulus_KLRU16_Yes-No Task_2019_Jun_17_1717_239,-1,False,2019_Jun_17_1717,Yes-No Task,3,KLRU16,
Yes-No Task,14,0,14,0,8.4,-1,Correct Rejection,0.534467399993,False,-1,stimulus_KLRU16_Yes-No Task_2019_Jun_17_1717_240,-1,False,2019_Jun_17_1717,Yes-No Task,3,KLRU16,
Yes-No Task,15,0,15,0,8.4,-1,Correct Rejection,0.500555999984,False,-1,stimulus_KLRU16_Yes-No Task_2019_Jun_17_1717_241,-1,False,2019_Jun_17_1717,Yes-No Task,3,KLRU16,
Yes-No Task,16,0,16,0,8.4,-1,Hit,0.433368100028,True,-1,stimulus_KLRU16_Yes-No Task_2019_Jun_17_1717_242,-1,False,2019_Jun_17_1717,Yes-No Task,3,KLRU16,
Yes-No Task,17,0,17,0,8.4,-1,Hit,0.500547800038,True,-1,stimulus_KLRU16_Yes-No Task_2019_Jun_17_1717_243,-1,False,2019_Jun_17_1717,Yes-No Task,3,KLRU16,
Yes-No Task,18,0,18,0,8.4,-1,Correct Rejection,0.500587099988,False,-1,stimulus_KLRU16_Yes-No Task_2019_Jun_17_1717_244,-1,False,2019_Jun_17_1717,Yes-No Task,3,KLRU16,
Yes-No Task,19,0,19,0,8.4,-1,False Alarm,0.600990600011,False,-1,stimulus_KLRU16_Yes-No Task_2019_Jun_17_1717_245,-1,False,2019_Jun_17_1717,Yes-No Task,3,KLRU16,
Yes-No Task,20,0,20,0,8.4,-1,Correct Rejection,0.566874299955,False,-1,stimulus_KLRU16_Yes-No Task_2019_Jun_17_1717_246,-1,False,2019_Jun_17_1717,Yes-No Task,3,KLRU16,
Yes-No Task,21,0,21,0,8.4,-1,Correct Rejection,0.502293399943,False,-1,stimulus_KLRU16_Yes-No Task_2019_Jun_17_1717_247,-1,False,2019_Jun_17_1717,Yes-No Task,3,KLRU16,
Yes-No Task,22,0,22,0,8.4,-1,False Alarm,0.466678500001,False,-1,stimulus_KLRU16_Yes-No Task_2019_Jun_17_1717_248,-1,False,2019_Jun_17_1717,Yes-No Task,3,KLRU16,
Yes-No Task,23,0,23,0,8.4,-1,Hit,0.533799700032,True,-1,stimulus_KLRU16_Yes-No Task_2019_Jun_17_1717_249,-1,False,2019_Jun_17_1717,Yes-No Task,3,KLRU16,
Yes-No Task,24,0,24,0,8.4,-1,Hit,0.666942099982,True,-1,stimulus_KLRU16_Yes-No Task_2019_Jun_17_1717_250,-1,False,2019_Jun_17_1717,Yes-No Task,3,KLRU16,
Yes-No Task,25,0,25,0,8.4,-1,Correct Rejection,0.40084940003,False,-1,stimulus_KLRU16_Yes-No Task_2019_Jun_17_1717_251,-1,False,2019_Jun_17_1717,Yes-No Task,3,KLRU16,
Yes-No Task,26,0,26,0,8.4,-1,False Alarm,0.602631499991,False,-1,stimulus_KLRU16_Yes-No Task_2019_Jun_17_1717_252,-1,False,2019_Jun_17_1717,Yes-No Task,3,KLRU16,
Yes-No Task,27,0,27,0,8.4,-1,Correct Rejection,0.604305799992,False,-1,stimulus_KLRU16_Yes-No Task_2019_Jun_17_1717_253,-1,False,2019_Jun_17_1717,Yes-No Task,3,KLRU16,
Yes-No Task,28,0,28,0,8.4,-1,False Alarm,0.533992799988,False,-1,stimulus_KLRU16_Yes-No Task_2019_Jun_17_1717_254,-1,False,2019_Jun_17_1717,Yes-No Task,3,KLRU16,
Yes-No Task,29,0,29,0,8.4,-1,Correct Rejection,0.467926500016,False,-1,stimulus_KLRU16_Yes-No Task_2019_Jun_17_1717_255,-1,False,2019_Jun_17_1717,Yes-No Task,3,KLRU16,
Yes-No Task,30,0,30,0,8.4,-1,Correct Rejection,0.534649200039,False,-1,stimulus_KLRU16_Yes-No Task_2019_Jun_17_1717_256,-1,False,2019_Jun_17_1717,Yes-No Task,3,KLRU16,
Yes-No Task,31,0,31,0,8.4,-1,Correct Rejection,0.433753899997,False,-1,stimulus_KLRU16_Yes-No Task_2019_Jun_17_1717_257,-1,False,2019_Jun_17_1717,Yes-No Task,3,KLRU16,
Yes-No Task,32,0,32,0,8.4,-1,Hit,0.535296100017,True,-1,stimulus_KLRU16_Yes-No Task_2019_Jun_17_1717_258,-1,False,2019_Jun_17_1717,Yes-No Task,3,KLRU16,
Yes-No Task,33,0,33,0,8.4,-1,Correct Rejection,0.466304900008,False,-1,stimulus_KLRU16_Yes-No Task_2019_Jun_17_1717_259,-1,False,2019_Jun_17_1717,Yes-No Task,3,KLRU16,
Yes-No Task,34,0,34,0,8.4,-1,Correct Rejection,0.567897600005,False,-1,stimulus_KLRU16_Yes-No Task_2019_Jun_17_1717_260,-1,False,2019_Jun_17_1717,Yes-No Task,3,KLRU16,
Yes-No Task,35,0,35,0,8.4,-1,Correct Rejection,0.501118600019,False,-1,stimulus_KLRU16_Yes-No Task_2019_Jun_17_1717_261,-1,False,2019_Jun_17_1717,Yes-No Task,3,KLRU16,
Yes-No Task,36,0,36,0,8.4,-1,Correct Rejection,0.533251599991,False,-1,stimulus_KLRU16_Yes-No Task_2019_Jun_17_1717_262,-1,False,2019_Jun_17_1717,Yes-No Task,3,KLRU16,
Yes-No Task,37,0,37,0,8.4,-1,Hit,0.500825499999,True,-1,stimulus_KLRU16_Yes-No Task_2019_Jun_17_1717_263,-1,False,2019_Jun_17_1717,Yes-No Task,3,KLRU16,
Yes-No Task,38,0,38,0,8.4,-1,Miss,0.501219700032,True,-1,stimulus_KLRU16_Yes-No Task_2019_Jun_17_1717_264,-1,False,2019_Jun_17_1717,Yes-No Task,3,KLRU16,
Yes-No Task,39,0,39,0,8.4,-1,Correct Rejection,0.59942579997,False,-1,stimulus_KLRU16_Yes-No Task_2019_Jun_17_1717_265,-1,False,2019_Jun_17_1717,Yes-No Task,3,KLRU16,
Yes-No Task,40,0,40,0,8.4,-1,Correct Rejection,0.501184199995,False,-1,stimulus_KLRU16_Yes-No Task_2019_Jun_17_1717_266,-1,False,2019_Jun_17_1717,Yes-No Task,3,KLRU16,
Yes-No Task,41,0,41,0,8.4,-1,Correct Rejection,0.634444299969,False,-1,stimulus_KLRU16_Yes-No Task_2019_Jun_17_1717_267,-1,False,2019_Jun_17_1717,Yes-No Task,3,KLRU16,
Yes-No Task,42,0,42,0,8.4,-1,Hit,0.434195599984,True,-1,stimulus_KLRU16_Yes-No Task_2019_Jun_17_1717_268,-1,False,2019_Jun_17_1717,Yes-No Task,3,KLRU16,
Yes-No Task,43,0,43,0,8.4,-1,Correct Rejection,0.533931700047,False,-1,stimulus_KLRU16_Yes-No Task_2019_Jun_17_1717_269,-1,False,2019_Jun_17_1717,Yes-No Task,3,KLRU16,
Yes-No Task,44,0,44,0,8.4,-1,Correct Rejection,0.503103399999,False,-1,stimulus_KLRU16_Yes-No Task_2019_Jun_17_1717_270,-1,False,2019_Jun_17_1717,Yes-No Task,3,KLRU16,
Yes-No Task,45,0,45,0,8.4,-1,Hit,0.500637600024,True,-1,stimulus_KLRU16_Yes-No Task_2019_Jun_17_1717_271,-1,False,2019_Jun_17_1717,Yes-No Task,3,KLRU16,
Yes-No Task,46,0,46,0,8.4,-1,Hit,0.467648599995,True,-1,stimulus_KLRU16_Yes-No Task_2019_Jun_17_1717_272,-1,False,2019_Jun_17_1717,Yes-No Task,3,KLRU16,
Yes-No Task,47,0,47,0,8.4,-1,Hit,0.467333700042,True,-1,stimulus_KLRU16_Yes-No Task_2019_Jun_17_1717_273,-1,False,2019_Jun_17_1717,Yes-No Task,3,KLRU16,
Yes-No Task,48,0,48,0,8.4,-1,Correct Rejection,0.533963900001,False,-1,stimulus_KLRU16_Yes-No Task_2019_Jun_17_1717_274,-1,False,2019_Jun_17_1717,Yes-No Task,3,KLRU16,
Yes-No Task,49,0,49,0,8.4,-1,Correct Rejection,0.533970599994,False,-1,stimulus_KLRU16_Yes-No Task_2019_Jun_17_1717_275,-1,False,2019_Jun_17_1717,Yes-No Task,3,KLRU16,
Yes-No Task,50,0,50,0,8.4,-1,Hit,0.469297499978,True,-1,stimulus_KLRU16_Yes-No Task_2019_Jun_17_1717_276,-1,False,2019_Jun_17_1717,Yes-No Task,3,KLRU16,
Yes-No Task,51,0,51,0,8.4,-1,Correct Rejection,0.533500199963,False,-1,stimulus_KLRU16_Yes-No Task_2019_Jun_17_1717_277,-1,False,2019_Jun_17_1717,Yes-No Task,3,KLRU16,
Yes-No Task,52,0,52,0,8.4,-1,Hit,0.433953800006,True,-1,stimulus_KLRU16_Yes-No Task_2019_Jun_17_1717_278,-1,False,2019_Jun_17_1717,Yes-No Task,3,KLRU16,
Yes-No Task,53,0,53,0,8.4,-1,Hit,0.501572999987,True,-1,stimulus_KLRU16_Yes-No Task_2019_Jun_17_1717_279,-1,False,2019_Jun_17_1717,Yes-No Task,3,KLRU16,
Yes-No Task,54,0,54,0,8.4,-1,Hit,0.467522100022,True,-1,stimulus_KLRU16_Yes-No Task_2019_Jun_17_1717_280,-1,False,2019_Jun_17_1717,Yes-No Task,3,KLRU16,
Yes-No Task,55,0,55,0,8.4,-1,Hit,0.433051700005,True,-1,stimulus_KLRU16_Yes-No Task_2019_Jun_17_1717_281,-1,False,2019_Jun_17_1717,Yes-No Task,3,KLRU16,
Yes-No Task,56,0,56,0,8.4,-1,Hit,0.46782879997,True,-1,stimulus_KLRU16_Yes-No Task_2019_Jun_17_1717_282,-1,False,2019_Jun_17_1717,Yes-No Task,3,KLRU16,
Yes-No Task,57,0,57,0,8.4,-1,Correct Rejection,0.566816799983,False,-1,stimulus_KLRU16_Yes-No Task_2019_Jun_17_1717_283,-1,False,2019_Jun_17_1717,Yes-No Task,3,KLRU16,
Yes-No Task,58,0,58,0,8.4,-1,Correct Rejection,0.432649700029,False,-1,stimulus_KLRU16_Yes-No Task_2019_Jun_17_1717_284,-1,False,2019_Jun_17_1717,Yes-No Task,3,KLRU16,
Yes-No Task,59,0,59,0,8.4,-1,Correct Rejection,0.534028300026,False,-1,stimulus_KLRU16_Yes-No Task_2019_Jun_17_1717_285,-1,False,2019_Jun_17_1717,Yes-No Task,3,KLRU16,
Yes-No Task,60,0,60,0,8.4,-1,Hit,0.434316400031,True,-1,stimulus_KLRU16_Yes-No Task_2019_Jun_17_1717_286,-1,False,2019_Jun_17_1717,Yes-No Task,3,KLRU16,
Yes-No Task,61,0,61,0,8.4,-1,Hit,0.668342400051,True,-1,stimulus_KLRU16_Yes-No Task_2019_Jun_17_1717_287,-1,False,2019_Jun_17_1717,Yes-No Task,3,KLRU16,
Yes-No Task,62,0,62,0,8.4,-1,Hit,0.534454400011,True,-1,stimulus_KLRU16_Yes-No Task_2019_Jun_17_1717_288,-1,False,2019_Jun_17_1717,Yes-No Task,3,KLRU16,
Yes-No Task,63,0,63,0,8.4,-1,Correct Rejection,0.502946800028,False,-1,stimulus_KLRU16_Yes-No Task_2019_Jun_17_1717_289,-1,False,2019_Jun_17_1717,Yes-No Task,3,KLRU16,
Yes-No Task,64,0,64,0,8.4,-1,Hit,0.468222800002,True,-1,stimulus_KLRU16_Yes-No Task_2019_Jun_17_1717_290,-1,False,2019_Jun_17_1717,Yes-No Task,3,KLRU16,
Yes-No Task,65,0,65,0,8.4,-1,Correct Rejection,0.466989099979,False,-1,stimulus_KLRU16_Yes-No Task_2019_Jun_17_1717_291,-1,False,2019_Jun_17_1717,Yes-No Task,3,KLRU16,
Yes-No Task,66,0,66,0,8.4,-1,Hit,0.467314000009,True,-1,stimulus_KLRU16_Yes-No Task_2019_Jun_17_1717_292,-1,False,2019_Jun_17_1717,Yes-No Task,3,KLRU16,
Yes-No Task,67,0,67,0,8.4,-1,Hit,0.4671523,True,-1,stimulus_KLRU16_Yes-No Task_2019_Jun_17_1717_293,-1,False,2019_Jun_17_1717,Yes-No Task,3,KLRU16,
Yes-No Task,68,0,68,0,8.4,-1,Correct Rejection,0.434087499976,False,-1,stimulus_KLRU16_Yes-No Task_2019_Jun_17_1717_294,-1,False,2019_Jun_17_1717,Yes-No Task,3,KLRU16,
Yes-No Task,69,0,69,0,8.4,-1,Hit,0.500564499991,True,-1,stimulus_KLRU16_Yes-No Task_2019_Jun_17_1717_295,-1,False,2019_Jun_17_1717,Yes-No Task,3,KLRU16,
Yes-No Task,70,0,70,0,8.4,-1,Correct Rejection,0.433157099993,False,-1,stimulus_KLRU16_Yes-No Task_2019_Jun_17_1717_296,-1,False,2019_Jun_17_1717,Yes-No Task,3,KLRU16,
Yes-No Task,71,0,71,0,8.4,-1,Hit,0.40016900003,True,-1,stimulus_KLRU16_Yes-No Task_2019_Jun_17_1717_297,-1,False,2019_Jun_17_1717,Yes-No Task,3,KLRU16,
Yes-No Task,72,0,72,0,8.4,-1,Hit,0.567531399953,True,-1,stimulus_KLRU16_Yes-No Task_2019_Jun_17_1717_298,-1,False,2019_Jun_17_1717,Yes-No Task,3,KLRU16,
Yes-No Task,73,0,73,0,8.4,-1,Correct Rejection,0.500243799994,False,-1,stimulus_KLRU16_Yes-No Task_2019_Jun_17_1717_299,-1,False,2019_Jun_17_1717,Yes-No Task,3,KLRU16,
Yes-No Task,74,0,74,0,8.4,-1,Hit,0.502275199979,True,-1,stimulus_KLRU16_Yes-No Task_2019_Jun_17_1717_300,-1,False,2019_Jun_17_1717,Yes-No Task,3,KLRU16,
Yes-No Task,0,0,0,0,3.5,-1,Miss,0.401376799971,True,-1,stimulus_KLRU16_Yes-No Task_2019_Jun_17_1717_301,-1,False,2019_Jun_17_1717,Yes-No Task,3,KLRU16,
Yes-No Task,1,0,1,0,3.5,-1,Correct Rejection,0.467603500001,False,-1,stimulus_KLRU16_Yes-No Task_2019_Jun_17_1717_302,-1,False,2019_Jun_17_1717,Yes-No Task,3,KLRU16,
Yes-No Task,2,0,2,0,3.5,-1,Hit,0.632956999994,True,-1,stimulus_KLRU16_Yes-No Task_2019_Jun_17_1717_303,-1,False,2019_Jun_17_1717,Yes-No Task,3,KLRU16,
Yes-No Task,3,0,3,0,3.5,-1,Correct Rejection,0.433022700017,False,-1,stimulus_KLRU16_Yes-No Task_2019_Jun_17_1717_304,-1,False,2019_Jun_17_1717,Yes-No Task,3,KLRU16,
Yes-No Task,4,0,4,0,3.5,-1,Correct Rejection,0.533819900011,False,-1,stimulus_KLRU16_Yes-No Task_2019_Jun_17_1717_305,-1,False,2019_Jun_17_1717,Yes-No Task,3,KLRU16,
Yes-No Task,5,0,5,0,3.5,-1,Correct Rejection,0.50073650002,False,-1,stimulus_KLRU16_Yes-No Task_2019_Jun_17_1717_306,-1,False,2019_Jun_17_1717,Yes-No Task,3,KLRU16,
Yes-No Task,6,0,6,0,3.5,-1,Miss,0.533152599994,True,-1,stimulus_KLRU16_Yes-No Task_2019_Jun_17_1717_307,-1,False,2019_Jun_17_1717,Yes-No Task,3,KLRU16,
Yes-No Task,7,0,7,0,3.5,-1,Miss,0.567254199996,True,-1,stimulus_KLRU16_Yes-No Task_2019_Jun_17_1717_308,-1,False,2019_Jun_17_1717,Yes-No Task,3,KLRU16,
Yes-No Task,8,0,8,0,3.5,-1,False Alarm,0.567345800053,False,-1,stimulus_KLRU16_Yes-No Task_2019_Jun_17_1717_309,-1,False,2019_Jun_17_1717,Yes-No Task,3,KLRU16,
Yes-No Task,9,0,9,0,3.5,-1,Correct Rejection,0.534088199958,False,-1,stimulus_KLRU16_Yes-No Task_2019_Jun_17_1717_310,-1,False,2019_Jun_17_1717,Yes-No Task,3,KLRU16,
Yes-No Task,10,0,10,0,3.5,-1,Hit,0.500068099995,True,-1,stimulus_KLRU16_Yes-No Task_2019_Jun_17_1717_311,-1,False,2019_Jun_17_1717,Yes-No Task,3,KLRU16,
Yes-No Task,11,0,11,0,3.5,-1,False Alarm,0.534452499996,False,-1,stimulus_KLRU16_Yes-No Task_2019_Jun_17_1717_312,-1,False,2019_Jun_17_1717,Yes-No Task,3,KLRU16,
Yes-No Task,12,0,12,0,3.5,-1,Hit,0.700937599991,True,-1,stimulus_KLRU16_Yes-No Task_2019_Jun_17_1717_313,-1,False,2019_Jun_17_1717,Yes-No Task,3,KLRU16,
Yes-No Task,13,0,13,0,3.5,-1,Miss,0.601863599964,True,-1,stimulus_KLRU16_Yes-No Task_2019_Jun_17_1717_314,-1,False,2019_Jun_17_1717,Yes-No Task,3,KLRU16,
Yes-No Task,14,0,14,0,3.5,-1,Correct Rejection,0.503871000023,False,-1,stimulus_KLRU16_Yes-No Task_2019_Jun_17_1717_315,-1,False,2019_Jun_17_1717,Yes-No Task,3,KLRU16,
Yes-No Task,15,0,15,0,3.5,-1,Correct Rejection,0.734158399981,False,-1,stimulus_KLRU16_Yes-No Task_2019_Jun_17_1717_316,-1,False,2019_Jun_17_1717,Yes-No Task,3,KLRU16,
Yes-No Task,16,0,16,0,3.5,-1,Miss,0.667014300008,True,-1,stimulus_KLRU16_Yes-No Task_2019_Jun_17_1717_317,-1,False,2019_Jun_17_1717,Yes-No Task,3,KLRU16,
Yes-No Task,17,0,17,0,3.5,-1,Miss,0.500011900032,True,-1,stimulus_KLRU16_Yes-No Task_2019_Jun_17_1717_318,-1,False,2019_Jun_17_1717,Yes-No Task,3,KLRU16,
Yes-No Task,18,0,18,0,3.5,-1,False Alarm,0.600591099996,False,-1,stimulus_KLRU16_Yes-No Task_2019_Jun_17_1717_319,-1,False,2019_Jun_17_1717,Yes-No Task,3,KLRU16,
Yes-No Task,19,0,19,0,3.5,-1,Hit,0.733731199987,True,-1,stimulus_KLRU16_Yes-No Task_2019_Jun_17_1717_320,-1,False,2019_Jun_17_1717,Yes-No Task,3,KLRU16,
Yes-No Task,20,0,20,0,3.5,-1,Correct Rejection,0.567014099972,False,-1,stimulus_KLRU16_Yes-No Task_2019_Jun_17_1717_321,-1,False,2019_Jun_17_1717,Yes-No Task,3,KLRU16,
Yes-No Task,21,0,21,0,3.5,-1,Hit,0.667673299962,True,-1,stimulus_KLRU16_Yes-No Task_2019_Jun_17_1717_322,-1,False,2019_Jun_17_1717,Yes-No Task,3,KLRU16,
Yes-No Task,22,0,22,0,3.5,-1,Hit,0.533618099988,True,-1,stimulus_KLRU16_Yes-No Task_2019_Jun_17_1717_323,-1,False,2019_Jun_17_1717,Yes-No Task,3,KLRU16,
Yes-No Task,23,0,23,0,3.5,-1,Correct Rejection,0.500613499957,False,-1,stimulus_KLRU16_Yes-No Task_2019_Jun_17_1717_324,-1,False,2019_Jun_17_1717,Yes-No Task,3,KLRU16,
Yes-No Task,24,0,24,0,3.5,-1,Miss,0.73391530005,True,-1,stimulus_KLRU16_Yes-No Task_2019_Jun_17_1717_325,-1,False,2019_Jun_17_1717,Yes-No Task,3,KLRU16,
Yes-No Task,25,0,25,0,3.5,-1,Correct Rejection,0.700302399986,False,-1,stimulus_KLRU16_Yes-No Task_2019_Jun_17_1717_326,-1,False,2019_Jun_17_1717,Yes-No Task,3,KLRU16,
Yes-No Task,26,0,26,0,3.5,-1,Hit,0.73413430003,True,-1,stimulus_KLRU16_Yes-No Task_2019_Jun_17_1717_327,-1,False,2019_Jun_17_1717,Yes-No Task,3,KLRU16,
Yes-No Task,27,0,27,0,3.5,-1,Correct Rejection,0.533921900031,False,-1,stimulus_KLRU16_Yes-No Task_2019_Jun_17_1717_328,-1,False,2019_Jun_17_1717,Yes-No Task,3,KLRU16,
Yes-No Task,28,0,28,0,3.5,-1,False Alarm,0.634394799999,False,-1,stimulus_KLRU16_Yes-No Task_2019_Jun_17_1717_329,-1,False,2019_Jun_17_1717,Yes-No Task,3,KLRU16,
Yes-No Task,29,0,29,0,3.5,-1,Correct Rejection,0.500785299984,False,-1,stimulus_KLRU16_Yes-No Task_2019_Jun_17_1717_330,-1,False,2019_Jun_17_1717,Yes-No Task,3,KLRU16,
Yes-No Task,30,0,30,0,3.5,-1,Correct Rejection,0.500476499961,False,-1,stimulus_KLRU16_Yes-No Task_2019_Jun_17_1717_331,-1,False,2019_Jun_17_1717,Yes-No Task,3,KLRU16,
Yes-No Task,31,0,31,0,3.5,-1,Hit,0.667325800052,True,-1,stimulus_KLRU16_Yes-No Task_2019_Jun_17_1717_332,-1,False,2019_Jun_17_1717,Yes-No Task,3,KLRU16,
Yes-No Task,32,0,32,0,3.5,-1,Correct Rejection,0.502189599967,False,-1,stimulus_KLRU16_Yes-No Task_2019_Jun_17_1717_333,-1,False,2019_Jun_17_1717,Yes-No Task,3,KLRU16,
Yes-No Task,33,0,33,0,3.5,-1,Hit,0.567236300034,True,-1,stimulus_KLRU16_Yes-No Task_2019_Jun_17_1717_334,-1,False,2019_Jun_17_1717,Yes-No Task,3,KLRU16,
Yes-No Task,34,0,34,0,3.5,-1,Miss,0.467989600031,True,-1,stimulus_KLRU16_Yes-No Task_2019_Jun_17_1717_335,-1,False,2019_Jun_17_1717,Yes-No Task,3,KLRU16,
Yes-No Task,35,0,35,0,3.5,-1,False Alarm,0.766896800022,False,-1,stimulus_KLRU16_Yes-No Task_2019_Jun_17_1717_336,-1,False,2019_Jun_17_1717,Yes-No Task,3,KLRU16,
Yes-No Task,36,0,36,0,3.5,-1,Miss,0.533944699971,True,-1,stimulus_KLRU16_Yes-No Task_2019_Jun_17_1717_337,-1,False,2019_Jun_17_1717,Yes-No Task,3,KLRU16,
Yes-No Task,37,0,37,0,3.5,-1,Correct Rejection,0.769214000029,False,-1,stimulus_KLRU16_Yes-No Task_2019_Jun_17_1717_338,-1,False,2019_Jun_17_1717,Yes-No Task,3,KLRU16,
Yes-No Task,38,0,38,0,3.5,-1,Correct Rejection,0.600658599986,False,-1,stimulus_KLRU16_Yes-No Task_2019_Jun_17_1717_339,-1,False,2019_Jun_17_1717,Yes-No Task,3,KLRU16,
Yes-No Task,39,0,39,0,3.5,-1,Correct Rejection,0.634186999989,False,-1,stimulus_KLRU16_Yes-No Task_2019_Jun_17_1717_340,-1,False,2019_Jun_17_1717,Yes-No Task,3,KLRU16,
Yes-No Task,40,0,40,0,3.5,-1,Correct Rejection,0.634124800039,False,-1,stimulus_KLRU16_Yes-No Task_2019_Jun_17_1717_341,-1,False,2019_Jun_17_1717,Yes-No Task,3,KLRU16,
Yes-No Task,41,0,41,0,3.5,-1,Miss,0.600238400046,True,-1,stimulus_KLRU16_Yes-No Task_2019_Jun_17_1717_342,-1,False,2019_Jun_17_1717,Yes-No Task,3,KLRU16,
Yes-No Task,42,0,42,0,3.5,-1,Miss,0.600772999984,True,-1,stimulus_KLRU16_Yes-No Task_2019_Jun_17_1717_343,-1,False,2019_Jun_17_1717,Yes-No Task,3,KLRU16,
Yes-No Task,43,0,43,0,3.5,-1,False Alarm,0.767752100015,False,-1,stimulus_KLRU16_Yes-No Task_2019_Jun_17_1717_344,-1,False,2019_Jun_17_1717,Yes-No Task,3,KLRU16,
Yes-No Task,44,0,44,0,3.5,-1,Correct Rejection,0.76825839997,False,-1,stimulus_KLRU16_Yes-No Task_2019_Jun_17_1717_345,-1,False,2019_Jun_17_1717,Yes-No Task,3,KLRU16,
Yes-No Task,45,0,45,0,3.5,-1,False Alarm,0.63397200004,False,-1,stimulus_KLRU16_Yes-No Task_2019_Jun_17_1717_346,-1,False,2019_Jun_17_1717,Yes-No Task,3,KLRU16,
Yes-No Task,46,0,46,0,3.5,-1,Miss,0.734150999982,True,-1,stimulus_KLRU16_Yes-No Task_2019_Jun_17_1717_347,-1,False,2019_Jun_17_1717,Yes-No Task,3,KLRU16,
Yes-No Task,47,0,47,0,3.5,-1,False Alarm,0.600811699987,False,-1,stimulus_KLRU16_Yes-No Task_2019_Jun_17_1717_348,-1,False,2019_Jun_17_1717,Yes-No Task,3,KLRU16,
Yes-No Task,48,0,48,0,3.5,-1,False Alarm,0.700720500026,False,-1,stimulus_KLRU16_Yes-No Task_2019_Jun_17_1717_349,-1,False,2019_Jun_17_1717,Yes-No Task,3,KLRU16,
Yes-No Task,49,0,49,0,3.5,-1,Correct Rejection,0.767336399993,False,-1,stimulus_KLRU16_Yes-No Task_2019_Jun_17_1717_350,-1,False,2019_Jun_17_1717,Yes-No Task,3,KLRU16,
Yes-No Task,50,0,50,0,3.5,-1,Correct Rejection,0.630646099977,False,-1,stimulus_KLRU16_Yes-No Task_2019_Jun_17_1717_351,-1,False,2019_Jun_17_1717,Yes-No Task,3,KLRU16,
Yes-No Task,51,0,51,0,3.5,-1,Correct Rejection,0.701474699948,False,-1,stimulus_KLRU16_Yes-No Task_2019_Jun_17_1717_352,-1,False,2019_Jun_17_1717,Yes-No Task,3,KLRU16,
Yes-No Task,52,0,52,0,3.5,-1,Miss,0.533927600016,True,-1,stimulus_KLRU16_Yes-No Task_2019_Jun_17_1717_353,-1,False,2019_Jun_17_1717,Yes-No Task,3,KLRU16,
Yes-No Task,53,0,53,0,3.5,-1,Correct Rejection,0.634256299993,False,-1,stimulus_KLRU16_Yes-No Task_2019_Jun_17_1717_354,-1,False,2019_Jun_17_1717,Yes-No Task,3,KLRU16,
Yes-No Task,54,0,54,0,3.5,-1,Correct Rejection,0.667346599977,False,-1,stimulus_KLRU16_Yes-No Task_2019_Jun_17_1717_355,-1,False,2019_Jun_17_1717,Yes-No Task,3,KLRU16,
Yes-No Task,55,0,55,0,3.5,-1,Hit,0.467591000022,True,-1,stimulus_KLRU16_Yes-No Task_2019_Jun_17_1717_356,-1,False,2019_Jun_17_1717,Yes-No Task,3,KLRU16,
Yes-No Task,56,0,56,0,3.5,-1,Hit,0.567529899999,True,-1,stimulus_KLRU16_Yes-No Task_2019_Jun_17_1717_357,-1,False,2019_Jun_17_1717,Yes-No Task,3,KLRU16,
Yes-No Task,57,0,57,0,3.5,-1,False Alarm,0.534124099999,False,-1,stimulus_KLRU16_Yes-No Task_2019_Jun_17_1717_358,-1,False,2019_Jun_17_1717,Yes-No Task,3,KLRU16,
Yes-No Task,58,0,58,0,3.5,-1,Miss,0.567676000006,True,-1,stimulus_KLRU16_Yes-No Task_2019_Jun_17_1717_359,-1,False,2019_Jun_17_1717,Yes-No Task,3,KLRU16,
Yes-No Task,59,0,59,0,3.5,-1,Hit,0.601795000024,True,-1,stimulus_KLRU16_Yes-No Task_2019_Jun_17_1717_360,-1,False,2019_Jun_17_1717,Yes-No Task,3,KLRU16,
Yes-No Task,60,0,60,0,3.5,-1,Miss,0.636044499988,True,-1,stimulus_KLRU16_Yes-No Task_2019_Jun_17_1717_361,-1,False,2019_Jun_17_1717,Yes-No Task,3,KLRU16,
Yes-No Task,61,0,61,0,3.5,-1,Hit,0.534553200006,True,-1,stimulus_KLRU16_Yes-No Task_2019_Jun_17_1717_362,-1,False,2019_Jun_17_1717,Yes-No Task,3,KLRU16,
Yes-No Task,62,0,62,0,3.5,-1,Hit,0.568365400017,True,-1,stimulus_KLRU16_Yes-No Task_2019_Jun_17_1717_363,-1,False,2019_Jun_17_1717,Yes-No Task,3,KLRU16,
Yes-No Task,63,0,63,0,3.5,-1,False Alarm,0.533842999954,False,-1,stimulus_KLRU16_Yes-No Task_2019_Jun_17_1717_364,-1,False,2019_Jun_17_1717,Yes-No Task,3,KLRU16,
Yes-No Task,64,0,64,0,3.5,-1,Correct Rejection,0.634719399968,False,-1,stimulus_KLRU16_Yes-No Task_2019_Jun_17_1717_365,-1,False,2019_Jun_17_1717,Yes-No Task,3,KLRU16,
Yes-No Task,65,0,65,0,3.5,-1,Hit,0.634065599996,True,-1,stimulus_KLRU16_Yes-No Task_2019_Jun_17_1717_366,-1,False,2019_Jun_17_1717,Yes-No Task,3,KLRU16,
Yes-No Task,66,0,66,0,3.5,-1,Hit,0.734084800002,True,-1,stimulus_KLRU16_Yes-No Task_2019_Jun_17_1717_367,-1,False,2019_Jun_17_1717,Yes-No Task,3,KLRU16,
Yes-No Task,67,0,67,0,3.5,-1,Correct Rejection,0.4674352,False,-1,stimulus_KLRU16_Yes-No Task_2019_Jun_17_1717_368,-1,False,2019_Jun_17_1717,Yes-No Task,3,KLRU16,
Yes-No Task,68,0,68,0,3.5,-1,Hit,0.53387829999,True,-1,stimulus_KLRU16_Yes-No Task_2019_Jun_17_1717_369,-1,False,2019_Jun_17_1717,Yes-No Task,3,KLRU16,
Yes-No Task,69,0,69,0,3.5,-1,Correct Rejection,0.501826399995,False,-1,stimulus_KLRU16_Yes-No Task_2019_Jun_17_1717_370,-1,False,2019_Jun_17_1717,Yes-No Task,3,KLRU16,
Yes-No Task,70,0,70,0,3.5,-1,Correct Rejection,0.600416500005,False,-1,stimulus_KLRU16_Yes-No Task_2019_Jun_17_1717_371,-1,False,2019_Jun_17_1717,Yes-No Task,3,KLRU16,
Yes-No Task,71,0,71,0,3.5,-1,Correct Rejection,0.501882000011,False,-1,stimulus_KLRU16_Yes-No Task_2019_Jun_17_1717_372,-1,False,2019_Jun_17_1717,Yes-No Task,3,KLRU16,
Yes-No Task,72,0,72,0,3.5,-1,Hit,0.467372299987,True,-1,stimulus_KLRU16_Yes-No Task_2019_Jun_17_1717_373,-1,False,2019_Jun_17_1717,Yes-No Task,3,KLRU16,
Yes-No Task,73,0,73,0,3.5,-1,Correct Rejection,0.667586800002,False,-1,stimulus_KLRU16_Yes-No Task_2019_Jun_17_1717_374,-1,False,2019_Jun_17_1717,Yes-No Task,3,KLRU16,
Yes-No Task,74,0,74,0,3.5,-1,Correct Rejection,0.533468100009,False,-1,stimulus_KLRU16_Yes-No Task_2019_Jun_17_1717_375,-1,False,2019_Jun_17_1717,Yes-No Task,3,KLRU16,
Yes-No Task,0,0,0,0,7.4,-1,Miss,0.467035700043,True,-1,stimulus_KLRU16_Yes-No Task_2019_Jun_17_1717_376,-1,False,2019_Jun_17_1717,Yes-No Task,3,KLRU16,
Yes-No Task,1,0,1,0,7.4,-1,Correct Rejection,0.701667099958,False,-1,stimulus_KLRU16_Yes-No Task_2019_Jun_17_1717_377,-1,False,2019_Jun_17_1717,Yes-No Task,3,KLRU16,
Yes-No Task,2,0,2,0,7.4,-1,Correct Rejection,0.533801999991,False,-1,stimulus_KLRU16_Yes-No Task_2019_Jun_17_1717_378,-1,False,2019_Jun_17_1717,Yes-No Task,3,KLRU16,
Yes-No Task,3,0,3,0,7.4,-1,Hit,0.501056099951,True,-1,stimulus_KLRU16_Yes-No Task_2019_Jun_17_1717_379,-1,False,2019_Jun_17_1717,Yes-No Task,3,KLRU16,
Yes-No Task,4,0,4,0,7.4,-1,Correct Rejection,0.533734800003,False,-1,stimulus_KLRU16_Yes-No Task_2019_Jun_17_1717_380,-1,False,2019_Jun_17_1717,Yes-No Task,3,KLRU16,
Yes-No Task,5,0,5,0,7.4,-1,Correct Rejection,0.50068409997,False,-1,stimulus_KLRU16_Yes-No Task_2019_Jun_17_1717_381,-1,False,2019_Jun_17_1717,Yes-No Task,3,KLRU16,
Yes-No Task,6,0,6,0,7.4,-1,Correct Rejection,0.567848599982,False,-1,stimulus_KLRU16_Yes-No Task_2019_Jun_17_1717_382,-1,False,2019_Jun_17_1717,Yes-No Task,3,KLRU16,
Yes-No Task,7,0,7,0,7.4,-1,Correct Rejection,0.500067399989,False,-1,stimulus_KLRU16_Yes-No Task_2019_Jun_17_1717_383,-1,False,2019_Jun_17_1717,Yes-No Task,3,KLRU16,
Yes-No Task,8,0,8,0,7.4,-1,Hit,0.500774800021,True,-1,stimulus_KLRU16_Yes-No Task_2019_Jun_17_1717_384,-1,False,2019_Jun_17_1717,Yes-No Task,3,KLRU16,
Yes-No Task,9,0,9,0,7.4,-1,Miss,0.399369299994,True,-1,stimulus_KLRU16_Yes-No Task_2019_Jun_17_1717_385,-1,False,2019_Jun_17_1717,Yes-No Task,3,KLRU16,
Yes-No Task,10,0,10,0,7.4,-1,Hit,0.600850899995,True,-1,stimulus_KLRU16_Yes-No Task_2019_Jun_17_1717_386,-1,False,2019_Jun_17_1717,Yes-No Task,3,KLRU16,
Yes-No Task,11,0,11,0,7.4,-1,Correct Rejection,0.499686199997,False,-1,stimulus_KLRU16_Yes-No Task_2019_Jun_17_1717_387,-1,False,2019_Jun_17_1717,Yes-No Task,3,KLRU16,
Yes-No Task,12,0,12,0,7.4,-1,Miss,0.634149499994,True,-1,stimulus_KLRU16_Yes-No Task_2019_Jun_17_1717_388,-1,False,2019_Jun_17_1717,Yes-No Task,3,KLRU16,
Yes-No Task,13,0,13,0,7.4,-1,Correct Rejection,0.500764099997,False,-1,stimulus_KLRU16_Yes-No Task_2019_Jun_17_1717_389,-1,False,2019_Jun_17_1717,Yes-No Task,3,KLRU16,
Yes-No Task,14,0,14,0,7.4,-1,Hit,0.634958799987,True,-1,stimulus_KLRU16_Yes-No Task_2019_Jun_17_1717_390,-1,False,2019_Jun_17_1717,Yes-No Task,3,KLRU16,
Yes-No Task,15,0,15,0,7.4,-1,Miss,0.500622000021,True,-1,stimulus_KLRU16_Yes-No Task_2019_Jun_17_1717_391,-1,False,2019_Jun_17_1717,Yes-No Task,3,KLRU16,
Yes-No Task,16,0,16,0,7.4,-1,Hit,0.500821299967,True,-1,stimulus_KLRU16_Yes-No Task_2019_Jun_17_1717_392,-1,False,2019_Jun_17_1717,Yes-No Task,3,KLRU16,
Yes-No Task,17,0,17,0,7.4,-1,False Alarm,0.634776299994,False,-1,stimulus_KLRU16_Yes-No Task_2019_Jun_17_1717_393,-1,False,2019_Jun_17_1717,Yes-No Task,3,KLRU16,
Yes-No Task,18,0,18,0,7.4,-1,Hit,0.667560399976,True,-1,stimulus_KLRU16_Yes-No Task_2019_Jun_17_1717_394,-1,False,2019_Jun_17_1717,Yes-No Task,3,KLRU16,
Yes-No Task,19,0,19,0,7.4,-1,Correct Rejection,0.534187000012,False,-1,stimulus_KLRU16_Yes-No Task_2019_Jun_17_1717_395,-1,False,2019_Jun_17_1717,Yes-No Task,3,KLRU16,
Yes-No Task,20,0,20,0,7.4,-1,Hit,0.53389750002,True,-1,stimulus_KLRU16_Yes-No Task_2019_Jun_17_1717_396,-1,False,2019_Jun_17_1717,Yes-No Task,3,KLRU16,
Yes-No Task,21,0,21,0,7.4,-1,Hit,0.533358699991,True,-1,stimulus_KLRU16_Yes-No Task_2019_Jun_17_1717_397,-1,False,2019_Jun_17_1717,Yes-No Task,3,KLRU16,
Yes-No Task,22,0,22,0,7.4,-1,Hit,0.533933800005,True,-1,stimulus_KLRU16_Yes-No Task_2019_Jun_17_1717_398,-1,False,2019_Jun_17_1717,Yes-No Task,3,KLRU16,
Yes-No Task,23,0,23,0,7.4,-1,Hit,0.534860200016,True,-1,stimulus_KLRU16_Yes-No Task_2019_Jun_17_1717_399,-1,False,2019_Jun_17_1717,Yes-No Task,3,KLRU16,
Yes-No Task,24,0,24,0,7.4,-1,Correct Rejection,0.500618699996,False,-1,stimulus_KLRU16_Yes-No Task_2019_Jun_17_1717_400,-1,False,2019_Jun_17_1717,Yes-No Task,3,KLRU16,
Yes-No Task,25,0,25,0,7.4,-1,Hit,0.53305300005,True,-1,stimulus_KLRU16_Yes-No Task_2019_Jun_17_1717_401,-1,False,2019_Jun_17_1717,Yes-No Task,3,KLRU16,
Yes-No Task,26,0,26,0,7.4,-1,Hit,0.500544300012,True,-1,stimulus_KLRU16_Yes-No Task_2019_Jun_17_1717_402,-1,False,2019_Jun_17_1717,Yes-No Task,3,KLRU16,
Yes-No Task,27,0,27,0,7.4,-1,Correct Rejection,0.503132699989,False,-1,stimulus_KLRU16_Yes-No Task_2019_Jun_17_1717_403,-1,False,2019_Jun_17_1717,Yes-No Task,3,KLRU16,
Yes-No Task,28,0,28,0,7.4,-1,Correct Rejection,0.500608499977,False,-1,stimulus_KLRU16_Yes-No Task_2019_Jun_17_1717_404,-1,False,2019_Jun_17_1717,Yes-No Task,3,KLRU16,
Yes-No Task,29,0,29,0,7.4,-1,Hit,0.56843590003,True,-1,stimulus_KLRU16_Yes-No Task_2019_Jun_17_1717_405,-1,False,2019_Jun_17_1717,Yes-No Task,3,KLRU16,
Yes-No Task,30,0,30,0,7.4,-1,Hit,0.534737200011,True,-1,stimulus_KLRU16_Yes-No Task_2019_Jun_17_1717_406,-1,False,2019_Jun_17_1717,Yes-No Task,3,KLRU16,
Yes-No Task,31,0,31,0,7.4,-1,Hit,0.600530299998,True,-1,stimulus_KLRU16_Yes-No Task_2019_Jun_17_1717_407,-1,False,2019_Jun_17_1717,Yes-No Task,3,KLRU16,
Yes-No Task,32,0,32,0,7.4,-1,Correct Rejection,0.533681100002,False,-1,stimulus_KLRU16_Yes-No Task_2019_Jun_17_1717_408,-1,False,2019_Jun_17_1717,Yes-No Task,3,KLRU16,
Yes-No Task,33,0,33,0,7.4,-1,Hit,0.533536700008,True,-1,stimulus_KLRU16_Yes-No Task_2019_Jun_17_1717_409,-1,False,2019_Jun_17_1717,Yes-No Task,3,KLRU16,
Yes-No Task,34,0,34,0,7.4,-1,Hit,0.533531599969,True,-1,stimulus_KLRU16_Yes-No Task_2019_Jun_17_1717_410,-1,False,2019_Jun_17_1717,Yes-No Task,3,KLRU16,
Yes-No Task,35,0,35,0,7.4,-1,Correct Rejection,0.500471499981,False,-1,stimulus_KLRU16_Yes-No Task_2019_Jun_17_1717_411,-1,False,2019_Jun_17_1717,Yes-No Task,3,KLRU16,
Yes-No Task,36,0,36,0,7.4,-1,Hit,0.700512500014,True,-1,stimulus_KLRU16_Yes-No Task_2019_Jun_17_1717_412,-1,False,2019_Jun_17_1717,Yes-No Task,3,KLRU16,
Yes-No Task,37,0,37,0,7.4,-1,Correct Rejection,0.567504799983,False,-1,stimulus_KLRU16_Yes-No Task_2019_Jun_17_1717_413,-1,False,2019_Jun_17_1717,Yes-No Task,3,KLRU16,
Yes-No Task,38,0,38,0,7.4,-1,Hit,0.499899499991,True,-1,stimulus_KLRU16_Yes-No Task_2019_Jun_17_1717_414,-1,False,2019_Jun_17_1717,Yes-No Task,3,KLRU16,
Yes-No Task,39,0,39,0,7.4,-1,Hit,0.50096059998,True,-1,stimulus_KLRU16_Yes-No Task_2019_Jun_17_1717_415,-1,False,2019_Jun_17_1717,Yes-No Task,3,KLRU16,
Yes-No Task,40,0,40,0,7.4,-1,Hit,0.668485599977,True,-1,stimulus_KLRU16_Yes-No Task_2019_Jun_17_1717_416,-1,False,2019_Jun_17_1717,Yes-No Task,3,KLRU16,
Yes-No Task,41,0,41,0,7.4,-1,Hit,0.567536699993,True,-1,stimulus_KLRU16_Yes-No Task_2019_Jun_17_1717_417,-1,False,2019_Jun_17_1717,Yes-No Task,3,KLRU16,
Yes-No Task,42,0,42,0,7.4,-1,Correct Rejection,0.633949500043,False,-1,stimulus_KLRU16_Yes-No Task_2019_Jun_17_1717_418,-1,False,2019_Jun_17_1717,Yes-No Task,3,KLRU16,
Yes-No Task,43,0,43,0,7.4,-1,Hit,0.500555099978,True,-1,stimulus_KLRU16_Yes-No Task_2019_Jun_17_1717_419,-1,False,2019_Jun_17_1717,Yes-No Task,3,KLRU16,
Yes-No Task,44,0,44,0,7.4,-1,False Alarm,0.701403099985,False,-1,stimulus_KLRU16_Yes-No Task_2019_Jun_17_1717_420,-1,False,2019_Jun_17_1717,Yes-No Task,3,KLRU16,
Yes-No Task,45,0,45,0,7.4,-1,Hit,0.600863899977,True,-1,stimulus_KLRU16_Yes-No Task_2019_Jun_17_1717_421,-1,False,2019_Jun_17_1717,Yes-No Task,3,KLRU16,
Yes-No Task,46,0,46,0,7.4,-1,Correct Rejection,0.566993899993,False,-1,stimulus_KLRU16_Yes-No Task_2019_Jun_17_1717_422,-1,False,2019_Jun_17_1717,Yes-No Task,3,KLRU16,
Yes-No Task,47,0,47,0,7.4,-1,Correct Rejection,0.599783700018,False,-1,stimulus_KLRU16_Yes-No Task_2019_Jun_17_1717_423,-1,False,2019_Jun_17_1717,Yes-No Task,3,KLRU16,
Yes-No Task,48,0,48,0,7.4,-1,Correct Rejection,0.635218599986,False,-1,stimulus_KLRU16_Yes-No Task_2019_Jun_17_1717_424,-1,False,2019_Jun_17_1717,Yes-No Task,3,KLRU16,
Yes-No Task,49,0,49,0,7.4,-1,Hit,0.534404900041,True,-1,stimulus_KLRU16_Yes-No Task_2019_Jun_17_1717_425,-1,False,2019_Jun_17_1717,Yes-No Task,3,KLRU16,
Yes-No Task,50,0,50,0,7.4,-1,Miss,0.734451099997,True,-1,stimulus_KLRU16_Yes-No Task_2019_Jun_17_1717_426,-1,False,2019_Jun_17_1717,Yes-No Task,3,KLRU16,
Yes-No Task,51,0,51,0,7.4,-1,Correct Rejection,0.599974100012,False,-1,stimulus_KLRU16_Yes-No Task_2019_Jun_17_1717_427,-1,False,2019_Jun_17_1717,Yes-No Task,3,KLRU16,
Yes-No Task,52,0,52,0,7.4,-1,Hit,0.534154699999,True,-1,stimulus_KLRU16_Yes-No Task_2019_Jun_17_1717_428,-1,False,2019_Jun_17_1717,Yes-No Task,3,KLRU16,
Yes-No Task,53,0,53,0,7.4,-1,Hit,0.567140500003,True,-1,stimulus_KLRU16_Yes-No Task_2019_Jun_17_1717_429,-1,False,2019_Jun_17_1717,Yes-No Task,3,KLRU16,
Yes-No Task,54,0,54,0,7.4,-1,Correct Rejection,0.634038299962,False,-1,stimulus_KLRU16_Yes-No Task_2019_Jun_17_1717_430,-1,False,2019_Jun_17_1717,Yes-No Task,3,KLRU16,
Yes-No Task,55,0,55,0,7.4,-1,Hit,0.600442500028,True,-1,stimulus_KLRU16_Yes-No Task_2019_Jun_17_1717_431,-1,False,2019_Jun_17_1717,Yes-No Task,3,KLRU16,
Yes-No Task,56,0,56,0,7.4,-1,Correct Rejection,0.600857599988,False,-1,stimulus_KLRU16_Yes-No Task_2019_Jun_17_1717_432,-1,False,2019_Jun_17_1717,Yes-No Task,3,KLRU16,
Yes-No Task,57,0,57,0,7.4,-1,Correct Rejection,0.567511799978,False,-1,stimulus_KLRU16_Yes-No Task_2019_Jun_17_1717_433,-1,False,2019_Jun_17_1717,Yes-No Task,3,KLRU16,
Yes-No Task,58,0,58,0,7.4,-1,Hit,0.834385499998,True,-1,stimulus_KLRU16_Yes-No Task_2019_Jun_17_1717_434,-1,False,2019_Jun_17_1717,Yes-No Task,3,KLRU16,
Yes-No Task,59,0,59,0,7.4,-1,Correct Rejection,0.568194699998,False,-1,stimulus_KLRU16_Yes-No Task_2019_Jun_17_1717_435,-1,False,2019_Jun_17_1717,Yes-No Task,3,KLRU16,
Yes-No Task,60,0,60,0,7.4,-1,Hit,0.634757300024,True,-1,stimulus_KLRU16_Yes-No Task_2019_Jun_17_1717_436,-1,False,2019_Jun_17_1717,Yes-No Task,3,KLRU16,
Yes-No Task,61,0,61,0,7.4,-1,Correct Rejection,0.6342267,False,-1,stimulus_KLRU16_Yes-No Task_2019_Jun_17_1717_437,-1,False,2019_Jun_17_1717,Yes-No Task,3,KLRU16,
Yes-No Task,62,0,62,0,7.4,-1,Hit,0.466907899943,True,-1,stimulus_KLRU16_Yes-No Task_2019_Jun_17_1717_438,-1,False,2019_Jun_17_1717,Yes-No Task,3,KLRU16,
Yes-No Task,63,0,63,0,7.4,-1,Hit,0.668260800012,True,-1,stimulus_KLRU16_Yes-No Task_2019_Jun_17_1717_439,-1,False,2019_Jun_17_1717,Yes-No Task,3,KLRU16,
Yes-No Task,64,0,64,0,7.4,-1,Correct Rejection,0.533964100003,False,-1,stimulus_KLRU16_Yes-No Task_2019_Jun_17_1717_440,-1,False,2019_Jun_17_1717,Yes-No Task,3,KLRU16,
Yes-No Task,65,0,65,0,7.4,-1,Correct Rejection,0.600601300015,False,-1,stimulus_KLRU16_Yes-No Task_2019_Jun_17_1717_441,-1,False,2019_Jun_17_1717,Yes-No Task,3,KLRU16,
Yes-No Task,66,0,66,0,7.4,-1,Hit,0.734630499966,True,-1,stimulus_KLRU16_Yes-No Task_2019_Jun_17_1717_442,-1,False,2019_Jun_17_1717,Yes-No Task,3,KLRU16,
Yes-No Task,67,0,67,0,7.4,-1,Hit,0.604841799999,True,-1,stimulus_KLRU16_Yes-No Task_2019_Jun_17_1717_443,-1,False,2019_Jun_17_1717,Yes-No Task,3,KLRU16,
Yes-No Task,68,0,68,0,7.4,-1,Correct Rejection,0.53290250001,False,-1,stimulus_KLRU16_Yes-No Task_2019_Jun_17_1717_444,-1,False,2019_Jun_17_1717,Yes-No Task,3,KLRU16,
Yes-No Task,69,0,69,0,7.4,-1,False Alarm,0.669248599967,False,-1,stimulus_KLRU16_Yes-No Task_2019_Jun_17_1717_445,-1,False,2019_Jun_17_1717,Yes-No Task,3,KLRU16,
Yes-No Task,70,0,70,0,7.4,-1,Correct Rejection,0.567179500009,False,-1,stimulus_KLRU16_Yes-No Task_2019_Jun_17_1717_446,-1,False,2019_Jun_17_1717,Yes-No Task,3,KLRU16,
Yes-No Task,71,0,71,0,7.4,-1,Hit,0.533979699947,True,-1,stimulus_KLRU16_Yes-No Task_2019_Jun_17_1717_447,-1,False,2019_Jun_17_1717,Yes-No Task,3,KLRU16,
Yes-No Task,72,0,72,0,7.4,-1,Hit,0.667334700003,True,-1,stimulus_KLRU16_Yes-No Task_2019_Jun_17_1717_448,-1,False,2019_Jun_17_1717,Yes-No Task,3,KLRU16,
Yes-No Task,73,0,73,0,7.4,-1,Correct Rejection,0.534123299993,False,-1,stimulus_KLRU16_Yes-No Task_2019_Jun_17_1717_449,-1,False,2019_Jun_17_1717,Yes-No Task,3,KLRU16,
Yes-No Task,74,0,74,0,7.4,-1,Correct Rejection,0.467173800047,False,-1,stimulus_KLRU16_Yes-No Task_2019_Jun_17_1717_450,-1,False,2019_Jun_17_1717,Yes-No Task,3,KLRU16,
Yes-No Task,0,0,0,0,5.1,-1,Miss,0.567948499986,True,-1,stimulus_KLRU16_Yes-No Task_2019_Jun_17_1717_451,-1,False,2019_Jun_17_1717,Yes-No Task,3,KLRU16,
Yes-No Task,1,0,1,0,5.1,-1,Correct Rejection,0.533644500014,False,-1,stimulus_KLRU16_Yes-No Task_2019_Jun_17_1717_452,-1,False,2019_Jun_17_1717,Yes-No Task,3,KLRU16,
Yes-No Task,2,0,2,0,5.1,-1,Correct Rejection,0.533237900003,False,-1,stimulus_KLRU16_Yes-No Task_2019_Jun_17_1717_453,-1,False,2019_Jun_17_1717,Yes-No Task,3,KLRU16,
Yes-No Task,3,0,3,0,5.1,-1,Miss,0.667233799992,True,-1,stimulus_KLRU16_Yes-No Task_2019_Jun_17_1717_454,-1,False,2019_Jun_17_1717,Yes-No Task,3,KLRU16,
Yes-No Task,4,0,4,0,5.1,-1,Hit,0.567869899969,True,-1,stimulus_KLRU16_Yes-No Task_2019_Jun_17_1717_455,-1,False,2019_Jun_17_1717,Yes-No Task,3,KLRU16,
Yes-No Task,5,0,5,0,5.1,-1,Miss,0.634188900003,True,-1,stimulus_KLRU16_Yes-No Task_2019_Jun_17_1717_456,-1,False,2019_Jun_17_1717,Yes-No Task,3,KLRU16,
Yes-No Task,6,0,6,0,5.1,-1,False Alarm,0.702408599958,False,-1,stimulus_KLRU16_Yes-No Task_2019_Jun_17_1717_457,-1,False,2019_Jun_17_1717,Yes-No Task,3,KLRU16,
Yes-No Task,7,0,7,0,5.1,-1,False Alarm,0.699972199975,False,-1,stimulus_KLRU16_Yes-No Task_2019_Jun_17_1717_458,-1,False,2019_Jun_17_1717,Yes-No Task,3,KLRU16,
Yes-No Task,8,0,8,0,5.1,-1,Correct Rejection,0.566335799987,False,-1,stimulus_KLRU16_Yes-No Task_2019_Jun_17_1717_459,-1,False,2019_Jun_17_1717,Yes-No Task,3,KLRU16,
Yes-No Task,9,0,9,0,5.1,-1,No Answer,-1,True,-1,stimulus_KLRU16_Yes-No Task_2019_Jun_17_1717_460,-1,False,2019_Jun_17_1717,Yes-No Task,3,KLRU16,
Yes-No Task,10,0,10,0,5.1,-1,Miss,0.60613619996,True,-1,stimulus_KLRU16_Yes-No Task_2019_Jun_17_1717_461,-1,False,2019_Jun_17_1717,Yes-No Task,3,KLRU16,
Yes-No Task,11,0,11,0,5.1,-1,Hit,0.668256000034,True,-1,stimulus_KLRU16_Yes-No Task_2019_Jun_17_1717_462,-1,False,2019_Jun_17_1717,Yes-No Task,3,KLRU16,
Yes-No Task,12,0,12,0,5.1,-1,Hit,0.503774399986,True,-1,stimulus_KLRU16_Yes-No Task_2019_Jun_17_1717_463,-1,False,2019_Jun_17_1717,Yes-No Task,3,KLRU16,
Yes-No Task,13,0,13,0,5.1,-1,Hit,0.701458099997,True,-1,stimulus_KLRU16_Yes-No Task_2019_Jun_17_1717_464,-1,False,2019_Jun_17_1717,Yes-No Task,3,KLRU16,
Yes-No Task,14,0,14,0,5.1,-1,Correct Rejection,0.500683200022,False,-1,stimulus_KLRU16_Yes-No Task_2019_Jun_17_1717_465,-1,False,2019_Jun_17_1717,Yes-No Task,3,KLRU16,
Yes-No Task,15,0,15,0,5.1,-1,Correct Rejection,0.567066700023,False,-1,stimulus_KLRU16_Yes-No Task_2019_Jun_17_1717_466,-1,False,2019_Jun_17_1717,Yes-No Task,3,KLRU16,
Yes-No Task,16,0,16,0,5.1,-1,Hit,0.633924299967,True,-1,stimulus_KLRU16_Yes-No Task_2019_Jun_17_1717_467,-1,False,2019_Jun_17_1717,Yes-No Task,3,KLRU16,
Yes-No Task,17,0,17,0,5.1,-1,Hit,0.701053700002,True,-1,stimulus_KLRU16_Yes-No Task_2019_Jun_17_1717_468,-1,False,2019_Jun_17_1717,Yes-No Task,3,KLRU16,
Yes-No Task,18,0,18,0,5.1,-1,Correct Rejection,0.66643360001,False,-1,stimulus_KLRU16_Yes-No Task_2019_Jun_17_1717_469,-1,False,2019_Jun_17_1717,Yes-No Task,3,KLRU16,
Yes-No Task,19,0,19,0,5.1,-1,Hit,0.567572599975,True,-1,stimulus_KLRU16_Yes-No Task_2019_Jun_17_1717_470,-1,False,2019_Jun_17_1717,Yes-No Task,3,KLRU16,
Yes-No Task,20,0,20,0,5.1,-1,Correct Rejection,0.567340599955,False,-1,stimulus_KLRU16_Yes-No Task_2019_Jun_17_1717_471,-1,False,2019_Jun_17_1717,Yes-No Task,3,KLRU16,
Yes-No Task,21,0,21,0,5.1,-1,Miss,0.634194199985,True,-1,stimulus_KLRU16_Yes-No Task_2019_Jun_17_1717_472,-1,False,2019_Jun_17_1717,Yes-No Task,3,KLRU16,
Yes-No Task,22,0,22,0,5.1,-1,Correct Rejection,0.667158900003,False,-1,stimulus_KLRU16_Yes-No Task_2019_Jun_17_1717_473,-1,False,2019_Jun_17_1717,Yes-No Task,3,KLRU16,
Yes-No Task,23,0,23,0,5.1,-1,Hit,0.570606099966,True,-1,stimulus_KLRU16_Yes-No Task_2019_Jun_17_1717_474,-1,False,2019_Jun_17_1717,Yes-No Task,3,KLRU16,
Yes-No Task,24,0,24,0,5.1,-1,Hit,0.567255400005,True,-1,stimulus_KLRU16_Yes-No Task_2019_Jun_17_1717_475,-1,False,2019_Jun_17_1717,Yes-No Task,3,KLRU16,
Yes-No Task,25,0,25,0,5.1,-1,Hit,0.601828499988,True,-1,stimulus_KLRU16_Yes-No Task_2019_Jun_17_1717_476,-1,False,2019_Jun_17_1717,Yes-No Task,3,KLRU16,
Yes-No Task,26,0,26,0,5.1,-1,False Alarm,0.567869499966,False,-1,stimulus_KLRU16_Yes-No Task_2019_Jun_17_1717_477,-1,False,2019_Jun_17_1717,Yes-No Task,3,KLRU16,
Yes-No Task,27,0,27,0,5.1,-1,False Alarm,0.667528099963,False,-1,stimulus_KLRU16_Yes-No Task_2019_Jun_17_1717_478,-1,False,2019_Jun_17_1717,Yes-No Task,3,KLRU16,
Yes-No Task,28,0,28,0,5.1,-1,Correct Rejection,0.734756999998,False,-1,stimulus_KLRU16_Yes-No Task_2019_Jun_17_1717_479,-1,False,2019_Jun_17_1717,Yes-No Task,3,KLRU16,
Yes-No Task,29,0,29,0,5.1,-1,Correct Rejection,0.835766600037,False,-1,stimulus_KLRU16_Yes-No Task_2019_Jun_17_1717_480,-1,False,2019_Jun_17_1717,Yes-No Task,3,KLRU16,
Yes-No Task,30,0,30,0,5.1,-1,Hit,0.534458100039,True,-1,stimulus_KLRU16_Yes-No Task_2019_Jun_17_1717_481,-1,False,2019_Jun_17_1717,Yes-No Task,3,KLRU16,
Yes-No Task,31,0,31,0,5.1,-1,Hit,0.533178000012,True,-1,stimulus_KLRU16_Yes-No Task_2019_Jun_17_1717_482,-1,False,2019_Jun_17_1717,Yes-No Task,3,KLRU16,
Yes-No Task,32,0,32,0,5.1,-1,Hit,0.534272400022,True,-1,stimulus_KLRU16_Yes-No Task_2019_Jun_17_1717_483,-1,False,2019_Jun_17_1717,Yes-No Task,3,KLRU16,
Yes-No Task,33,0,33,0,5.1,-1,Correct Rejection,0.66723620001,False,-1,stimulus_KLRU16_Yes-No Task_2019_Jun_17_1717_484,-1,False,2019_Jun_17_1717,Yes-No Task,3,KLRU16,
Yes-No Task,34,0,34,0,5.1,-1,Correct Rejection,0.533949900011,False,-1,stimulus_KLRU16_Yes-No Task_2019_Jun_17_1717_485,-1,False,2019_Jun_17_1717,Yes-No Task,3,KLRU16,
Yes-No Task,35,0,35,0,5.1,-1,Correct Rejection,0.533883300028,False,-1,stimulus_KLRU16_Yes-No Task_2019_Jun_17_1717_486,-1,False,2019_Jun_17_1717,Yes-No Task,3,KLRU16,
Yes-No Task,36,0,36,0,5.1,-1,Correct Rejection,0.534669900022,False,-1,stimulus_KLRU16_Yes-No Task_2019_Jun_17_1717_487,-1,False,2019_Jun_17_1717,Yes-No Task,3,KLRU16,
Yes-No Task,37,0,37,0,5.1,-1,Correct Rejection,0.566975100024,False,-1,stimulus_KLRU16_Yes-No Task_2019_Jun_17_1717_488,-1,False,2019_Jun_17_1717,Yes-No Task,3,KLRU16,
Yes-No Task,38,0,38,0,5.1,-1,Correct Rejection,0.467138900014,False,-1,stimulus_KLRU16_Yes-No Task_2019_Jun_17_1717_489,-1,False,2019_Jun_17_1717,Yes-No Task,3,KLRU16,
Yes-No Task,39,0,39,0,5.1,-1,Correct Rejection,0.733904199966,False,-1,stimulus_KLRU16_Yes-No Task_2019_Jun_17_1717_490,-1,False,2019_Jun_17_1717,Yes-No Task,3,KLRU16,
Yes-No Task,40,0,40,0,5.1,-1,Correct Rejection,0.633989099995,False,-1,stimulus_KLRU16_Yes-No Task_2019_Jun_17_1717_491,-1,False,2019_Jun_17_1717,Yes-No Task,3,KLRU16,
Yes-No Task,41,0,41,0,5.1,-1,Miss,0.601785799954,True,-1,stimulus_KLRU16_Yes-No Task_2019_Jun_17_1717_492,-1,False,2019_Jun_17_1717,Yes-No Task,3,KLRU16,
Yes-No Task,42,0,42,0,5.1,-1,Hit,0.565027000033,True,-1,stimulus_KLRU16_Yes-No Task_2019_Jun_17_1717_493,-1,False,2019_Jun_17_1717,Yes-No Task,3,KLRU16,
Yes-No Task,43,0,43,0,5.1,-1,Hit,0.53420600004,True,-1,stimulus_KLRU16_Yes-No Task_2019_Jun_17_1717_494,-1,False,2019_Jun_17_1717,Yes-No Task,3,KLRU16,
Yes-No Task,44,0,44,0,5.1,-1,Hit,0.500562299974,True,-1,stimulus_KLRU16_Yes-No Task_2019_Jun_17_1717_495,-1,False,2019_Jun_17_1717,Yes-No Task,3,KLRU16,
Yes-No Task,45,0,45,0,5.1,-1,Hit,0.533825599996,True,-1,stimulus_KLRU16_Yes-No Task_2019_Jun_17_1717_496,-1,False,2019_Jun_17_1717,Yes-No Task,3,KLRU16,
Yes-No Task,46,0,46,0,5.1,-1,False Alarm,0.501598400006,False,-1,stimulus_KLRU16_Yes-No Task_2019_Jun_17_1717_497,-1,False,2019_Jun_17_1717,Yes-No Task,3,KLRU16,
Yes-No Task,47,0,47,0,5.1,-1,False Alarm,0.76726610004,False,-1,stimulus_KLRU16_Yes-No Task_2019_Jun_17_1717_498,-1,False,2019_Jun_17_1717,Yes-No Task,3,KLRU16,
Yes-No Task,48,0,48,0,5.1,-1,False Alarm,0.633828899998,False,-1,stimulus_KLRU16_Yes-No Task_2019_Jun_17_1717_499,-1,False,2019_Jun_17_1717,Yes-No Task,3,KLRU16,
Yes-No Task,49,0,49,0,5.1,-1,False Alarm,0.800597299996,False,-1,stimulus_KLRU16_Yes-No Task_2019_Jun_17_1717_500,-1,False,2019_Jun_17_1717,Yes-No Task,3,KLRU16,
Yes-No Task,50,0,50,0,5.1,-1,Miss,0.834152099967,True,-1,stimulus_KLRU16_Yes-No Task_2019_Jun_17_1717_501,-1,False,2019_Jun_17_1717,Yes-No Task,3,KLRU16,
Yes-No Task,51,0,51,0,5.1,-1,Hit,0.734238400008,True,-1,stimulus_KLRU16_Yes-No Task_2019_Jun_17_1717_502,-1,False,2019_Jun_17_1717,Yes-No Task,3,KLRU16,
Yes-No Task,52,0,52,0,5.1,-1,Hit,0.533047900011,True,-1,stimulus_KLRU16_Yes-No Task_2019_Jun_17_1717_503,-1,False,2019_Jun_17_1717,Yes-No Task,3,KLRU16,
Yes-No Task,53,0,53,0,5.1,-1,Correct Rejection,0.699740300013,False,-1,stimulus_KLRU16_Yes-No Task_2019_Jun_17_1717_504,-1,False,2019_Jun_17_1717,Yes-No Task,3,KLRU16,
Yes-No Task,54,0,54,0,5.1,-1,Hit,0.467156700033,True,-1,stimulus_KLRU16_Yes-No Task_2019_Jun_17_1717_505,-1,False,2019_Jun_17_1717,Yes-No Task,3,KLRU16,
Yes-No Task,55,0,55,0,5.1,-1,False Alarm,0.500878199993,False,-1,stimulus_KLRU16_Yes-No Task_2019_Jun_17_1717_506,-1,False,2019_Jun_17_1717,Yes-No Task,3,KLRU16,
Yes-No Task,56,0,56,0,5.1,-1,Hit,0.500628400012,True,-1,stimulus_KLRU16_Yes-No Task_2019_Jun_17_1717_507,-1,False,2019_Jun_17_1717,Yes-No Task,3,KLRU16,
Yes-No Task,57,0,57,0,5.1,-1,Hit,0.534230000048,True,-1,stimulus_KLRU16_Yes-No Task_2019_Jun_17_1717_508,-1,False,2019_Jun_17_1717,Yes-No Task,3,KLRU16,
Yes-No Task,58,0,58,0,5.1,-1,Correct Rejection,0.600904399995,False,-1,stimulus_KLRU16_Yes-No Task_2019_Jun_17_1717_509,-1,False,2019_Jun_17_1717,Yes-No Task,3,KLRU16,
Yes-No Task,59,0,59,0,5.1,-1,Hit,0.534794400039,True,-1,stimulus_KLRU16_Yes-No Task_2019_Jun_17_1717_510,-1,False,2019_Jun_17_1717,Yes-No Task,3,KLRU16,
Yes-No Task,60,0,60,0,5.1,-1,Hit,0.501158500032,True,-1,stimulus_KLRU16_Yes-No Task_2019_Jun_17_1717_511,-1,False,2019_Jun_17_1717,Yes-No Task,3,KLRU16,
Yes-No Task,61,0,61,0,5.1,-1,Correct Rejection,0.700787900016,False,-1,stimulus_KLRU16_Yes-No Task_2019_Jun_17_1717_512,-1,False,2019_Jun_17_1717,Yes-No Task,3,KLRU16,
Yes-No Task,62,0,62,0,5.1,-1,Correct Rejection,0.46703639999,False,-1,stimulus_KLRU16_Yes-No Task_2019_Jun_17_1717_513,-1,False,2019_Jun_17_1717,Yes-No Task,3,KLRU16,
Yes-No Task,63,0,63,0,5.1,-1,Miss,0.500651899958,True,-1,stimulus_KLRU16_Yes-No Task_2019_Jun_17_1717_514,-1,False,2019_Jun_17_1717,Yes-No Task,3,KLRU16,
Yes-No Task,64,0,64,0,5.1,-1,Hit,0.567442000029,True,-1,stimulus_KLRU16_Yes-No Task_2019_Jun_17_1717_515,-1,False,2019_Jun_17_1717,Yes-No Task,3,KLRU16,
Yes-No Task,65,0,65,0,5.1,-1,Hit,0.532118999981,True,-1,stimulus_KLRU16_Yes-No Task_2019_Jun_17_1717_516,-1,False,2019_Jun_17_1717,Yes-No Task,3,KLRU16,
Yes-No Task,66,0,66,0,5.1,-1,Correct Rejection,0.563214200025,False,-1,stimulus_KLRU16_Yes-No Task_2019_Jun_17_1717_517,-1,False,2019_Jun_17_1717,Yes-No Task,3,KLRU16,
Yes-No Task,67,0,67,0,5.1,-1,Correct Rejection,0.567962799978,False,-1,stimulus_KLRU16_Yes-No Task_2019_Jun_17_1717_518,-1,False,2019_Jun_17_1717,Yes-No Task,3,KLRU16,
Yes-No Task,68,0,68,0,5.1,-1,Hit,0.502376999997,True,-1,stimulus_KLRU16_Yes-No Task_2019_Jun_17_1717_519,-1,False,2019_Jun_17_1717,Yes-No Task,3,KLRU16,
Yes-No Task,69,0,69,0,5.1,-1,False Alarm,0.433232399984,False,-1,stimulus_KLRU16_Yes-No Task_2019_Jun_17_1717_520,-1,False,2019_Jun_17_1717,Yes-No Task,3,KLRU16,
Yes-No Task,70,0,70,0,5.1,-1,Hit,0.500266499992,True,-1,stimulus_KLRU16_Yes-No Task_2019_Jun_17_1717_521,-1,False,2019_Jun_17_1717,Yes-No Task,3,KLRU16,
Yes-No Task,71,0,71,0,5.1,-1,Hit,0.500521000009,True,-1,stimulus_KLRU16_Yes-No Task_2019_Jun_17_1717_522,-1,False,2019_Jun_17_1717,Yes-No Task,3,KLRU16,
Yes-No Task,72,0,72,0,5.1,-1,Miss,0.433923500008,True,-1,stimulus_KLRU16_Yes-No Task_2019_Jun_17_1717_523,-1,False,2019_Jun_17_1717,Yes-No Task,3,KLRU16,
Yes-No Task,73,0,73,0,5.1,-1,Hit,0.600694599969,True,-1,stimulus_KLRU16_Yes-No Task_2019_Jun_17_1717_524,-1,False,2019_Jun_17_1717,Yes-No Task,3,KLRU16,
Yes-No Task,74,0,74,0,5.1,-1,Hit,0.534051600029,True,-1,stimulus_KLRU16_Yes-No Task_2019_Jun_17_1717_525,-1,False,2019_Jun_17_1717,Yes-No Task,3,KLRU16,
Yes-No Task,0,0,0,0,6.4,-1,Correct Rejection,0.467029699998,False,-1,stimulus_KLRU16_Yes-No Task_2019_Jun_17_1717_526,-1,False,2019_Jun_17_1717,Yes-No Task,3,KLRU16,
Yes-No Task,1,0,1,0,6.4,-1,Correct Rejection,0.500812700018,False,-1,stimulus_KLRU16_Yes-No Task_2019_Jun_17_1717_527,-1,False,2019_Jun_17_1717,Yes-No Task,3,KLRU16,
Yes-No Task,2,0,2,0,6.4,-1,Correct Rejection,0.50149960001,False,-1,stimulus_KLRU16_Yes-No Task_2019_Jun_17_1717_528,-1,False,2019_Jun_17_1717,Yes-No Task,3,KLRU16,
Yes-No Task,3,0,3,0,6.4,-1,Hit,0.469340600015,True,-1,stimulus_KLRU16_Yes-No Task_2019_Jun_17_1717_529,-1,False,2019_Jun_17_1717,Yes-No Task,3,KLRU16,
Yes-No Task,4,0,4,0,6.4,-1,Miss,0.600508200005,True,-1,stimulus_KLRU16_Yes-No Task_2019_Jun_17_1717_530,-1,False,2019_Jun_17_1717,Yes-No Task,3,KLRU16,
Yes-No Task,5,0,5,0,6.4,-1,False Alarm,0.667213799956,False,-1,stimulus_KLRU16_Yes-No Task_2019_Jun_17_1717_531,-1,False,2019_Jun_17_1717,Yes-No Task,3,KLRU16,
Yes-No Task,6,0,6,0,6.4,-1,Correct Rejection,0.534124500002,False,-1,stimulus_KLRU16_Yes-No Task_2019_Jun_17_1717_532,-1,False,2019_Jun_17_1717,Yes-No Task,3,KLRU16,
Yes-No Task,7,0,7,0,6.4,-1,Correct Rejection,0.534018699953,False,-1,stimulus_KLRU16_Yes-No Task_2019_Jun_17_1717_533,-1,False,2019_Jun_17_1717,Yes-No Task,3,KLRU16,
Yes-No Task,8,0,8,0,6.4,-1,Correct Rejection,0.533953300037,False,-1,stimulus_KLRU16_Yes-No Task_2019_Jun_17_1717_534,-1,False,2019_Jun_17_1717,Yes-No Task,3,KLRU16,
Yes-No Task,9,0,9,0,6.4,-1,Hit,0.567502500024,True,-1,stimulus_KLRU16_Yes-No Task_2019_Jun_17_1717_535,-1,False,2019_Jun_17_1717,Yes-No Task,3,KLRU16,
Yes-No Task,10,0,10,0,6.4,-1,Hit,0.567205799976,True,-1,stimulus_KLRU16_Yes-No Task_2019_Jun_17_1717_536,-1,False,2019_Jun_17_1717,Yes-No Task,3,KLRU16,
Yes-No Task,11,0,11,0,6.4,-1,Hit,0.567230299988,True,-1,stimulus_KLRU16_Yes-No Task_2019_Jun_17_1717_537,-1,False,2019_Jun_17_1717,Yes-No Task,3,KLRU16,
Yes-No Task,12,0,12,0,6.4,-1,Hit,0.46736770001,True,-1,stimulus_KLRU16_Yes-No Task_2019_Jun_17_1717_538,-1,False,2019_Jun_17_1717,Yes-No Task,3,KLRU16,
Yes-No Task,13,0,13,0,6.4,-1,Correct Rejection,0.567600599956,False,-1,stimulus_KLRU16_Yes-No Task_2019_Jun_17_1717_539,-1,False,2019_Jun_17_1717,Yes-No Task,3,KLRU16,
Yes-No Task,14,0,14,0,6.4,-1,Correct Rejection,0.5000535,False,-1,stimulus_KLRU16_Yes-No Task_2019_Jun_17_1717_540,-1,False,2019_Jun_17_1717,Yes-No Task,3,KLRU16,
Yes-No Task,15,0,15,0,6.4,-1,Hit,0.466885399946,True,-1,stimulus_KLRU16_Yes-No Task_2019_Jun_17_1717_541,-1,False,2019_Jun_17_1717,Yes-No Task,3,KLRU16,
Yes-No Task,16,0,16,0,6.4,-1,Hit,0.467671599996,True,-1,stimulus_KLRU16_Yes-No Task_2019_Jun_17_1717_542,-1,False,2019_Jun_17_1717,Yes-No Task,3,KLRU16,
Yes-No Task,17,0,17,0,6.4,-1,Correct Rejection,0.533327499987,False,-1,stimulus_KLRU16_Yes-No Task_2019_Jun_17_1717_543,-1,False,2019_Jun_17_1717,Yes-No Task,3,KLRU16,
Yes-No Task,18,0,18,0,6.4,-1,Correct Rejection,0.434206200007,False,-1,stimulus_KLRU16_Yes-No Task_2019_Jun_17_1717_544,-1,False,2019_Jun_17_1717,Yes-No Task,3,KLRU16,
Yes-No Task,19,0,19,0,6.4,-1,Hit,0.467319099989,True,-1,stimulus_KLRU16_Yes-No Task_2019_Jun_17_1717_545,-1,False,2019_Jun_17_1717,Yes-No Task,3,KLRU16,
Yes-No Task,20,0,20,0,6.4,-1,Correct Rejection,0.435732399987,False,-1,stimulus_KLRU16_Yes-No Task_2019_Jun_17_1717_546,-1,False,2019_Jun_17_1717,Yes-No Task,3,KLRU16,
Yes-No Task,21,0,21,0,6.4,-1,Correct Rejection,0.532764999953,False,-1,stimulus_KLRU16_Yes-No Task_2019_Jun_17_1717_547,-1,False,2019_Jun_17_1717,Yes-No Task,3,KLRU16,
Yes-No Task,22,0,22,0,6.4,-1,Hit,0.5007874,True,-1,stimulus_KLRU16_Yes-No Task_2019_Jun_17_1717_548,-1,False,2019_Jun_17_1717,Yes-No Task,3,KLRU16,
Yes-No Task,23,0,23,0,6.4,-1,Correct Rejection,0.433878500015,False,-1,stimulus_KLRU16_Yes-No Task_2019_Jun_17_1717_549,-1,False,2019_Jun_17_1717,Yes-No Task,3,KLRU16,
Yes-No Task,24,0,24,0,6.4,-1,Correct Rejection,0.467150100041,False,-1,stimulus_KLRU16_Yes-No Task_2019_Jun_17_1717_550,-1,False,2019_Jun_17_1717,Yes-No Task,3,KLRU16,
Yes-No Task,25,0,25,0,6.4,-1,Correct Rejection,0.43375690002,False,-1,stimulus_KLRU16_Yes-No Task_2019_Jun_17_1717_551,-1,False,2019_Jun_17_1717,Yes-No Task,3,KLRU16,
Yes-No Task,26,0,26,0,6.4,-1,Hit,0.567425300018,True,-1,stimulus_KLRU16_Yes-No Task_2019_Jun_17_1717_552,-1,False,2019_Jun_17_1717,Yes-No Task,3,KLRU16,
Yes-No Task,27,0,27,0,6.4,-1,Correct Rejection,0.467243699997,False,-1,stimulus_KLRU16_Yes-No Task_2019_Jun_17_1717_553,-1,False,2019_Jun_17_1717,Yes-No Task,3,KLRU16,
Yes-No Task,28,0,28,0,6.4,-1,Correct Rejection,0.567264000012,False,-1,stimulus_KLRU16_Yes-No Task_2019_Jun_17_1717_554,-1,False,2019_Jun_17_1717,Yes-No Task,3,KLRU16,
Yes-No Task,29,0,29,0,6.4,-1,Miss,0.633911299985,True,-1,stimulus_KLRU16_Yes-No Task_2019_Jun_17_1717_555,-1,False,2019_Jun_17_1717,Yes-No Task,3,KLRU16,
Yes-No Task,30,0,30,0,6.4,-1,Correct Rejection,0.467136499996,False,-1,stimulus_KLRU16_Yes-No Task_2019_Jun_17_1717_556,-1,False,2019_Jun_17_1717,Yes-No Task,3,KLRU16,
Yes-No Task,31,0,31,0,6.4,-1,Correct Rejection,0.500852099969,False,-1,stimulus_KLRU16_Yes-No Task_2019_Jun_17_1717_557,-1,False,2019_Jun_17_1717,Yes-No Task,3,KLRU16,
Yes-No Task,32,0,32,0,6.4,-1,Correct Rejection,0.567225100007,False,-1,stimulus_KLRU16_Yes-No Task_2019_Jun_17_1717_558,-1,False,2019_Jun_17_1717,Yes-No Task,3,KLRU16,
Yes-No Task,33,0,33,0,6.4,-1,Correct Rejection,0.467571199988,False,-1,stimulus_KLRU16_Yes-No Task_2019_Jun_17_1717_559,-1,False,2019_Jun_17_1717,Yes-No Task,3,KLRU16,
Yes-No Task,34,0,34,0,6.4,-1,Correct Rejection,0.465239499987,False,-1,stimulus_KLRU16_Yes-No Task_2019_Jun_17_1717_560,-1,False,2019_Jun_17_1717,Yes-No Task,3,KLRU16,
Yes-No Task,35,0,35,0,6.4,-1,Correct Rejection,0.534582499997,False,-1,stimulus_KLRU16_Yes-No Task_2019_Jun_17_1717_561,-1,False,2019_Jun_17_1717,Yes-No Task,3,KLRU16,
Yes-No Task,36,0,36,0,6.4,-1,Miss,0.535149500007,True,-1,stimulus_KLRU16_Yes-No Task_2019_Jun_17_1717_562,-1,False,2019_Jun_17_1717,Yes-No Task,3,KLRU16,
Yes-No Task,37,0,37,0,6.4,-1,Correct Rejection,0.533620600007,False,-1,stimulus_KLRU16_Yes-No Task_2019_Jun_17_1717_563,-1,False,2019_Jun_17_1717,Yes-No Task,3,KLRU16,
Yes-No Task,38,0,38,0,6.4,-1,Hit,0.567680899985,True,-1,stimulus_KLRU16_Yes-No Task_2019_Jun_17_1717_564,-1,False,2019_Jun_17_1717,Yes-No Task,3,KLRU16,
Yes-No Task,39,0,39,0,6.4,-1,Hit,0.667059800006,True,-1,stimulus_KLRU16_Yes-No Task_2019_Jun_17_1717_565,-1,False,2019_Jun_17_1717,Yes-No Task,3,KLRU16,
Yes-No Task,40,0,40,0,6.4,-1,Correct Rejection,0.600888999994,False,-1,stimulus_KLRU16_Yes-No Task_2019_Jun_17_1717_566,-1,False,2019_Jun_17_1717,Yes-No Task,3,KLRU16,
Yes-No Task,41,0,41,0,6.4,-1,Hit,0.634018000041,True,-1,stimulus_KLRU16_Yes-No Task_2019_Jun_17_1717_567,-1,False,2019_Jun_17_1717,Yes-No Task,3,KLRU16,
Yes-No Task,42,0,42,0,6.4,-1,Correct Rejection,0.600579700025,False,-1,stimulus_KLRU16_Yes-No Task_2019_Jun_17_1717_568,-1,False,2019_Jun_17_1717,Yes-No Task,3,KLRU16,
Yes-No Task,43,0,43,0,6.4,-1,Hit,0.767401300021,True,-1,stimulus_KLRU16_Yes-No Task_2019_Jun_17_1717_569,-1,False,2019_Jun_17_1717,Yes-No Task,3,KLRU16,
Yes-No Task,44,0,44,0,6.4,-1,Hit,0.634058300056,True,-1,stimulus_KLRU16_Yes-No Task_2019_Jun_17_1717_570,-1,False,2019_Jun_17_1717,Yes-No Task,3,KLRU16,
Yes-No Task,45,0,45,0,6.4,-1,False Alarm,0.700041399978,False,-1,stimulus_KLRU16_Yes-No Task_2019_Jun_17_1717_571,-1,False,2019_Jun_17_1717,Yes-No Task,3,KLRU16,
Yes-No Task,46,0,46,0,6.4,-1,Hit,0.635124699969,True,-1,stimulus_KLRU16_Yes-No Task_2019_Jun_17_1717_572,-1,False,2019_Jun_17_1717,Yes-No Task,3,KLRU16,
Yes-No Task,47,0,47,0,6.4,-1,Hit,0.600889699999,True,-1,stimulus_KLRU16_Yes-No Task_2019_Jun_17_1717_573,-1,False,2019_Jun_17_1717,Yes-No Task,3,KLRU16,
Yes-No Task,48,0,48,0,6.4,-1,Correct Rejection,0.70070039999,False,-1,stimulus_KLRU16_Yes-No Task_2019_Jun_17_1717_574,-1,False,2019_Jun_17_1717,Yes-No Task,3,KLRU16,
Yes-No Task,49,0,49,0,6.4,-1,Miss,0.767864399997,True,-1,stimulus_KLRU16_Yes-No Task_2019_Jun_17_1717_575,-1,False,2019_Jun_17_1717,Yes-No Task,3,KLRU16,
Yes-No Task,50,0,50,0,6.4,-1,Correct Rejection,0.867464099952,False,-1,stimulus_KLRU16_Yes-No Task_2019_Jun_17_1717_576,-1,False,2019_Jun_17_1717,Yes-No Task,3,KLRU16,
Yes-No Task,51,0,51,0,6.4,-1,Hit,0.6022581,True,-1,stimulus_KLRU16_Yes-No Task_2019_Jun_17_1717_577,-1,False,2019_Jun_17_1717,Yes-No Task,3,KLRU16,
Yes-No Task,52,0,52,0,6.4,-1,Hit,0.500627900008,True,-1,stimulus_KLRU16_Yes-No Task_2019_Jun_17_1717_578,-1,False,2019_Jun_17_1717,Yes-No Task,3,KLRU16,
Yes-No Task,53,0,53,0,6.4,-1,Hit,0.634465700015,True,-1,stimulus_KLRU16_Yes-No Task_2019_Jun_17_1717_579,-1,False,2019_Jun_17_1717,Yes-No Task,3,KLRU16,
Yes-No Task,54,0,54,0,6.4,-1,Hit,0.533948900003,True,-1,stimulus_KLRU16_Yes-No Task_2019_Jun_17_1717_580,-1,False,2019_Jun_17_1717,Yes-No Task,3,KLRU16,
Yes-No Task,55,0,55,0,6.4,-1,Hit,0.600414900051,True,-1,stimulus_KLRU16_Yes-No Task_2019_Jun_17_1717_581,-1,False,2019_Jun_17_1717,Yes-No Task,3,KLRU16,
Yes-No Task,56,0,56,0,6.4,-1,Hit,0.534550199984,True,-1,stimulus_KLRU16_Yes-No Task_2019_Jun_17_1717_582,-1,False,2019_Jun_17_1717,Yes-No Task,3,KLRU16,
Yes-No Task,57,0,57,0,6.4,-1,Hit,0.833110000007,True,-1,stimulus_KLRU16_Yes-No Task_2019_Jun_17_1717_583,-1,False,2019_Jun_17_1717,Yes-No Task,3,KLRU16,
Yes-No Task,58,0,58,0,6.4,-1,Correct Rejection,0.666738600004,False,-1,stimulus_KLRU16_Yes-No Task_2019_Jun_17_1717_584,-1,False,2019_Jun_17_1717,Yes-No Task,3,KLRU16,
Yes-No Task,59,0,59,0,6.4,-1,Hit,0.567071999947,True,-1,stimulus_KLRU16_Yes-No Task_2019_Jun_17_1717_585,-1,False,2019_Jun_17_1717,Yes-No Task,3,KLRU16,
Yes-No Task,60,0,60,0,6.4,-1,Hit,0.63385340001,True,-1,stimulus_KLRU16_Yes-No Task_2019_Jun_17_1717_586,-1,False,2019_Jun_17_1717,Yes-No Task,3,KLRU16,
Yes-No Task,61,0,61,0,6.4,-1,Hit,0.667120300001,True,-1,stimulus_KLRU16_Yes-No Task_2019_Jun_17_1717_587,-1,False,2019_Jun_17_1717,Yes-No Task,3,KLRU16,
Yes-No Task,62,0,62,0,6.4,-1,Hit,0.667552399973,True,-1,stimulus_KLRU16_Yes-No Task_2019_Jun_17_1717_588,-1,False,2019_Jun_17_1717,Yes-No Task,3,KLRU16,
Yes-No Task,63,0,63,0,6.4,-1,Hit,0.667483599973,True,-1,stimulus_KLRU16_Yes-No Task_2019_Jun_17_1717_589,-1,False,2019_Jun_17_1717,Yes-No Task,3,KLRU16,
Yes-No Task,64,0,64,0,6.4,-1,Correct Rejection,0.700630499981,False,-1,stimulus_KLRU16_Yes-No Task_2019_Jun_17_1717_590,-1,False,2019_Jun_17_1717,Yes-No Task,3,KLRU16,
Yes-No Task,65,0,65,0,6.4,-1,Correct Rejection,0.635140400031,False,-1,stimulus_KLRU16_Yes-No Task_2019_Jun_17_1717_591,-1,False,2019_Jun_17_1717,Yes-No Task,3,KLRU16,
Yes-No Task,66,0,66,0,6.4,-1,Hit,0.601319000009,True,-1,stimulus_KLRU16_Yes-No Task_2019_Jun_17_1717_592,-1,False,2019_Jun_17_1717,Yes-No Task,3,KLRU16,
Yes-No Task,67,0,67,0,6.4,-1,False Alarm,0.601596699969,False,-1,stimulus_KLRU16_Yes-No Task_2019_Jun_17_1717_593,-1,False,2019_Jun_17_1717,Yes-No Task,3,KLRU16,
Yes-No Task,68,0,68,0,6.4,-1,Correct Rejection,0.500178300019,False,-1,stimulus_KLRU16_Yes-No Task_2019_Jun_17_1717_594,-1,False,2019_Jun_17_1717,Yes-No Task,3,KLRU16,
Yes-No Task,69,0,69,0,6.4,-1,Correct Rejection,0.63362410001,False,-1,stimulus_KLRU16_Yes-No Task_2019_Jun_17_1717_595,-1,False,2019_Jun_17_1717,Yes-No Task,3,KLRU16,
Yes-No Task,70,0,70,0,6.4,-1,Correct Rejection,0.601367000025,False,-1,stimulus_KLRU16_Yes-No Task_2019_Jun_17_1717_596,-1,False,2019_Jun_17_1717,Yes-No Task,3,KLRU16,
Yes-No Task,71,0,71,0,6.4,-1,Correct Rejection,0.50045370002,False,-1,stimulus_KLRU16_Yes-No Task_2019_Jun_17_1717_597,-1,False,2019_Jun_17_1717,Yes-No Task,3,KLRU16,
Yes-No Task,72,0,72,0,6.4,-1,Correct Rejection,0.666837600002,False,-1,stimulus_KLRU16_Yes-No Task_2019_Jun_17_1717_598,-1,False,2019_Jun_17_1717,Yes-No Task,3,KLRU16,
Yes-No Task,73,0,73,0,6.4,-1,Miss,0.533383600006,True,-1,stimulus_KLRU16_Yes-No Task_2019_Jun_17_1717_599,-1,False,2019_Jun_17_1717,Yes-No Task,3,KLRU16,
Yes-No Task,74,0,74,0,6.4,-1,Correct Rejection,0.766600500036,False,-1,stimulus_KLRU16_Yes-No Task_2019_Jun_17_1717_600,-1,False,2019_Jun_17_1717,Yes-No Task,3,KLRU16,
