Task,trials.thisRepN,trials.thisTrialN,trials.thisN,trials.thisIndex,time_response_second,response_2IFCnew,response_key2Interval_2IFCnew,signal_intensity,constant Value,response,time_response,signal_on_stimuluspos1,signal_on_stimuluspos2,stimulus_name_pos1,stimulus_name_pos2,random_intensity,date,expName,session,participant,
2IFCnew,0,0,0,0,0.666869499953,2,Yes,6.4,-1,Correct Rejection,0.566324099898,False,True,stimulusKLRU16_2IFCnew_2019_Jun_13_1506_1,stimulusKLRU16_2IFCnew_2019_Jun_13_1506_2,True,2019_Jun_13_1506,2IFCnew,2,KLRU16,
2IFCnew,1,0,1,0,0.333264800021,1,No,10.4,-1,Hit,0.566596499877,True,False,stimulusKLRU16_2IFCnew_2019_Jun_13_1506_3,stimulusKLRU16_2IFCnew_2019_Jun_13_1506_4,True,2019_Jun_13_1506,2IFCnew,2,KLRU16,
2IFCnew,2,0,2,0,0.399218400009,1,No,3.5,-1,Hit,0.700830499874,True,False,stimulusKLRU16_2IFCnew_2019_Jun_13_1506_5,stimulusKLRU16_2IFCnew_2019_Jun_13_1506_6,True,2019_Jun_13_1506,2IFCnew,2,KLRU16,
2IFCnew,3,0,3,0,0.567048799945,1,No,6.4,-1,Hit,0.700814899988,True,False,stimulusKLRU16_2IFCnew_2019_Jun_13_1506_7,stimulusKLRU16_2IFCnew_2019_Jun_13_1506_8,True,2019_Jun_13_1506,2IFCnew,2,KLRU16,
2IFCnew,4,0,4,0,0.400631900178,4,Yes,3.5,-1,Miss,0.734027100028,True,False,stimulusKLRU16_2IFCnew_2019_Jun_13_1506_9,stimulusKLRU16_2IFCnew_2019_Jun_13_1506_10,True,2019_Jun_13_1506,2IFCnew,2,KLRU16,
2IFCnew,5,0,5,0,0.400693100179,1,No,9.3,-1,Hit,0.567564300029,True,False,stimulusKLRU16_2IFCnew_2019_Jun_13_1506_11,stimulusKLRU16_2IFCnew_2019_Jun_13_1506_12,True,2019_Jun_13_1506,2IFCnew,2,KLRU16,
2IFCnew,6,0,6,0,0.500537900021,2,Yes,9.3,-1,Correct Rejection,0.634295499884,False,True,stimulusKLRU16_2IFCnew_2019_Jun_13_1506_13,stimulusKLRU16_2IFCnew_2019_Jun_13_1506_14,True,2019_Jun_13_1506,2IFCnew,2,KLRU16,
2IFCnew,7,0,7,0,0.433789199917,8,No,9.3,-1,Correct Rejection,0.535059600137,False,True,stimulusKLRU16_2IFCnew_2019_Jun_13_1506_15,stimulusKLRU16_2IFCnew_2019_Jun_13_1506_16,True,2019_Jun_13_1506,2IFCnew,2,KLRU16,
2IFCnew,8,0,8,0,0.435353400186,2,Yes,8.4,-1,Correct Rejection,0.568394300062,False,True,stimulusKLRU16_2IFCnew_2019_Jun_13_1506_17,stimulusKLRU16_2IFCnew_2019_Jun_13_1506_18,True,2019_Jun_13_1506,2IFCnew,2,KLRU16,
2IFCnew,9,0,9,0,0.36720330012,1,No,5.1,-1,Hit,0.59892629995,True,False,stimulusKLRU16_2IFCnew_2019_Jun_13_1506_19,stimulusKLRU16_2IFCnew_2019_Jun_13_1506_20,True,2019_Jun_13_1506,2IFCnew,2,KLRU16,
2IFCnew,10,0,10,0,0.567334800027,1,No,8.4,-1,Hit,0.600851100171,True,False,stimulusKLRU16_2IFCnew_2019_Jun_13_1506_21,stimulusKLRU16_2IFCnew_2019_Jun_13_1506_22,True,2019_Jun_13_1506,2IFCnew,2,KLRU16,
2IFCnew,11,0,11,0,0.401307299966,2,Yes,5.1,-1,Correct Rejection,0.567370899953,False,True,stimulusKLRU16_2IFCnew_2019_Jun_13_1506_23,stimulusKLRU16_2IFCnew_2019_Jun_13_1506_24,True,2019_Jun_13_1506,2IFCnew,2,KLRU16,
2IFCnew,12,0,12,0,0.467066199984,1,No,6.4,-1,Hit,0.634218999883,True,False,stimulusKLRU16_2IFCnew_2019_Jun_13_1506_25,stimulusKLRU16_2IFCnew_2019_Jun_13_1506_26,True,2019_Jun_13_1506,2IFCnew,2,KLRU16,
2IFCnew,13,0,13,0,0.334208799992,1,No,8.4,-1,Hit,0.566440400202,True,False,stimulusKLRU16_2IFCnew_2019_Jun_13_1506_27,stimulusKLRU16_2IFCnew_2019_Jun_13_1506_28,True,2019_Jun_13_1506,2IFCnew,2,KLRU16,
2IFCnew,14,0,14,0,0.334409700008,3,No,8.4,-1,False Alarm,0.53329390008,False,True,stimulusKLRU16_2IFCnew_2019_Jun_13_1506_29,stimulusKLRU16_2IFCnew_2019_Jun_13_1506_30,True,2019_Jun_13_1506,2IFCnew,2,KLRU16,
2IFCnew,15,0,15,0,0.633393900003,2,Yes,8.4,-1,Correct Rejection,0.901089099934,False,True,stimulusKLRU16_2IFCnew_2019_Jun_13_1506_31,stimulusKLRU16_2IFCnew_2019_Jun_13_1506_32,True,2019_Jun_13_1506,2IFCnew,2,KLRU16,
2IFCnew,16,0,16,0,0.433030599961,2,Yes,5.1,-1,Correct Rejection,0.667858100031,False,True,stimulusKLRU16_2IFCnew_2019_Jun_13_1506_33,stimulusKLRU16_2IFCnew_2019_Jun_13_1506_34,True,2019_Jun_13_1506,2IFCnew,2,KLRU16,
2IFCnew,17,0,17,0,0.433856200194,1,No,5.1,-1,Hit,0.534025799949,True,False,stimulusKLRU16_2IFCnew_2019_Jun_13_1506_35,stimulusKLRU16_2IFCnew_2019_Jun_13_1506_36,True,2019_Jun_13_1506,2IFCnew,2,KLRU16,
2IFCnew,18,0,18,0,0.366599799832,3,No,7.4,-1,False Alarm,0.601878400194,False,True,stimulusKLRU16_2IFCnew_2019_Jun_13_1506_37,stimulusKLRU16_2IFCnew_2019_Jun_13_1506_38,True,2019_Jun_13_1506,2IFCnew,2,KLRU16,
2IFCnew,19,0,19,0,0.700343000004,5,Yes,8.4,-1,False Alarm,0.76684330008,False,True,stimulusKLRU16_2IFCnew_2019_Jun_13_1506_39,stimulusKLRU16_2IFCnew_2019_Jun_13_1506_40,True,2019_Jun_13_1506,2IFCnew,2,KLRU16,
2IFCnew,20,0,20,0,0.400569600053,4,Yes,5.1,-1,Miss,0.500665999949,True,False,stimulusKLRU16_2IFCnew_2019_Jun_13_1506_41,stimulusKLRU16_2IFCnew_2019_Jun_13_1506_42,True,2019_Jun_13_1506,2IFCnew,2,KLRU16,
2IFCnew,21,0,21,0,0.466494700173,2,Yes,6.4,-1,Correct Rejection,0.668365199817,False,True,stimulusKLRU16_2IFCnew_2019_Jun_13_1506_43,stimulusKLRU16_2IFCnew_2019_Jun_13_1506_44,True,2019_Jun_13_1506,2IFCnew,2,KLRU16,
2IFCnew,22,0,22,0,0.26699839998,1,No,7.4,-1,Hit,0.566972899949,True,False,stimulusKLRU16_2IFCnew_2019_Jun_13_1506_45,stimulusKLRU16_2IFCnew_2019_Jun_13_1506_46,True,2019_Jun_13_1506,2IFCnew,2,KLRU16,
2IFCnew,23,0,23,0,0.333270100178,1,No,11.6,-1,Hit,0.536014899844,True,False,stimulusKLRU16_2IFCnew_2019_Jun_13_1506_47,stimulusKLRU16_2IFCnew_2019_Jun_13_1506_48,True,2019_Jun_13_1506,2IFCnew,2,KLRU16,
2IFCnew,24,0,24,0,0.500512499828,1,No,11.6,-1,Hit,0.500554000027,True,False,stimulusKLRU16_2IFCnew_2019_Jun_13_1506_49,stimulusKLRU16_2IFCnew_2019_Jun_13_1506_50,True,2019_Jun_13_1506,2IFCnew,2,KLRU16,
2IFCnew,25,0,25,0,0.467188499868,4,Yes,11.6,-1,Miss,0.500561000081,True,False,stimulusKLRU16_2IFCnew_2019_Jun_13_1506_51,stimulusKLRU16_2IFCnew_2019_Jun_13_1506_52,True,2019_Jun_13_1506,2IFCnew,2,KLRU16,
2IFCnew,26,0,26,0,0.698428299977,5,Yes,8.4,-1,False Alarm,0.602379100164,False,True,stimulusKLRU16_2IFCnew_2019_Jun_13_1506_53,stimulusKLRU16_2IFCnew_2019_Jun_13_1506_54,True,2019_Jun_13_1506,2IFCnew,2,KLRU16,
2IFCnew,27,0,27,0,0.363023800077,1,No,9.3,-1,Hit,0.602740000002,True,False,stimulusKLRU16_2IFCnew_2019_Jun_13_1506_55,stimulusKLRU16_2IFCnew_2019_Jun_13_1506_56,True,2019_Jun_13_1506,2IFCnew,2,KLRU16,
2IFCnew,28,0,28,0,0.533880299889,2,Yes,7.4,-1,Correct Rejection,0.600668699946,False,True,stimulusKLRU16_2IFCnew_2019_Jun_13_1506_57,stimulusKLRU16_2IFCnew_2019_Jun_13_1506_58,True,2019_Jun_13_1506,2IFCnew,2,KLRU16,
2IFCnew,29,0,29,0,0.534104299964,5,Yes,7.4,-1,False Alarm,0.567489699926,False,True,stimulusKLRU16_2IFCnew_2019_Jun_13_1506_59,stimulusKLRU16_2IFCnew_2019_Jun_13_1506_60,True,2019_Jun_13_1506,2IFCnew,2,KLRU16,
2IFCnew,30,0,30,0,0.399847600143,2,Yes,11.6,-1,Correct Rejection,0.665300300112,False,True,stimulusKLRU16_2IFCnew_2019_Jun_13_1506_61,stimulusKLRU16_2IFCnew_2019_Jun_13_1506_62,True,2019_Jun_13_1506,2IFCnew,2,KLRU16,
2IFCnew,31,0,31,0,0.333828000119,1,No,6.4,-1,Hit,0.568396799965,True,False,stimulusKLRU16_2IFCnew_2019_Jun_13_1506_63,stimulusKLRU16_2IFCnew_2019_Jun_13_1506_64,True,2019_Jun_13_1506,2IFCnew,2,KLRU16,
2IFCnew,32,0,32,0,0.600654199952,5,Yes,5.1,-1,False Alarm,0.468049200019,False,True,stimulusKLRU16_2IFCnew_2019_Jun_13_1506_65,stimulusKLRU16_2IFCnew_2019_Jun_13_1506_66,True,2019_Jun_13_1506,2IFCnew,2,KLRU16,
2IFCnew,33,0,33,0,0.46809790004,2,Yes,10.4,-1,Correct Rejection,0.668853200041,False,True,stimulusKLRU16_2IFCnew_2019_Jun_13_1506_67,stimulusKLRU16_2IFCnew_2019_Jun_13_1506_68,True,2019_Jun_13_1506,2IFCnew,2,KLRU16,
2IFCnew,34,0,34,0,0.366450199857,1,No,11.6,-1,Hit,0.534074200084,True,False,stimulusKLRU16_2IFCnew_2019_Jun_13_1506_69,stimulusKLRU16_2IFCnew_2019_Jun_13_1506_70,True,2019_Jun_13_1506,2IFCnew,2,KLRU16,
2IFCnew,35,0,35,0,0.36726920004,2,Yes,8.4,-1,Correct Rejection,0.667181599885,False,True,stimulusKLRU16_2IFCnew_2019_Jun_13_1506_71,stimulusKLRU16_2IFCnew_2019_Jun_13_1506_72,True,2019_Jun_13_1506,2IFCnew,2,KLRU16,
2IFCnew,36,0,36,0,0.635524099926,4,Yes,5.1,-1,Miss,0.667139000027,True,False,stimulusKLRU16_2IFCnew_2019_Jun_13_1506_73,stimulusKLRU16_2IFCnew_2019_Jun_13_1506_74,True,2019_Jun_13_1506,2IFCnew,2,KLRU16,
2IFCnew,37,0,37,0,0.600898300065,2,Yes,5.1,-1,Correct Rejection,0.599739799974,False,True,stimulusKLRU16_2IFCnew_2019_Jun_13_1506_75,stimulusKLRU16_2IFCnew_2019_Jun_13_1506_76,True,2019_Jun_13_1506,2IFCnew,2,KLRU16,
2IFCnew,38,0,38,0,0.533701099921,1,No,8.4,-1,Hit,0.568030300085,True,False,stimulusKLRU16_2IFCnew_2019_Jun_13_1506_77,stimulusKLRU16_2IFCnew_2019_Jun_13_1506_78,True,2019_Jun_13_1506,2IFCnew,2,KLRU16,
2IFCnew,39,0,39,0,0.434222699841,1,No,8.4,-1,Hit,0.567183900159,True,False,stimulusKLRU16_2IFCnew_2019_Jun_13_1506_79,stimulusKLRU16_2IFCnew_2019_Jun_13_1506_80,True,2019_Jun_13_1506,2IFCnew,2,KLRU16,
2IFCnew,40,0,40,0,0.467368399957,2,Yes,8.4,-1,Correct Rejection,0.567580900155,False,True,stimulusKLRU16_2IFCnew_2019_Jun_13_1506_81,stimulusKLRU16_2IFCnew_2019_Jun_13_1506_82,True,2019_Jun_13_1506,2IFCnew,2,KLRU16,
2IFCnew,41,0,41,0,0.433224800043,2,Yes,9.3,-1,Correct Rejection,0.50176909985,False,True,stimulusKLRU16_2IFCnew_2019_Jun_13_1506_83,stimulusKLRU16_2IFCnew_2019_Jun_13_1506_84,True,2019_Jun_13_1506,2IFCnew,2,KLRU16,
2IFCnew,42,0,42,0,0.500737499911,1,No,8.4,-1,Hit,0.634159799898,True,False,stimulusKLRU16_2IFCnew_2019_Jun_13_1506_85,stimulusKLRU16_2IFCnew_2019_Jun_13_1506_86,True,2019_Jun_13_1506,2IFCnew,2,KLRU16,
2IFCnew,43,0,43,0,0.334076300031,1,No,10.4,-1,Hit,0.500491500134,True,False,stimulusKLRU16_2IFCnew_2019_Jun_13_1506_87,stimulusKLRU16_2IFCnew_2019_Jun_13_1506_88,True,2019_Jun_13_1506,2IFCnew,2,KLRU16,
2IFCnew,44,0,44,0,0.500343000051,1,No,10.4,-1,Hit,0.467754599871,True,False,stimulusKLRU16_2IFCnew_2019_Jun_13_1506_89,stimulusKLRU16_2IFCnew_2019_Jun_13_1506_90,True,2019_Jun_13_1506,2IFCnew,2,KLRU16,
2IFCnew,45,0,45,0,0.567383399932,6,No,9.3,-1,Miss,0.534103099955,True,False,stimulusKLRU16_2IFCnew_2019_Jun_13_1506_91,stimulusKLRU16_2IFCnew_2019_Jun_13_1506_92,True,2019_Jun_13_1506,2IFCnew,2,KLRU16,
2IFCnew,46,0,46,0,0.366553500062,2,Yes,3.5,-1,Correct Rejection,0.434983799933,False,True,stimulusKLRU16_2IFCnew_2019_Jun_13_1506_93,stimulusKLRU16_2IFCnew_2019_Jun_13_1506_94,True,2019_Jun_13_1506,2IFCnew,2,KLRU16,
2IFCnew,47,0,47,0,0.333714099834,1,No,11.6,-1,Hit,0.700014400063,True,False,stimulusKLRU16_2IFCnew_2019_Jun_13_1506_95,stimulusKLRU16_2IFCnew_2019_Jun_13_1506_96,True,2019_Jun_13_1506,2IFCnew,2,KLRU16,
2IFCnew,48,0,48,0,0.533667299896,1,No,6.4,-1,Hit,0.598533099983,True,False,stimulusKLRU16_2IFCnew_2019_Jun_13_1506_97,stimulusKLRU16_2IFCnew_2019_Jun_13_1506_98,True,2019_Jun_13_1506,2IFCnew,2,KLRU16,
2IFCnew,49,0,49,0,0.834422300104,5,Yes,10.4,-1,False Alarm,0.534508999903,False,True,stimulusKLRU16_2IFCnew_2019_Jun_13_1506_99,stimulusKLRU16_2IFCnew_2019_Jun_13_1506_100,True,2019_Jun_13_1506,2IFCnew,2,KLRU16,
2IFCnew,50,0,50,0,0.434051000047,2,Yes,9.3,-1,Correct Rejection,0.565444599837,False,True,stimulusKLRU16_2IFCnew_2019_Jun_13_1506_101,stimulusKLRU16_2IFCnew_2019_Jun_13_1506_102,True,2019_Jun_13_1506,2IFCnew,2,KLRU16,
2IFCnew,51,0,51,0,0.634018399986,1,No,7.4,-1,Hit,0.567177400226,True,False,stimulusKLRU16_2IFCnew_2019_Jun_13_1506_103,stimulusKLRU16_2IFCnew_2019_Jun_13_1506_104,True,2019_Jun_13_1506,2IFCnew,2,KLRU16,
2IFCnew,52,0,52,0,0.633145600092,2,Yes,5.1,-1,Correct Rejection,0.634855800075,False,True,stimulusKLRU16_2IFCnew_2019_Jun_13_1506_105,stimulusKLRU16_2IFCnew_2019_Jun_13_1506_106,True,2019_Jun_13_1506,2IFCnew,2,KLRU16,
2IFCnew,53,0,53,0,0.333743300056,1,No,6.4,-1,Hit,0.600818799809,True,False,stimulusKLRU16_2IFCnew_2019_Jun_13_1506_107,stimulusKLRU16_2IFCnew_2019_Jun_13_1506_108,True,2019_Jun_13_1506,2IFCnew,2,KLRU16,
2IFCnew,54,0,54,0,0.667457300005,6,No,3.5,-1,Miss,0.634177600034,True,False,stimulusKLRU16_2IFCnew_2019_Jun_13_1506_109,stimulusKLRU16_2IFCnew_2019_Jun_13_1506_110,True,2019_Jun_13_1506,2IFCnew,2,KLRU16,
2IFCnew,55,0,55,0,0.367122900207,1,No,7.4,-1,Hit,0.767776000081,True,False,stimulusKLRU16_2IFCnew_2019_Jun_13_1506_111,stimulusKLRU16_2IFCnew_2019_Jun_13_1506_112,True,2019_Jun_13_1506,2IFCnew,2,KLRU16,
2IFCnew,56,0,56,0,0.467139600078,2,Yes,8.4,-1,Correct Rejection,0.567704500165,False,True,stimulusKLRU16_2IFCnew_2019_Jun_13_1506_113,stimulusKLRU16_2IFCnew_2019_Jun_13_1506_114,True,2019_Jun_13_1506,2IFCnew,2,KLRU16,
2IFCnew,57,0,57,0,0.53341090004,1,No,11.6,-1,Hit,0.566762800096,True,False,stimulusKLRU16_2IFCnew_2019_Jun_13_1506_115,stimulusKLRU16_2IFCnew_2019_Jun_13_1506_116,True,2019_Jun_13_1506,2IFCnew,2,KLRU16,
2IFCnew,58,0,58,0,0.367128999904,2,Yes,10.4,-1,Correct Rejection,0.599246399943,False,True,stimulusKLRU16_2IFCnew_2019_Jun_13_1506_117,stimulusKLRU16_2IFCnew_2019_Jun_13_1506_118,True,2019_Jun_13_1506,2IFCnew,2,KLRU16,
2IFCnew,59,0,59,0,0.467511700001,2,Yes,7.4,-1,Correct Rejection,0.600185000105,False,True,stimulusKLRU16_2IFCnew_2019_Jun_13_1506_119,stimulusKLRU16_2IFCnew_2019_Jun_13_1506_120,True,2019_Jun_13_1506,2IFCnew,2,KLRU16,
2IFCnew,60,0,60,0,0.566345399944,2,Yes,7.4,-1,Correct Rejection,0.532200400019,False,True,stimulusKLRU16_2IFCnew_2019_Jun_13_1506_121,stimulusKLRU16_2IFCnew_2019_Jun_13_1506_122,True,2019_Jun_13_1506,2IFCnew,2,KLRU16,
2IFCnew,61,0,61,0,0.468241899973,1,No,10.4,-1,Hit,0.531803299906,True,False,stimulusKLRU16_2IFCnew_2019_Jun_13_1506_123,stimulusKLRU16_2IFCnew_2019_Jun_13_1506_124,True,2019_Jun_13_1506,2IFCnew,2,KLRU16,
2IFCnew,62,0,62,0,0.434004199924,1,No,11.6,-1,Hit,0.601223400095,True,False,stimulusKLRU16_2IFCnew_2019_Jun_13_1506_125,stimulusKLRU16_2IFCnew_2019_Jun_13_1506_126,True,2019_Jun_13_1506,2IFCnew,2,KLRU16,
2IFCnew,63,0,63,0,0.433883199934,2,Yes,11.6,-1,Correct Rejection,0.56703289994,False,True,stimulusKLRU16_2IFCnew_2019_Jun_13_1506_127,stimulusKLRU16_2IFCnew_2019_Jun_13_1506_128,True,2019_Jun_13_1506,2IFCnew,2,KLRU16,
2IFCnew,64,0,64,0,0.533898200141,2,Yes,8.4,-1,Correct Rejection,0.567640599795,False,True,stimulusKLRU16_2IFCnew_2019_Jun_13_1506_129,stimulusKLRU16_2IFCnew_2019_Jun_13_1506_130,True,2019_Jun_13_1506,2IFCnew,2,KLRU16,
2IFCnew,65,0,65,0,0.601064899936,2,Yes,6.4,-1,Correct Rejection,0.634307200089,False,True,stimulusKLRU16_2IFCnew_2019_Jun_13_1506_131,stimulusKLRU16_2IFCnew_2019_Jun_13_1506_132,True,2019_Jun_13_1506,2IFCnew,2,KLRU16,
2IFCnew,66,0,66,0,0.598999199923,2,Yes,9.3,-1,Correct Rejection,0.532647800166,False,True,stimulusKLRU16_2IFCnew_2019_Jun_13_1506_133,stimulusKLRU16_2IFCnew_2019_Jun_13_1506_134,True,2019_Jun_13_1506,2IFCnew,2,KLRU16,
2IFCnew,67,0,67,0,0.567354599945,2,Yes,6.4,-1,Correct Rejection,0.600923599908,False,True,stimulusKLRU16_2IFCnew_2019_Jun_13_1506_135,stimulusKLRU16_2IFCnew_2019_Jun_13_1506_136,True,2019_Jun_13_1506,2IFCnew,2,KLRU16,
2IFCnew,68,0,68,0,0.333838799968,1,No,11.6,-1,Hit,0.567634100094,True,False,stimulusKLRU16_2IFCnew_2019_Jun_13_1506_137,stimulusKLRU16_2IFCnew_2019_Jun_13_1506_138,True,2019_Jun_13_1506,2IFCnew,2,KLRU16,
2IFCnew,69,0,69,0,0.568949799985,1,No,6.4,-1,Hit,0.602024399908,True,False,stimulusKLRU16_2IFCnew_2019_Jun_13_1506_139,stimulusKLRU16_2IFCnew_2019_Jun_13_1506_140,True,2019_Jun_13_1506,2IFCnew,2,KLRU16,
2IFCnew,70,0,70,0,0.533993000165,2,Yes,5.1,-1,Correct Rejection,0.599695400102,False,True,stimulusKLRU16_2IFCnew_2019_Jun_13_1506_141,stimulusKLRU16_2IFCnew_2019_Jun_13_1506_142,True,2019_Jun_13_1506,2IFCnew,2,KLRU16,
2IFCnew,71,0,71,0,0.467277200194,2,Yes,11.6,-1,Correct Rejection,0.500379099976,False,True,stimulusKLRU16_2IFCnew_2019_Jun_13_1506_143,stimulusKLRU16_2IFCnew_2019_Jun_13_1506_144,True,2019_Jun_13_1506,2IFCnew,2,KLRU16,
2IFCnew,72,0,72,0,0.435298600001,2,Yes,10.4,-1,Correct Rejection,0.500283200061,False,True,stimulusKLRU16_2IFCnew_2019_Jun_13_1506_145,stimulusKLRU16_2IFCnew_2019_Jun_13_1506_146,True,2019_Jun_13_1506,2IFCnew,2,KLRU16,
2IFCnew,73,0,73,0,0.467497899896,1,No,7.4,-1,Hit,0.602476999862,True,False,stimulusKLRU16_2IFCnew_2019_Jun_13_1506_147,stimulusKLRU16_2IFCnew_2019_Jun_13_1506_148,True,2019_Jun_13_1506,2IFCnew,2,KLRU16,
2IFCnew,74,0,74,0,0.333551199874,1,No,9.3,-1,Hit,0.467036100104,True,False,stimulusKLRU16_2IFCnew_2019_Jun_13_1506_149,stimulusKLRU16_2IFCnew_2019_Jun_13_1506_150,True,2019_Jun_13_1506,2IFCnew,2,KLRU16,
2IFCnew,0,0,0,0,0.600877800025,2,Yes,10.4,-1,Correct Rejection,0.832692299969,False,True,stimulusKLRU16_2IFCnew_2019_Jun_13_1506_151,stimulusKLRU16_2IFCnew_2019_Jun_13_1506_152,True,2019_Jun_13_1506,2IFCnew,2,KLRU16,
2IFCnew,1,0,1,0,0.433714700164,6,No,10.4,-1,Miss,0.501404599985,True,False,stimulusKLRU16_2IFCnew_2019_Jun_13_1506_153,stimulusKLRU16_2IFCnew_2019_Jun_13_1506_154,True,2019_Jun_13_1506,2IFCnew,2,KLRU16,
2IFCnew,2,0,2,0,0.500494699925,8,No,5.1,-1,Correct Rejection,0.501378700137,False,True,stimulusKLRU16_2IFCnew_2019_Jun_13_1506_155,stimulusKLRU16_2IFCnew_2019_Jun_13_1506_156,True,2019_Jun_13_1506,2IFCnew,2,KLRU16,
2IFCnew,3,0,3,0,0.633210700005,6,No,8.4,-1,Miss,0.534070600057,True,False,stimulusKLRU16_2IFCnew_2019_Jun_13_1506_157,stimulusKLRU16_2IFCnew_2019_Jun_13_1506_158,True,2019_Jun_13_1506,2IFCnew,2,KLRU16,
2IFCnew,4,0,4,0,0.501640000148,2,Yes,8.4,-1,Correct Rejection,0.568319200072,False,True,stimulusKLRU16_2IFCnew_2019_Jun_13_1506_159,stimulusKLRU16_2IFCnew_2019_Jun_13_1506_160,True,2019_Jun_13_1506,2IFCnew,2,KLRU16,
2IFCnew,5,0,5,0,0.368113699835,1,No,6.4,-1,Hit,0.601190400077,True,False,stimulusKLRU16_2IFCnew_2019_Jun_13_1506_161,stimulusKLRU16_2IFCnew_2019_Jun_13_1506_162,True,2019_Jun_13_1506,2IFCnew,2,KLRU16,
2IFCnew,6,0,6,0,0.40071940003,2,Yes,5.1,-1,Correct Rejection,0.564808400115,False,True,stimulusKLRU16_2IFCnew_2019_Jun_13_1506_163,stimulusKLRU16_2IFCnew_2019_Jun_13_1506_164,True,2019_Jun_13_1506,2IFCnew,2,KLRU16,
2IFCnew,7,0,7,0,0.467204200104,2,Yes,8.4,-1,Correct Rejection,0.567425200017,False,True,stimulusKLRU16_2IFCnew_2019_Jun_13_1506_165,stimulusKLRU16_2IFCnew_2019_Jun_13_1506_166,True,2019_Jun_13_1506,2IFCnew,2,KLRU16,
2IFCnew,8,0,8,0,0.433661999879,2,Yes,10.4,-1,Correct Rejection,0.667396100005,False,True,stimulusKLRU16_2IFCnew_2019_Jun_13_1506_167,stimulusKLRU16_2IFCnew_2019_Jun_13_1506_168,True,2019_Jun_13_1506,2IFCnew,2,KLRU16,
2IFCnew,9,0,9,0,0.600734499982,2,Yes,10.4,-1,Correct Rejection,0.633913900005,False,True,stimulusKLRU16_2IFCnew_2019_Jun_13_1506_169,stimulusKLRU16_2IFCnew_2019_Jun_13_1506_170,True,2019_Jun_13_1506,2IFCnew,2,KLRU16,
2IFCnew,10,0,10,0,0.733363700099,6,No,5.1,-1,Miss,0.535407599993,True,False,stimulusKLRU16_2IFCnew_2019_Jun_13_1506_171,stimulusKLRU16_2IFCnew_2019_Jun_13_1506_172,True,2019_Jun_13_1506,2IFCnew,2,KLRU16,
2IFCnew,11,0,11,0,0.599672699813,2,Yes,3.5,-1,Correct Rejection,0.53543639998,False,True,stimulusKLRU16_2IFCnew_2019_Jun_13_1506_173,stimulusKLRU16_2IFCnew_2019_Jun_13_1506_174,True,2019_Jun_13_1506,2IFCnew,2,KLRU16,
2IFCnew,12,0,12,0,0.668782899855,2,Yes,9.3,-1,Correct Rejection,0.901523400098,False,True,stimulusKLRU16_2IFCnew_2019_Jun_13_1506_175,stimulusKLRU16_2IFCnew_2019_Jun_13_1506_176,True,2019_Jun_13_1506,2IFCnew,2,KLRU16,
2IFCnew,13,0,13,0,0.634101500036,6,No,3.5,-1,Miss,0.602168200072,True,False,stimulusKLRU16_2IFCnew_2019_Jun_13_1506_177,stimulusKLRU16_2IFCnew_2019_Jun_13_1506_178,True,2019_Jun_13_1506,2IFCnew,2,KLRU16,
2IFCnew,14,0,14,0,0.499926100019,2,Yes,10.4,-1,Correct Rejection,0.4997969002,False,True,stimulusKLRU16_2IFCnew_2019_Jun_13_1506_179,stimulusKLRU16_2IFCnew_2019_Jun_13_1506_180,True,2019_Jun_13_1506,2IFCnew,2,KLRU16,
2IFCnew,15,0,15,0,0.467136600055,4,Yes,3.5,-1,Miss,0.468340700027,True,False,stimulusKLRU16_2IFCnew_2019_Jun_13_1506_181,stimulusKLRU16_2IFCnew_2019_Jun_13_1506_182,True,2019_Jun_13_1506,2IFCnew,2,KLRU16,
2IFCnew,16,0,16,0,0.800740600098,6,No,5.1,-1,Miss,0.733820299851,True,False,stimulusKLRU16_2IFCnew_2019_Jun_13_1506_183,stimulusKLRU16_2IFCnew_2019_Jun_13_1506_184,True,2019_Jun_13_1506,2IFCnew,2,KLRU16,
2IFCnew,17,0,17,0,0.600479400018,2,Yes,8.4,-1,Correct Rejection,0.566969100153,False,True,stimulusKLRU16_2IFCnew_2019_Jun_13_1506_185,stimulusKLRU16_2IFCnew_2019_Jun_13_1506_186,True,2019_Jun_13_1506,2IFCnew,2,KLRU16,
2IFCnew,18,0,18,0,0.565877599875,2,Yes,3.5,-1,Correct Rejection,0.636947199935,False,True,stimulusKLRU16_2IFCnew_2019_Jun_13_1506_187,stimulusKLRU16_2IFCnew_2019_Jun_13_1506_188,True,2019_Jun_13_1506,2IFCnew,2,KLRU16,
2IFCnew,19,0,19,0,0.433796599973,1,No,7.4,-1,Hit,0.800736500183,True,False,stimulusKLRU16_2IFCnew_2019_Jun_13_1506_189,stimulusKLRU16_2IFCnew_2019_Jun_13_1506_190,True,2019_Jun_13_1506,2IFCnew,2,KLRU16,
2IFCnew,20,0,20,0,0.434348799987,1,No,5.1,-1,Hit,0.80178999994,True,False,stimulusKLRU16_2IFCnew_2019_Jun_13_1506_191,stimulusKLRU16_2IFCnew_2019_Jun_13_1506_192,True,2019_Jun_13_1506,2IFCnew,2,KLRU16,
2IFCnew,21,0,21,0,0.567767899949,3,No,5.1,-1,False Alarm,0.667194099864,False,True,stimulusKLRU16_2IFCnew_2019_Jun_13_1506_193,stimulusKLRU16_2IFCnew_2019_Jun_13_1506_194,True,2019_Jun_13_1506,2IFCnew,2,KLRU16,
2IFCnew,22,0,22,0,0.400260499911,2,Yes,11.6,-1,Correct Rejection,0.500235300045,False,True,stimulusKLRU16_2IFCnew_2019_Jun_13_1506_195,stimulusKLRU16_2IFCnew_2019_Jun_13_1506_196,True,2019_Jun_13_1506,2IFCnew,2,KLRU16,
2IFCnew,23,0,23,0,0.567380800145,2,Yes,6.4,-1,Correct Rejection,0.501283999998,False,True,stimulusKLRU16_2IFCnew_2019_Jun_13_1506_197,stimulusKLRU16_2IFCnew_2019_Jun_13_1506_198,True,2019_Jun_13_1506,2IFCnew,2,KLRU16,
2IFCnew,24,0,24,0,0.432462399825,2,Yes,11.6,-1,Correct Rejection,0.467227499932,False,True,stimulusKLRU16_2IFCnew_2019_Jun_13_1506_199,stimulusKLRU16_2IFCnew_2019_Jun_13_1506_200,True,2019_Jun_13_1506,2IFCnew,2,KLRU16,
2IFCnew,25,0,25,0,0.463593699969,2,Yes,3.5,-1,Correct Rejection,0.466818199959,False,True,stimulusKLRU16_2IFCnew_2019_Jun_13_1506_201,stimulusKLRU16_2IFCnew_2019_Jun_13_1506_202,True,2019_Jun_13_1506,2IFCnew,2,KLRU16,
2IFCnew,26,0,26,0,0.467523499858,2,Yes,6.4,-1,Correct Rejection,0.466526099946,False,True,stimulusKLRU16_2IFCnew_2019_Jun_13_1506_203,stimulusKLRU16_2IFCnew_2019_Jun_13_1506_204,True,2019_Jun_13_1506,2IFCnew,2,KLRU16,
2IFCnew,27,0,27,0,0.434406700078,6,No,7.4,-1,Miss,0.466362799983,True,False,stimulusKLRU16_2IFCnew_2019_Jun_13_1506_205,stimulusKLRU16_2IFCnew_2019_Jun_13_1506_206,True,2019_Jun_13_1506,2IFCnew,2,KLRU16,
2IFCnew,28,0,28,0,0.332422399893,1,No,11.6,-1,Hit,0.735486200079,True,False,stimulusKLRU16_2IFCnew_2019_Jun_13_1506_207,stimulusKLRU16_2IFCnew_2019_Jun_13_1506_208,True,2019_Jun_13_1506,2IFCnew,2,KLRU16,
2IFCnew,29,0,29,0,0.533054400003,4,Yes,5.1,-1,Miss,0.567928799894,True,False,stimulusKLRU16_2IFCnew_2019_Jun_13_1506_209,stimulusKLRU16_2IFCnew_2019_Jun_13_1506_210,True,2019_Jun_13_1506,2IFCnew,2,KLRU16,
2IFCnew,30,0,30,0,0.466907300055,2,Yes,9.3,-1,Correct Rejection,0.7681607001,False,True,stimulusKLRU16_2IFCnew_2019_Jun_13_1506_211,stimulusKLRU16_2IFCnew_2019_Jun_13_1506_212,True,2019_Jun_13_1506,2IFCnew,2,KLRU16,
2IFCnew,31,0,31,0,0.43332540011,2,Yes,8.4,-1,Correct Rejection,0.600829399889,False,True,stimulusKLRU16_2IFCnew_2019_Jun_13_1506_213,stimulusKLRU16_2IFCnew_2019_Jun_13_1506_214,True,2019_Jun_13_1506,2IFCnew,2,KLRU16,
2IFCnew,32,0,32,0,0.435314800125,2,Yes,10.4,-1,Correct Rejection,0.433331900043,False,True,stimulusKLRU16_2IFCnew_2019_Jun_13_1506_215,stimulusKLRU16_2IFCnew_2019_Jun_13_1506_216,True,2019_Jun_13_1506,2IFCnew,2,KLRU16,
2IFCnew,33,0,33,0,0.433416699991,2,Yes,6.4,-1,Correct Rejection,0.466350399889,False,True,stimulusKLRU16_2IFCnew_2019_Jun_13_1506_217,stimulusKLRU16_2IFCnew_2019_Jun_13_1506_218,True,2019_Jun_13_1506,2IFCnew,2,KLRU16,
2IFCnew,34,0,34,0,0.333750299877,1,No,8.4,-1,Hit,0.600048900116,True,False,stimulusKLRU16_2IFCnew_2019_Jun_13_1506_219,stimulusKLRU16_2IFCnew_2019_Jun_13_1506_220,True,2019_Jun_13_1506,2IFCnew,2,KLRU16,
2IFCnew,35,0,35,0,0.535406600218,2,Yes,5.1,-1,Correct Rejection,0.569271599874,False,True,stimulusKLRU16_2IFCnew_2019_Jun_13_1506_221,stimulusKLRU16_2IFCnew_2019_Jun_13_1506_222,True,2019_Jun_13_1506,2IFCnew,2,KLRU16,
2IFCnew,36,0,36,0,0.400452699978,1,No,7.4,-1,Hit,0.565917500062,True,False,stimulusKLRU16_2IFCnew_2019_Jun_13_1506_223,stimulusKLRU16_2IFCnew_2019_Jun_13_1506_224,True,2019_Jun_13_1506,2IFCnew,2,KLRU16,
2IFCnew,37,0,37,0,0.399448000127,1,No,11.6,-1,Hit,0.56646160013,True,False,stimulusKLRU16_2IFCnew_2019_Jun_13_1506_225,stimulusKLRU16_2IFCnew_2019_Jun_13_1506_226,True,2019_Jun_13_1506,2IFCnew,2,KLRU16,
2IFCnew,38,0,38,0,0.433873000089,1,No,10.4,-1,Hit,0.537003699923,True,False,stimulusKLRU16_2IFCnew_2019_Jun_13_1506_227,stimulusKLRU16_2IFCnew_2019_Jun_13_1506_228,True,2019_Jun_13_1506,2IFCnew,2,KLRU16,
2IFCnew,39,0,39,0,0.466561799869,1,No,10.4,-1,Hit,0.701105700107,True,False,stimulusKLRU16_2IFCnew_2019_Jun_13_1506_229,stimulusKLRU16_2IFCnew_2019_Jun_13_1506_230,True,2019_Jun_13_1506,2IFCnew,2,KLRU16,
2IFCnew,40,0,40,0,0.400699699996,1,No,11.6,-1,Hit,0.601015100023,True,False,stimulusKLRU16_2IFCnew_2019_Jun_13_1506_231,stimulusKLRU16_2IFCnew_2019_Jun_13_1506_232,True,2019_Jun_13_1506,2IFCnew,2,KLRU16,
2IFCnew,41,0,41,0,0.434587599942,1,No,8.4,-1,Hit,0.499570499873,True,False,stimulusKLRU16_2IFCnew_2019_Jun_13_1506_233,stimulusKLRU16_2IFCnew_2019_Jun_13_1506_234,True,2019_Jun_13_1506,2IFCnew,2,KLRU16,
2IFCnew,42,0,42,0,0.400467000203,4,Yes,7.4,-1,Miss,0.56645360007,True,False,stimulusKLRU16_2IFCnew_2019_Jun_13_1506_235,stimulusKLRU16_2IFCnew_2019_Jun_13_1506_236,True,2019_Jun_13_1506,2IFCnew,2,KLRU16,
2IFCnew,43,0,43,0,0.568431599997,3,No,3.5,-1,False Alarm,0.600847200025,False,True,stimulusKLRU16_2IFCnew_2019_Jun_13_1506_237,stimulusKLRU16_2IFCnew_2019_Jun_13_1506_238,True,2019_Jun_13_1506,2IFCnew,2,KLRU16,
2IFCnew,44,0,44,0,0.46725649992,2,Yes,11.6,-1,Correct Rejection,0.70077490015,False,True,stimulusKLRU16_2IFCnew_2019_Jun_13_1506_239,stimulusKLRU16_2IFCnew_2019_Jun_13_1506_240,True,2019_Jun_13_1506,2IFCnew,2,KLRU16,
2IFCnew,45,0,45,0,0.499755199999,1,No,3.5,-1,Hit,0.735175899928,True,False,stimulusKLRU16_2IFCnew_2019_Jun_13_1506_241,stimulusKLRU16_2IFCnew_2019_Jun_13_1506_242,True,2019_Jun_13_1506,2IFCnew,2,KLRU16,
2IFCnew,46,0,46,0,0.334058800014,2,Yes,3.5,-1,Correct Rejection,0.634187499993,False,True,stimulusKLRU16_2IFCnew_2019_Jun_13_1506_243,stimulusKLRU16_2IFCnew_2019_Jun_13_1506_244,True,2019_Jun_13_1506,2IFCnew,2,KLRU16,
2IFCnew,47,0,47,0,0.333780500107,2,Yes,5.1,-1,Correct Rejection,0.568138699979,False,True,stimulusKLRU16_2IFCnew_2019_Jun_13_1506_245,stimulusKLRU16_2IFCnew_2019_Jun_13_1506_246,True,2019_Jun_13_1506,2IFCnew,2,KLRU16,
2IFCnew,48,0,48,0,0.467371099861,2,Yes,11.6,-1,Correct Rejection,0.533904500073,False,True,stimulusKLRU16_2IFCnew_2019_Jun_13_1506_247,stimulusKLRU16_2IFCnew_2019_Jun_13_1506_248,True,2019_Jun_13_1506,2IFCnew,2,KLRU16,
2IFCnew,49,0,49,0,0.600583099993,2,Yes,6.4,-1,Correct Rejection,0.60044780001,False,True,stimulusKLRU16_2IFCnew_2019_Jun_13_1506_249,stimulusKLRU16_2IFCnew_2019_Jun_13_1506_250,True,2019_Jun_13_1506,2IFCnew,2,KLRU16,
2IFCnew,50,0,50,0,0.400546399876,1,No,6.4,-1,Hit,0.734934000066,True,False,stimulusKLRU16_2IFCnew_2019_Jun_13_1506_251,stimulusKLRU16_2IFCnew_2019_Jun_13_1506_252,True,2019_Jun_13_1506,2IFCnew,2,KLRU16,
2IFCnew,51,0,51,0,0.335815500002,1,No,11.6,-1,Hit,0.500404099934,True,False,stimulusKLRU16_2IFCnew_2019_Jun_13_1506_253,stimulusKLRU16_2IFCnew_2019_Jun_13_1506_254,True,2019_Jun_13_1506,2IFCnew,2,KLRU16,
2IFCnew,52,0,52,0,0.367408400169,2,Yes,6.4,-1,Correct Rejection,0.736769800074,False,True,stimulusKLRU16_2IFCnew_2019_Jun_13_1506_255,stimulusKLRU16_2IFCnew_2019_Jun_13_1506_256,True,2019_Jun_13_1506,2IFCnew,2,KLRU16,
2IFCnew,53,0,53,0,0.634263699874,2,Yes,7.4,-1,Correct Rejection,0.534126800019,False,True,stimulusKLRU16_2IFCnew_2019_Jun_13_1506_257,stimulusKLRU16_2IFCnew_2019_Jun_13_1506_258,True,2019_Jun_13_1506,2IFCnew,2,KLRU16,
2IFCnew,54,0,54,0,0.433452000143,2,Yes,7.4,-1,Correct Rejection,0.533217199845,False,True,stimulusKLRU16_2IFCnew_2019_Jun_13_1506_259,stimulusKLRU16_2IFCnew_2019_Jun_13_1506_260,True,2019_Jun_13_1506,2IFCnew,2,KLRU16,
2IFCnew,55,0,55,0,0.433879300021,2,Yes,10.4,-1,Correct Rejection,0.533806700027,False,True,stimulusKLRU16_2IFCnew_2019_Jun_13_1506_261,stimulusKLRU16_2IFCnew_2019_Jun_13_1506_262,True,2019_Jun_13_1506,2IFCnew,2,KLRU16,
2IFCnew,56,0,56,0,0.367078799987,1,No,6.4,-1,Hit,0.534880899824,True,False,stimulusKLRU16_2IFCnew_2019_Jun_13_1506_263,stimulusKLRU16_2IFCnew_2019_Jun_13_1506_264,True,2019_Jun_13_1506,2IFCnew,2,KLRU16,
2IFCnew,57,0,57,0,0.400628600037,1,No,11.6,-1,Hit,0.500492899911,True,False,stimulusKLRU16_2IFCnew_2019_Jun_13_1506_265,stimulusKLRU16_2IFCnew_2019_Jun_13_1506_266,True,2019_Jun_13_1506,2IFCnew,2,KLRU16,
2IFCnew,58,0,58,0,0.400917399907,2,Yes,5.1,-1,Correct Rejection,0.5672679001,False,True,stimulusKLRU16_2IFCnew_2019_Jun_13_1506_267,stimulusKLRU16_2IFCnew_2019_Jun_13_1506_268,True,2019_Jun_13_1506,2IFCnew,2,KLRU16,
2IFCnew,59,0,59,0,0.600432999898,2,Yes,6.4,-1,Correct Rejection,0.500500099966,False,True,stimulusKLRU16_2IFCnew_2019_Jun_13_1506_269,stimulusKLRU16_2IFCnew_2019_Jun_13_1506_270,True,2019_Jun_13_1506,2IFCnew,2,KLRU16,
2IFCnew,60,0,60,0,0.333797800122,1,No,9.3,-1,Hit,0.500999500044,True,False,stimulusKLRU16_2IFCnew_2019_Jun_13_1506_271,stimulusKLRU16_2IFCnew_2019_Jun_13_1506_272,True,2019_Jun_13_1506,2IFCnew,2,KLRU16,
2IFCnew,61,0,61,0,0.400664199842,2,Yes,9.3,-1,Correct Rejection,0.532893300056,False,True,stimulusKLRU16_2IFCnew_2019_Jun_13_1506_273,stimulusKLRU16_2IFCnew_2019_Jun_13_1506_274,True,2019_Jun_13_1506,2IFCnew,2,KLRU16,
2IFCnew,62,0,62,0,0.499693499878,2,Yes,6.4,-1,Correct Rejection,0.53465060005,False,True,stimulusKLRU16_2IFCnew_2019_Jun_13_1506_275,stimulusKLRU16_2IFCnew_2019_Jun_13_1506_276,True,2019_Jun_13_1506,2IFCnew,2,KLRU16,
2IFCnew,63,0,63,0,0.367154899985,2,Yes,8.4,-1,Correct Rejection,0.401747600175,False,True,stimulusKLRU16_2IFCnew_2019_Jun_13_1506_277,stimulusKLRU16_2IFCnew_2019_Jun_13_1506_278,True,2019_Jun_13_1506,2IFCnew,2,KLRU16,
2IFCnew,64,0,64,0,0.367369299987,2,Yes,11.6,-1,Correct Rejection,0.500515999971,False,True,stimulusKLRU16_2IFCnew_2019_Jun_13_1506_279,stimulusKLRU16_2IFCnew_2019_Jun_13_1506_280,True,2019_Jun_13_1506,2IFCnew,2,KLRU16,
2IFCnew,65,0,65,0,0.334424300119,1,No,9.3,-1,Hit,0.603079699911,True,False,stimulusKLRU16_2IFCnew_2019_Jun_13_1506_281,stimulusKLRU16_2IFCnew_2019_Jun_13_1506_282,True,2019_Jun_13_1506,2IFCnew,2,KLRU16,
2IFCnew,66,0,66,0,0.300051100086,2,Yes,6.4,-1,Correct Rejection,0.534238900058,False,True,stimulusKLRU16_2IFCnew_2019_Jun_13_1506_283,stimulusKLRU16_2IFCnew_2019_Jun_13_1506_284,True,2019_Jun_13_1506,2IFCnew,2,KLRU16,
2IFCnew,67,0,67,0,0.267046999885,2,Yes,10.4,-1,Correct Rejection,0.435652100015,False,True,stimulusKLRU16_2IFCnew_2019_Jun_13_1506_285,stimulusKLRU16_2IFCnew_2019_Jun_13_1506_286,True,2019_Jun_13_1506,2IFCnew,2,KLRU16,
2IFCnew,68,0,68,0,0.400625299895,1,No,8.4,-1,Hit,0.634747800184,True,False,stimulusKLRU16_2IFCnew_2019_Jun_13_1506_287,stimulusKLRU16_2IFCnew_2019_Jun_13_1506_288,True,2019_Jun_13_1506,2IFCnew,2,KLRU16,
2IFCnew,69,0,69,0,0.466285600094,6,No,10.4,-1,Miss,0.633567000041,True,False,stimulusKLRU16_2IFCnew_2019_Jun_13_1506_289,stimulusKLRU16_2IFCnew_2019_Jun_13_1506_290,True,2019_Jun_13_1506,2IFCnew,2,KLRU16,
2IFCnew,70,0,70,0,0.400203699945,1,No,8.4,-1,Hit,0.503305100137,True,False,stimulusKLRU16_2IFCnew_2019_Jun_13_1506_291,stimulusKLRU16_2IFCnew_2019_Jun_13_1506_292,True,2019_Jun_13_1506,2IFCnew,2,KLRU16,
2IFCnew,71,0,71,0,0.566632200032,1,No,11.6,-1,Hit,0.600906800013,True,False,stimulusKLRU16_2IFCnew_2019_Jun_13_1506_293,stimulusKLRU16_2IFCnew_2019_Jun_13_1506_294,True,2019_Jun_13_1506,2IFCnew,2,KLRU16,
2IFCnew,72,0,72,0,0.232909400016,1,No,10.4,-1,Hit,0.467182099819,True,False,stimulusKLRU16_2IFCnew_2019_Jun_13_1506_295,stimulusKLRU16_2IFCnew_2019_Jun_13_1506_296,True,2019_Jun_13_1506,2IFCnew,2,KLRU16,
2IFCnew,73,0,73,0,0.13378829998,1,No,6.4,-1,Hit,0.433440000052,True,False,stimulusKLRU16_2IFCnew_2019_Jun_13_1506_297,stimulusKLRU16_2IFCnew_2019_Jun_13_1506_298,True,2019_Jun_13_1506,2IFCnew,2,KLRU16,
2IFCnew,74,0,74,0,0.200562899932,1,No,9.3,-1,Hit,0.433499400038,True,False,stimulusKLRU16_2IFCnew_2019_Jun_13_1506_299,stimulusKLRU16_2IFCnew_2019_Jun_13_1506_300,True,2019_Jun_13_1506,2IFCnew,2,KLRU16,
2IFCnew,0,0,0,0,0.267244499875,6,No,7.4,-1,Miss,0.633205699967,True,False,stimulusKLRU16_2IFCnew_2019_Jun_13_1506_301,stimulusKLRU16_2IFCnew_2019_Jun_13_1506_302,True,2019_Jun_13_1506,2IFCnew,2,KLRU16,
2IFCnew,1,0,1,0,0.367237899918,1,No,11.6,-1,Hit,0.468602600042,True,False,stimulusKLRU16_2IFCnew_2019_Jun_13_1506_303,stimulusKLRU16_2IFCnew_2019_Jun_13_1506_304,True,2019_Jun_13_1506,2IFCnew,2,KLRU16,
2IFCnew,2,0,2,0,0.266861399869,1,No,11.6,-1,Hit,0.466851100093,True,False,stimulusKLRU16_2IFCnew_2019_Jun_13_1506_305,stimulusKLRU16_2IFCnew_2019_Jun_13_1506_306,True,2019_Jun_13_1506,2IFCnew,2,KLRU16,
2IFCnew,3,0,3,0,0.333551499993,2,Yes,3.5,-1,Correct Rejection,0.535289000021,False,True,stimulusKLRU16_2IFCnew_2019_Jun_13_1506_307,stimulusKLRU16_2IFCnew_2019_Jun_13_1506_308,True,2019_Jun_13_1506,2IFCnew,2,KLRU16,
2IFCnew,4,0,4,0,0.400488500018,2,Yes,8.4,-1,Correct Rejection,0.467055799905,False,True,stimulusKLRU16_2IFCnew_2019_Jun_13_1506_309,stimulusKLRU16_2IFCnew_2019_Jun_13_1506_310,True,2019_Jun_13_1506,2IFCnew,2,KLRU16,
2IFCnew,5,0,5,0,0.300205799984,2,Yes,10.4,-1,Correct Rejection,0.501464199973,False,True,stimulusKLRU16_2IFCnew_2019_Jun_13_1506_311,stimulusKLRU16_2IFCnew_2019_Jun_13_1506_312,True,2019_Jun_13_1506,2IFCnew,2,KLRU16,
2IFCnew,6,0,6,0,0.367489899974,1,No,11.6,-1,Hit,0.500496399822,True,False,stimulusKLRU16_2IFCnew_2019_Jun_13_1506_313,stimulusKLRU16_2IFCnew_2019_Jun_13_1506_314,True,2019_Jun_13_1506,2IFCnew,2,KLRU16,
2IFCnew,7,0,7,0,0.300617699977,2,Yes,8.4,-1,Correct Rejection,0.632787800161,False,True,stimulusKLRU16_2IFCnew_2019_Jun_13_1506_315,stimulusKLRU16_2IFCnew_2019_Jun_13_1506_316,True,2019_Jun_13_1506,2IFCnew,2,KLRU16,
2IFCnew,8,0,8,0,0.267170200124,4,Yes,5.1,-1,Miss,0.466598600149,True,False,stimulusKLRU16_2IFCnew_2019_Jun_13_1506_317,stimulusKLRU16_2IFCnew_2019_Jun_13_1506_318,True,2019_Jun_13_1506,2IFCnew,2,KLRU16,
2IFCnew,9,0,9,0,0.200205199886,1,No,9.3,-1,Hit,0.568955500145,True,False,stimulusKLRU16_2IFCnew_2019_Jun_13_1506_319,stimulusKLRU16_2IFCnew_2019_Jun_13_1506_320,True,2019_Jun_13_1506,2IFCnew,2,KLRU16,
2IFCnew,10,0,10,0,0.366192599991,2,Yes,10.4,-1,Correct Rejection,0.46756800008,False,True,stimulusKLRU16_2IFCnew_2019_Jun_13_1506_321,stimulusKLRU16_2IFCnew_2019_Jun_13_1506_322,True,2019_Jun_13_1506,2IFCnew,2,KLRU16,
2IFCnew,11,0,11,0,0.366692499956,2,Yes,8.4,-1,Correct Rejection,0.533823499922,False,True,stimulusKLRU16_2IFCnew_2019_Jun_13_1506_323,stimulusKLRU16_2IFCnew_2019_Jun_13_1506_324,True,2019_Jun_13_1506,2IFCnew,2,KLRU16,
2IFCnew,12,0,12,0,0.400624099886,4,Yes,5.1,-1,Miss,0.73349480005,True,False,stimulusKLRU16_2IFCnew_2019_Jun_13_1506_325,stimulusKLRU16_2IFCnew_2019_Jun_13_1506_326,True,2019_Jun_13_1506,2IFCnew,2,KLRU16,
2IFCnew,13,0,13,0,0.867764299968,8,No,5.1,-1,Correct Rejection,0.902420999948,False,True,stimulusKLRU16_2IFCnew_2019_Jun_13_1506_327,stimulusKLRU16_2IFCnew_2019_Jun_13_1506_328,True,2019_Jun_13_1506,2IFCnew,2,KLRU16,
2IFCnew,14,0,14,0,0.399890900124,2,Yes,5.1,-1,Correct Rejection,0.501839800039,False,True,stimulusKLRU16_2IFCnew_2019_Jun_13_1506_329,stimulusKLRU16_2IFCnew_2019_Jun_13_1506_330,True,2019_Jun_13_1506,2IFCnew,2,KLRU16,
2IFCnew,15,0,15,0,0.433651099913,2,Yes,10.4,-1,Correct Rejection,0.602213100065,False,True,stimulusKLRU16_2IFCnew_2019_Jun_13_1506_331,stimulusKLRU16_2IFCnew_2019_Jun_13_1506_332,True,2019_Jun_13_1506,2IFCnew,2,KLRU16,
2IFCnew,16,0,16,0,0.233360400191,1,No,9.3,-1,Hit,0.534092699876,True,False,stimulusKLRU16_2IFCnew_2019_Jun_13_1506_333,stimulusKLRU16_2IFCnew_2019_Jun_13_1506_334,True,2019_Jun_13_1506,2IFCnew,2,KLRU16,
2IFCnew,17,0,17,0,0.300403600093,2,Yes,8.4,-1,Correct Rejection,0.500370000023,False,True,stimulusKLRU16_2IFCnew_2019_Jun_13_1506_335,stimulusKLRU16_2IFCnew_2019_Jun_13_1506_336,True,2019_Jun_13_1506,2IFCnew,2,KLRU16,
2IFCnew,18,0,18,0,0.233697300078,1,No,9.3,-1,Hit,0.467363999924,True,False,stimulusKLRU16_2IFCnew_2019_Jun_13_1506_337,stimulusKLRU16_2IFCnew_2019_Jun_13_1506_338,True,2019_Jun_13_1506,2IFCnew,2,KLRU16,
2IFCnew,19,0,19,0,0.300371000078,2,Yes,8.4,-1,Correct Rejection,0.500500299968,False,True,stimulusKLRU16_2IFCnew_2019_Jun_13_1506_339,stimulusKLRU16_2IFCnew_2019_Jun_13_1506_340,True,2019_Jun_13_1506,2IFCnew,2,KLRU16,
2IFCnew,20,0,20,0,0.766791600036,2,Yes,11.6,-1,Correct Rejection,0.635599399917,False,True,stimulusKLRU16_2IFCnew_2019_Jun_13_1506_341,stimulusKLRU16_2IFCnew_2019_Jun_13_1506_342,True,2019_Jun_13_1506,2IFCnew,2,KLRU16,
2IFCnew,21,0,21,0,0.400079400046,2,Yes,11.6,-1,Correct Rejection,0.467479800107,False,True,stimulusKLRU16_2IFCnew_2019_Jun_13_1506_343,stimulusKLRU16_2IFCnew_2019_Jun_13_1506_344,True,2019_Jun_13_1506,2IFCnew,2,KLRU16,
2IFCnew,22,0,22,0,0.300523099955,2,Yes,9.3,-1,Correct Rejection,0.467682600021,False,True,stimulusKLRU16_2IFCnew_2019_Jun_13_1506_345,stimulusKLRU16_2IFCnew_2019_Jun_13_1506_346,True,2019_Jun_13_1506,2IFCnew,2,KLRU16,
2IFCnew,23,0,23,0,0.267990500201,4,Yes,3.5,-1,Miss,0.402380200103,True,False,stimulusKLRU16_2IFCnew_2019_Jun_13_1506_347,stimulusKLRU16_2IFCnew_2019_Jun_13_1506_348,True,2019_Jun_13_1506,2IFCnew,2,KLRU16,
2IFCnew,24,0,24,0,0.400144999847,2,Yes,3.5,-1,Correct Rejection,0.733120599994,False,True,stimulusKLRU16_2IFCnew_2019_Jun_13_1506_349,stimulusKLRU16_2IFCnew_2019_Jun_13_1506_350,True,2019_Jun_13_1506,2IFCnew,2,KLRU16,
2IFCnew,25,0,25,0,0.534055100055,2,Yes,5.1,-1,Correct Rejection,0.567941700108,False,True,stimulusKLRU16_2IFCnew_2019_Jun_13_1506_351,stimulusKLRU16_2IFCnew_2019_Jun_13_1506_352,True,2019_Jun_13_1506,2IFCnew,2,KLRU16,
2IFCnew,26,0,26,0,0.500580199994,2,Yes,5.1,-1,Correct Rejection,0.501075099921,False,True,stimulusKLRU16_2IFCnew_2019_Jun_13_1506_353,stimulusKLRU16_2IFCnew_2019_Jun_13_1506_354,True,2019_Jun_13_1506,2IFCnew,2,KLRU16,
2IFCnew,27,0,27,0,0.897741199937,5,Yes,11.6,-1,False Alarm,0.700318899937,False,True,stimulusKLRU16_2IFCnew_2019_Jun_13_1506_355,stimulusKLRU16_2IFCnew_2019_Jun_13_1506_356,True,2019_Jun_13_1506,2IFCnew,2,KLRU16,
2IFCnew,28,0,28,0,0.733812200138,1,No,9.3,-1,Hit,0.735549800098,True,False,stimulusKLRU16_2IFCnew_2019_Jun_13_1506_357,stimulusKLRU16_2IFCnew_2019_Jun_13_1506_358,True,2019_Jun_13_1506,2IFCnew,2,KLRU16,
2IFCnew,29,0,29,0,0.43428279995,2,Yes,7.4,-1,Correct Rejection,0.499990399927,False,True,stimulusKLRU16_2IFCnew_2019_Jun_13_1506_359,stimulusKLRU16_2IFCnew_2019_Jun_13_1506_360,True,2019_Jun_13_1506,2IFCnew,2,KLRU16,
2IFCnew,30,0,30,0,0.535377700115,2,Yes,8.4,-1,Correct Rejection,0.467099800007,False,True,stimulusKLRU16_2IFCnew_2019_Jun_13_1506_361,stimulusKLRU16_2IFCnew_2019_Jun_13_1506_362,True,2019_Jun_13_1506,2IFCnew,2,KLRU16,
2IFCnew,31,0,31,0,0.267785300035,1,No,9.3,-1,Hit,0.567089600023,True,False,stimulusKLRU16_2IFCnew_2019_Jun_13_1506_363,stimulusKLRU16_2IFCnew_2019_Jun_13_1506_364,True,2019_Jun_13_1506,2IFCnew,2,KLRU16,
2IFCnew,32,0,32,0,0.53432740015,1,No,3.5,-1,Hit,0.532996500144,True,False,stimulusKLRU16_2IFCnew_2019_Jun_13_1506_365,stimulusKLRU16_2IFCnew_2019_Jun_13_1506_366,True,2019_Jun_13_1506,2IFCnew,2,KLRU16,
2IFCnew,33,0,33,0,0.399759200169,2,Yes,6.4,-1,Correct Rejection,0.765642700018,False,True,stimulusKLRU16_2IFCnew_2019_Jun_13_1506_367,stimulusKLRU16_2IFCnew_2019_Jun_13_1506_368,True,2019_Jun_13_1506,2IFCnew,2,KLRU16,
2IFCnew,34,0,34,0,0.434031199897,2,Yes,5.1,-1,Correct Rejection,0.433481000131,False,True,stimulusKLRU16_2IFCnew_2019_Jun_13_1506_369,stimulusKLRU16_2IFCnew_2019_Jun_13_1506_370,True,2019_Jun_13_1506,2IFCnew,2,KLRU16,
2IFCnew,35,0,35,0,0.800783500075,5,Yes,8.4,-1,False Alarm,0.668379399925,False,True,stimulusKLRU16_2IFCnew_2019_Jun_13_1506_371,stimulusKLRU16_2IFCnew_2019_Jun_13_1506_372,True,2019_Jun_13_1506,2IFCnew,2,KLRU16,
2IFCnew,36,0,36,0,0.299485400086,2,Yes,8.4,-1,Correct Rejection,0.500343800057,False,True,stimulusKLRU16_2IFCnew_2019_Jun_13_1506_373,stimulusKLRU16_2IFCnew_2019_Jun_13_1506_374,True,2019_Jun_13_1506,2IFCnew,2,KLRU16,
2IFCnew,37,0,37,0,0.433215900091,1,No,10.4,-1,Hit,0.567994999932,True,False,stimulusKLRU16_2IFCnew_2019_Jun_13_1506_375,stimulusKLRU16_2IFCnew_2019_Jun_13_1506_376,True,2019_Jun_13_1506,2IFCnew,2,KLRU16,
2IFCnew,38,0,38,0,0.634437900037,2,Yes,6.4,-1,Correct Rejection,0.601477599936,False,True,stimulusKLRU16_2IFCnew_2019_Jun_13_1506_377,stimulusKLRU16_2IFCnew_2019_Jun_13_1506_378,True,2019_Jun_13_1506,2IFCnew,2,KLRU16,
2IFCnew,39,0,39,0,0.767246500123,8,No,6.4,-1,Correct Rejection,0.666745299939,False,True,stimulusKLRU16_2IFCnew_2019_Jun_13_1506_379,stimulusKLRU16_2IFCnew_2019_Jun_13_1506_380,True,2019_Jun_13_1506,2IFCnew,2,KLRU16,
2IFCnew,40,0,40,0,0.534222200047,2,Yes,3.5,-1,Correct Rejection,0.667529700091,False,True,stimulusKLRU16_2IFCnew_2019_Jun_13_1506_381,stimulusKLRU16_2IFCnew_2019_Jun_13_1506_382,True,2019_Jun_13_1506,2IFCnew,2,KLRU16,
2IFCnew,41,0,41,0,0.500349600101,1,No,5.1,-1,Hit,0.567126099952,True,False,stimulusKLRU16_2IFCnew_2019_Jun_13_1506_383,stimulusKLRU16_2IFCnew_2019_Jun_13_1506_384,True,2019_Jun_13_1506,2IFCnew,2,KLRU16,
2IFCnew,42,0,42,0,0.433709700126,2,Yes,9.3,-1,Correct Rejection,0.567586099962,False,True,stimulusKLRU16_2IFCnew_2019_Jun_13_1506_385,stimulusKLRU16_2IFCnew_2019_Jun_13_1506_386,True,2019_Jun_13_1506,2IFCnew,2,KLRU16,
2IFCnew,43,0,43,0,0.366468399996,1,No,11.6,-1,Hit,0.567234900082,True,False,stimulusKLRU16_2IFCnew_2019_Jun_13_1506_387,stimulusKLRU16_2IFCnew_2019_Jun_13_1506_388,True,2019_Jun_13_1506,2IFCnew,2,KLRU16,
2IFCnew,44,0,44,0,0.333828900009,1,No,10.4,-1,Hit,0.46722030011,True,False,stimulusKLRU16_2IFCnew_2019_Jun_13_1506_389,stimulusKLRU16_2IFCnew_2019_Jun_13_1506_390,True,2019_Jun_13_1506,2IFCnew,2,KLRU16,
2IFCnew,45,0,45,0,0.73451339989,8,No,3.5,-1,Correct Rejection,0.600886499975,False,True,stimulusKLRU16_2IFCnew_2019_Jun_13_1506_391,stimulusKLRU16_2IFCnew_2019_Jun_13_1506_392,True,2019_Jun_13_1506,2IFCnew,2,KLRU16,
2IFCnew,46,0,46,0,0.633367900038,2,Yes,5.1,-1,Correct Rejection,0.801301100058,False,True,stimulusKLRU16_2IFCnew_2019_Jun_13_1506_393,stimulusKLRU16_2IFCnew_2019_Jun_13_1506_394,True,2019_Jun_13_1506,2IFCnew,2,KLRU16,
2IFCnew,47,0,47,0,0.433483999921,2,Yes,7.4,-1,Correct Rejection,0.467757700011,False,True,stimulusKLRU16_2IFCnew_2019_Jun_13_1506_395,stimulusKLRU16_2IFCnew_2019_Jun_13_1506_396,True,2019_Jun_13_1506,2IFCnew,2,KLRU16,
2IFCnew,48,0,48,0,0.667364800116,8,No,3.5,-1,Correct Rejection,0.433550600195,False,True,stimulusKLRU16_2IFCnew_2019_Jun_13_1506_397,stimulusKLRU16_2IFCnew_2019_Jun_13_1506_398,True,2019_Jun_13_1506,2IFCnew,2,KLRU16,
2IFCnew,49,0,49,0,0.63430949999,6,No,3.5,-1,Miss,0.800371899968,True,False,stimulusKLRU16_2IFCnew_2019_Jun_13_1506_399,stimulusKLRU16_2IFCnew_2019_Jun_13_1506_400,True,2019_Jun_13_1506,2IFCnew,2,KLRU16,
2IFCnew,50,0,50,0,0.633760400116,6,No,8.4,-1,Miss,0.835525300121,True,False,stimulusKLRU16_2IFCnew_2019_Jun_13_1506_401,stimulusKLRU16_2IFCnew_2019_Jun_13_1506_402,True,2019_Jun_13_1506,2IFCnew,2,KLRU16,
2IFCnew,51,0,51,0,0.600781799993,2,Yes,11.6,-1,Correct Rejection,0.634195900057,False,True,stimulusKLRU16_2IFCnew_2019_Jun_13_1506_403,stimulusKLRU16_2IFCnew_2019_Jun_13_1506_404,True,2019_Jun_13_1506,2IFCnew,2,KLRU16,
2IFCnew,52,0,52,0,0.333386699902,2,Yes,8.4,-1,Correct Rejection,0.53499659989,False,True,stimulusKLRU16_2IFCnew_2019_Jun_13_1506_405,stimulusKLRU16_2IFCnew_2019_Jun_13_1506_406,True,2019_Jun_13_1506,2IFCnew,2,KLRU16,
2IFCnew,53,0,53,0,0.498920999933,2,Yes,9.3,-1,Correct Rejection,0.500055599958,False,True,stimulusKLRU16_2IFCnew_2019_Jun_13_1506_407,stimulusKLRU16_2IFCnew_2019_Jun_13_1506_408,True,2019_Jun_13_1506,2IFCnew,2,KLRU16,
2IFCnew,54,0,54,0,0.500449100044,2,Yes,10.4,-1,Correct Rejection,0.567047199933,False,True,stimulusKLRU16_2IFCnew_2019_Jun_13_1506_409,stimulusKLRU16_2IFCnew_2019_Jun_13_1506_410,True,2019_Jun_13_1506,2IFCnew,2,KLRU16,
2IFCnew,55,0,55,0,0.366167199798,1,No,6.4,-1,Hit,0.63540889998,True,False,stimulusKLRU16_2IFCnew_2019_Jun_13_1506_411,stimulusKLRU16_2IFCnew_2019_Jun_13_1506_412,True,2019_Jun_13_1506,2IFCnew,2,KLRU16,
2IFCnew,56,0,56,0,0.233112000162,1,No,9.3,-1,Hit,0.567410200136,True,False,stimulusKLRU16_2IFCnew_2019_Jun_13_1506_413,stimulusKLRU16_2IFCnew_2019_Jun_13_1506_414,True,2019_Jun_13_1506,2IFCnew,2,KLRU16,
2IFCnew,57,0,57,0,0.367521400098,2,Yes,9.3,-1,Correct Rejection,0.667938000057,False,True,stimulusKLRU16_2IFCnew_2019_Jun_13_1506_415,stimulusKLRU16_2IFCnew_2019_Jun_13_1506_416,True,2019_Jun_13_1506,2IFCnew,2,KLRU16,
2IFCnew,58,0,58,0,0.367181699956,6,No,7.4,-1,Miss,0.433807099937,True,False,stimulusKLRU16_2IFCnew_2019_Jun_13_1506_417,stimulusKLRU16_2IFCnew_2019_Jun_13_1506_418,True,2019_Jun_13_1506,2IFCnew,2,KLRU16,
2IFCnew,59,0,59,0,0.403578799916,6,No,5.1,-1,Miss,0.467418200104,True,False,stimulusKLRU16_2IFCnew_2019_Jun_13_1506_419,stimulusKLRU16_2IFCnew_2019_Jun_13_1506_420,True,2019_Jun_13_1506,2IFCnew,2,KLRU16,
2IFCnew,60,0,60,0,0.265850299969,1,No,7.4,-1,Hit,0.500327799935,True,False,stimulusKLRU16_2IFCnew_2019_Jun_13_1506_421,stimulusKLRU16_2IFCnew_2019_Jun_13_1506_422,True,2019_Jun_13_1506,2IFCnew,2,KLRU16,
2IFCnew,61,0,61,0,0.200429600198,1,No,9.3,-1,Hit,0.568081300007,True,False,stimulusKLRU16_2IFCnew_2019_Jun_13_1506_423,stimulusKLRU16_2IFCnew_2019_Jun_13_1506_424,True,2019_Jun_13_1506,2IFCnew,2,KLRU16,
2IFCnew,62,0,62,0,0.500605599955,1,No,6.4,-1,Hit,0.467404100113,True,False,stimulusKLRU16_2IFCnew_2019_Jun_13_1506_425,stimulusKLRU16_2IFCnew_2019_Jun_13_1506_426,True,2019_Jun_13_1506,2IFCnew,2,KLRU16,
2IFCnew,63,0,63,0,0.867859199876,8,No,10.4,-1,Correct Rejection,0.567174899857,False,True,stimulusKLRU16_2IFCnew_2019_Jun_13_1506_427,stimulusKLRU16_2IFCnew_2019_Jun_13_1506_428,True,2019_Jun_13_1506,2IFCnew,2,KLRU16,
2IFCnew,64,0,64,0,0.400337000145,6,No,8.4,-1,Miss,0.568488100078,True,False,stimulusKLRU16_2IFCnew_2019_Jun_13_1506_429,stimulusKLRU16_2IFCnew_2019_Jun_13_1506_430,True,2019_Jun_13_1506,2IFCnew,2,KLRU16,
2IFCnew,65,0,65,0,0.36669480009,2,Yes,11.6,-1,Correct Rejection,0.500571700046,False,True,stimulusKLRU16_2IFCnew_2019_Jun_13_1506_431,stimulusKLRU16_2IFCnew_2019_Jun_13_1506_432,True,2019_Jun_13_1506,2IFCnew,2,KLRU16,
2IFCnew,66,0,66,0,0.300425800029,1,No,10.4,-1,Hit,0.597269099904,True,False,stimulusKLRU16_2IFCnew_2019_Jun_13_1506_433,stimulusKLRU16_2IFCnew_2019_Jun_13_1506_434,True,2019_Jun_13_1506,2IFCnew,2,KLRU16,
2IFCnew,67,0,67,0,0.400589300087,1,No,10.4,-1,Hit,0.700720600085,True,False,stimulusKLRU16_2IFCnew_2019_Jun_13_1506_435,stimulusKLRU16_2IFCnew_2019_Jun_13_1506_436,True,2019_Jun_13_1506,2IFCnew,2,KLRU16,
2IFCnew,68,0,68,0,0.467065100092,2,Yes,6.4,-1,Correct Rejection,0.567665100098,False,True,stimulusKLRU16_2IFCnew_2019_Jun_13_1506_437,stimulusKLRU16_2IFCnew_2019_Jun_13_1506_438,True,2019_Jun_13_1506,2IFCnew,2,KLRU16,
2IFCnew,69,0,69,0,0.200547599932,1,No,10.4,-1,Hit,0.56793829985,True,False,stimulusKLRU16_2IFCnew_2019_Jun_13_1506_439,stimulusKLRU16_2IFCnew_2019_Jun_13_1506_440,True,2019_Jun_13_1506,2IFCnew,2,KLRU16,
2IFCnew,70,0,70,0,0.399142500013,2,Yes,5.1,-1,Correct Rejection,0.467874399852,False,True,stimulusKLRU16_2IFCnew_2019_Jun_13_1506_441,stimulusKLRU16_2IFCnew_2019_Jun_13_1506_442,True,2019_Jun_13_1506,2IFCnew,2,KLRU16,
2IFCnew,71,0,71,0,0.36704250006,1,No,8.4,-1,Hit,0.401737000095,True,False,stimulusKLRU16_2IFCnew_2019_Jun_13_1506_443,stimulusKLRU16_2IFCnew_2019_Jun_13_1506_444,True,2019_Jun_13_1506,2IFCnew,2,KLRU16,
2IFCnew,72,0,72,0,0.100301100174,1,No,8.4,-1,Hit,0.467022799887,True,False,stimulusKLRU16_2IFCnew_2019_Jun_13_1506_445,stimulusKLRU16_2IFCnew_2019_Jun_13_1506_446,True,2019_Jun_13_1506,2IFCnew,2,KLRU16,
2IFCnew,73,0,73,0,0.266871799948,4,Yes,3.5,-1,Miss,0.300037799869,True,False,stimulusKLRU16_2IFCnew_2019_Jun_13_1506_447,stimulusKLRU16_2IFCnew_2019_Jun_13_1506_448,True,2019_Jun_13_1506,2IFCnew,2,KLRU16,
2IFCnew,74,0,74,0,0.200435499894,1,No,11.6,-1,Hit,0.500084799947,True,False,stimulusKLRU16_2IFCnew_2019_Jun_13_1506_449,stimulusKLRU16_2IFCnew_2019_Jun_13_1506_450,True,2019_Jun_13_1506,2IFCnew,2,KLRU16,
2IFCnew,0,0,0,0,0.267260099994,4,Yes,7.4,-1,Miss,0.734152399935,True,False,stimulusKLRU16_2IFCnew_2019_Jun_13_1506_451,stimulusKLRU16_2IFCnew_2019_Jun_13_1506_452,True,2019_Jun_13_1506,2IFCnew,2,KLRU16,
2IFCnew,1,0,1,0,0.367616700009,2,Yes,6.4,-1,Correct Rejection,0.599861699855,False,True,stimulusKLRU16_2IFCnew_2019_Jun_13_1506_453,stimulusKLRU16_2IFCnew_2019_Jun_13_1506_454,True,2019_Jun_13_1506,2IFCnew,2,KLRU16,
2IFCnew,2,0,2,0,0.533503600163,8,No,9.3,-1,Correct Rejection,0.500582600012,False,True,stimulusKLRU16_2IFCnew_2019_Jun_13_1506_455,stimulusKLRU16_2IFCnew_2019_Jun_13_1506_456,True,2019_Jun_13_1506,2IFCnew,2,KLRU16,
2IFCnew,3,0,3,0,0.465833400143,2,Yes,11.6,-1,Correct Rejection,0.501063000178,False,True,stimulusKLRU16_2IFCnew_2019_Jun_13_1506_457,stimulusKLRU16_2IFCnew_2019_Jun_13_1506_458,True,2019_Jun_13_1506,2IFCnew,2,KLRU16,
2IFCnew,4,0,4,0,0.767244399991,2,Yes,6.4,-1,Correct Rejection,0.500656800112,False,True,stimulusKLRU16_2IFCnew_2019_Jun_13_1506_459,stimulusKLRU16_2IFCnew_2019_Jun_13_1506_460,True,2019_Jun_13_1506,2IFCnew,2,KLRU16,
2IFCnew,5,0,5,0,0.567928300006,2,Yes,7.4,-1,Correct Rejection,0.568027599948,False,True,stimulusKLRU16_2IFCnew_2019_Jun_13_1506_461,stimulusKLRU16_2IFCnew_2019_Jun_13_1506_462,True,2019_Jun_13_1506,2IFCnew,2,KLRU16,
2IFCnew,6,0,6,0,0.267511300044,1,No,11.6,-1,Hit,0.635706299916,True,False,stimulusKLRU16_2IFCnew_2019_Jun_13_1506_463,stimulusKLRU16_2IFCnew_2019_Jun_13_1506_464,True,2019_Jun_13_1506,2IFCnew,2,KLRU16,
2IFCnew,7,0,7,0,0.333570200019,2,Yes,8.4,-1,Correct Rejection,0.533860899974,False,True,stimulusKLRU16_2IFCnew_2019_Jun_13_1506_465,stimulusKLRU16_2IFCnew_2019_Jun_13_1506_466,True,2019_Jun_13_1506,2IFCnew,2,KLRU16,
2IFCnew,8,0,8,0,0.333840099862,1,No,11.6,-1,Hit,0.502293499885,True,False,stimulusKLRU16_2IFCnew_2019_Jun_13_1506_467,stimulusKLRU16_2IFCnew_2019_Jun_13_1506_468,True,2019_Jun_13_1506,2IFCnew,2,KLRU16,
2IFCnew,9,0,9,0,0.567480000202,2,Yes,7.4,-1,Correct Rejection,0.600678799907,False,True,stimulusKLRU16_2IFCnew_2019_Jun_13_1506_469,stimulusKLRU16_2IFCnew_2019_Jun_13_1506_470,True,2019_Jun_13_1506,2IFCnew,2,KLRU16,
2IFCnew,10,0,10,0,0.333743700059,1,No,7.4,-1,Hit,0.533590200124,True,False,stimulusKLRU16_2IFCnew_2019_Jun_13_1506_471,stimulusKLRU16_2IFCnew_2019_Jun_13_1506_472,True,2019_Jun_13_1506,2IFCnew,2,KLRU16,
2IFCnew,11,0,11,0,0.600940200035,5,Yes,8.4,-1,False Alarm,0.535302600125,False,True,stimulusKLRU16_2IFCnew_2019_Jun_13_1506_473,stimulusKLRU16_2IFCnew_2019_Jun_13_1506_474,True,2019_Jun_13_1506,2IFCnew,2,KLRU16,
2IFCnew,12,0,12,0,0.266874300083,2,Yes,5.1,-1,Correct Rejection,0.468312799931,False,True,stimulusKLRU16_2IFCnew_2019_Jun_13_1506_475,stimulusKLRU16_2IFCnew_2019_Jun_13_1506_476,True,2019_Jun_13_1506,2IFCnew,2,KLRU16,
2IFCnew,13,0,13,0,0.36610149988,1,No,5.1,-1,Hit,0.700048699975,True,False,stimulusKLRU16_2IFCnew_2019_Jun_13_1506_477,stimulusKLRU16_2IFCnew_2019_Jun_13_1506_478,True,2019_Jun_13_1506,2IFCnew,2,KLRU16,
2IFCnew,14,0,14,0,0.332533699926,3,No,3.5,-1,False Alarm,0.534248499898,False,True,stimulusKLRU16_2IFCnew_2019_Jun_13_1506_479,stimulusKLRU16_2IFCnew_2019_Jun_13_1506_480,True,2019_Jun_13_1506,2IFCnew,2,KLRU16,
2IFCnew,15,0,15,0,0.401455600047,2,Yes,5.1,-1,Correct Rejection,0.534231600119,False,True,stimulusKLRU16_2IFCnew_2019_Jun_13_1506_481,stimulusKLRU16_2IFCnew_2019_Jun_13_1506_482,True,2019_Jun_13_1506,2IFCnew,2,KLRU16,
2IFCnew,16,0,16,0,0.433711400023,1,No,6.4,-1,Hit,0.667655400001,True,False,stimulusKLRU16_2IFCnew_2019_Jun_13_1506_483,stimulusKLRU16_2IFCnew_2019_Jun_13_1506_484,True,2019_Jun_13_1506,2IFCnew,2,KLRU16,
2IFCnew,17,0,17,0,0.233708700165,1,No,10.4,-1,Hit,0.56745270011,True,False,stimulusKLRU16_2IFCnew_2019_Jun_13_1506_485,stimulusKLRU16_2IFCnew_2019_Jun_13_1506_486,True,2019_Jun_13_1506,2IFCnew,2,KLRU16,
2IFCnew,18,0,18,0,0.266885800054,2,Yes,7.4,-1,Correct Rejection,0.566308300011,False,True,stimulusKLRU16_2IFCnew_2019_Jun_13_1506_487,stimulusKLRU16_2IFCnew_2019_Jun_13_1506_488,True,2019_Jun_13_1506,2IFCnew,2,KLRU16,
2IFCnew,19,0,19,0,0.831784700043,6,No,7.4,-1,Miss,0.600447000004,True,False,stimulusKLRU16_2IFCnew_2019_Jun_13_1506_489,stimulusKLRU16_2IFCnew_2019_Jun_13_1506_490,True,2019_Jun_13_1506,2IFCnew,2,KLRU16,
2IFCnew,20,0,20,0,0.534443299985,6,No,7.4,-1,Miss,0.433633200126,True,False,stimulusKLRU16_2IFCnew_2019_Jun_13_1506_491,stimulusKLRU16_2IFCnew_2019_Jun_13_1506_492,True,2019_Jun_13_1506,2IFCnew,2,KLRU16,
2IFCnew,21,0,21,0,0.233076900011,1,No,11.6,-1,Hit,0.532848499948,True,False,stimulusKLRU16_2IFCnew_2019_Jun_13_1506_493,stimulusKLRU16_2IFCnew_2019_Jun_13_1506_494,True,2019_Jun_13_1506,2IFCnew,2,KLRU16,
2IFCnew,22,0,22,0,0.367402300006,2,Yes,11.6,-1,Correct Rejection,0.567177799996,False,True,stimulusKLRU16_2IFCnew_2019_Jun_13_1506_495,stimulusKLRU16_2IFCnew_2019_Jun_13_1506_496,True,2019_Jun_13_1506,2IFCnew,2,KLRU16,
2IFCnew,23,0,23,0,0.333919999888,1,No,8.4,-1,Hit,0.601651399862,True,False,stimulusKLRU16_2IFCnew_2019_Jun_13_1506_497,stimulusKLRU16_2IFCnew_2019_Jun_13_1506_498,True,2019_Jun_13_1506,2IFCnew,2,KLRU16,
2IFCnew,24,0,24,0,0.500641700113,6,No,7.4,-1,Miss,0.567409699783,True,False,stimulusKLRU16_2IFCnew_2019_Jun_13_1506_499,stimulusKLRU16_2IFCnew_2019_Jun_13_1506_500,True,2019_Jun_13_1506,2IFCnew,2,KLRU16,
2IFCnew,25,0,25,0,0.468329099938,1,No,10.4,-1,Hit,0.867609200068,True,False,stimulusKLRU16_2IFCnew_2019_Jun_13_1506_501,stimulusKLRU16_2IFCnew_2019_Jun_13_1506_502,True,2019_Jun_13_1506,2IFCnew,2,KLRU16,
2IFCnew,26,0,26,0,0.436972100055,1,No,9.3,-1,Hit,0.633579599904,True,False,stimulusKLRU16_2IFCnew_2019_Jun_13_1506_503,stimulusKLRU16_2IFCnew_2019_Jun_13_1506_504,True,2019_Jun_13_1506,2IFCnew,2,KLRU16,
2IFCnew,27,0,27,0,0.701100300066,6,No,5.1,-1,Miss,0.733539999928,True,False,stimulusKLRU16_2IFCnew_2019_Jun_13_1506_505,stimulusKLRU16_2IFCnew_2019_Jun_13_1506_506,True,2019_Jun_13_1506,2IFCnew,2,KLRU16,
2IFCnew,28,0,28,0,0.297048900044,1,No,11.6,-1,Hit,0.535574800102,True,False,stimulusKLRU16_2IFCnew_2019_Jun_13_1506_507,stimulusKLRU16_2IFCnew_2019_Jun_13_1506_508,True,2019_Jun_13_1506,2IFCnew,2,KLRU16,
2IFCnew,29,0,29,0,0.49991220003,2,Yes,5.1,-1,Correct Rejection,0.500015199883,False,True,stimulusKLRU16_2IFCnew_2019_Jun_13_1506_509,stimulusKLRU16_2IFCnew_2019_Jun_13_1506_510,True,2019_Jun_13_1506,2IFCnew,2,KLRU16,
2IFCnew,30,0,30,0,0.633983000182,2,Yes,5.1,-1,Correct Rejection,0.501641000155,False,True,stimulusKLRU16_2IFCnew_2019_Jun_13_1506_511,stimulusKLRU16_2IFCnew_2019_Jun_13_1506_512,True,2019_Jun_13_1506,2IFCnew,2,KLRU16,
2IFCnew,31,0,31,0,0.334519899916,4,Yes,3.5,-1,Miss,0.534323900007,True,False,stimulusKLRU16_2IFCnew_2019_Jun_13_1506_513,stimulusKLRU16_2IFCnew_2019_Jun_13_1506_514,True,2019_Jun_13_1506,2IFCnew,2,KLRU16,
2IFCnew,32,0,32,0,0.566969699925,2,Yes,6.4,-1,Correct Rejection,0.668305200059,False,True,stimulusKLRU16_2IFCnew_2019_Jun_13_1506_515,stimulusKLRU16_2IFCnew_2019_Jun_13_1506_516,True,2019_Jun_13_1506,2IFCnew,2,KLRU16,
2IFCnew,33,0,33,0,0.366871200036,2,Yes,11.6,-1,Correct Rejection,0.700692400103,False,True,stimulusKLRU16_2IFCnew_2019_Jun_13_1506_517,stimulusKLRU16_2IFCnew_2019_Jun_13_1506_518,True,2019_Jun_13_1506,2IFCnew,2,KLRU16,
2IFCnew,34,0,34,0,0.768528599991,2,Yes,3.5,-1,Correct Rejection,0.534093199996,False,True,stimulusKLRU16_2IFCnew_2019_Jun_13_1506_519,stimulusKLRU16_2IFCnew_2019_Jun_13_1506_520,True,2019_Jun_13_1506,2IFCnew,2,KLRU16,
2IFCnew,35,0,35,0,0.166920599993,1,No,11.6,-1,Hit,0.500367400004,True,False,stimulusKLRU16_2IFCnew_2019_Jun_13_1506_521,stimulusKLRU16_2IFCnew_2019_Jun_13_1506_522,True,2019_Jun_13_1506,2IFCnew,2,KLRU16,
2IFCnew,36,0,36,0,0.433199699968,1,No,3.5,-1,Hit,0.599840500159,True,False,stimulusKLRU16_2IFCnew_2019_Jun_13_1506_523,stimulusKLRU16_2IFCnew_2019_Jun_13_1506_524,True,2019_Jun_13_1506,2IFCnew,2,KLRU16,
2IFCnew,37,0,37,0,0.466768400045,1,No,5.1,-1,Hit,0.466264999937,True,False,stimulusKLRU16_2IFCnew_2019_Jun_13_1506_525,stimulusKLRU16_2IFCnew_2019_Jun_13_1506_526,True,2019_Jun_13_1506,2IFCnew,2,KLRU16,
2IFCnew,38,0,38,0,0.400276900036,3,No,7.4,-1,False Alarm,0.468012799975,False,True,stimulusKLRU16_2IFCnew_2019_Jun_13_1506_527,stimulusKLRU16_2IFCnew_2019_Jun_13_1506_528,True,2019_Jun_13_1506,2IFCnew,2,KLRU16,
2IFCnew,39,0,39,0,0.366455599898,1,No,10.4,-1,Hit,0.599645600189,True,False,stimulusKLRU16_2IFCnew_2019_Jun_13_1506_529,stimulusKLRU16_2IFCnew_2019_Jun_13_1506_530,True,2019_Jun_13_1506,2IFCnew,2,KLRU16,
2IFCnew,40,0,40,0,0.73396750004,5,Yes,3.5,-1,False Alarm,0.667490900028,False,True,stimulusKLRU16_2IFCnew_2019_Jun_13_1506_531,stimulusKLRU16_2IFCnew_2019_Jun_13_1506_532,True,2019_Jun_13_1506,2IFCnew,2,KLRU16,
2IFCnew,41,0,41,0,0.400000199908,1,No,10.4,-1,Hit,0.568227699958,True,False,stimulusKLRU16_2IFCnew_2019_Jun_13_1506_533,stimulusKLRU16_2IFCnew_2019_Jun_13_1506_534,True,2019_Jun_13_1506,2IFCnew,2,KLRU16,
2IFCnew,42,0,42,0,0.56731329998,5,Yes,10.4,-1,False Alarm,0.500541499816,False,True,stimulusKLRU16_2IFCnew_2019_Jun_13_1506_535,stimulusKLRU16_2IFCnew_2019_Jun_13_1506_536,True,2019_Jun_13_1506,2IFCnew,2,KLRU16,
2IFCnew,43,0,43,0,0.433964500204,2,Yes,3.5,-1,Correct Rejection,0.499881800031,False,True,stimulusKLRU16_2IFCnew_2019_Jun_13_1506_537,stimulusKLRU16_2IFCnew_2019_Jun_13_1506_538,True,2019_Jun_13_1506,2IFCnew,2,KLRU16,
2IFCnew,44,0,44,0,0.667290000012,1,No,11.6,-1,Hit,0.499411100056,True,False,stimulusKLRU16_2IFCnew_2019_Jun_13_1506_539,stimulusKLRU16_2IFCnew_2019_Jun_13_1506_540,True,2019_Jun_13_1506,2IFCnew,2,KLRU16,
2IFCnew,45,0,45,0,0.300724900095,1,No,9.3,-1,Hit,0.402635099832,True,False,stimulusKLRU16_2IFCnew_2019_Jun_13_1506_541,stimulusKLRU16_2IFCnew_2019_Jun_13_1506_542,True,2019_Jun_13_1506,2IFCnew,2,KLRU16,
2IFCnew,46,0,46,0,0.2668591002,1,No,10.4,-1,Hit,0.40123660001,True,False,stimulusKLRU16_2IFCnew_2019_Jun_13_1506_543,stimulusKLRU16_2IFCnew_2019_Jun_13_1506_544,True,2019_Jun_13_1506,2IFCnew,2,KLRU16,
2IFCnew,47,0,47,0,0.300307899946,1,No,6.4,-1,Hit,0.467916400172,True,False,stimulusKLRU16_2IFCnew_2019_Jun_13_1506_545,stimulusKLRU16_2IFCnew_2019_Jun_13_1506_546,True,2019_Jun_13_1506,2IFCnew,2,KLRU16,
2IFCnew,48,0,48,0,0.267766200006,1,No,7.4,-1,Hit,0.334077499807,True,False,stimulusKLRU16_2IFCnew_2019_Jun_13_1506_547,stimulusKLRU16_2IFCnew_2019_Jun_13_1506_548,True,2019_Jun_13_1506,2IFCnew,2,KLRU16,
2IFCnew,49,0,49,0,0.300575899892,2,Yes,6.4,-1,Correct Rejection,0.500642400002,False,True,stimulusKLRU16_2IFCnew_2019_Jun_13_1506_549,stimulusKLRU16_2IFCnew_2019_Jun_13_1506_550,True,2019_Jun_13_1506,2IFCnew,2,KLRU16,
2IFCnew,50,0,50,0,0.300293300068,2,Yes,9.3,-1,Correct Rejection,0.400519300019,False,True,stimulusKLRU16_2IFCnew_2019_Jun_13_1506_551,stimulusKLRU16_2IFCnew_2019_Jun_13_1506_552,True,2019_Jun_13_1506,2IFCnew,2,KLRU16,
2IFCnew,51,0,51,0,-1,4,Yes,3.5,-1,Miss,0.467360700015,True,False,stimulusKLRU16_2IFCnew_2019_Jun_13_1506_553,stimulusKLRU16_2IFCnew_2019_Jun_13_1506_554,True,2019_Jun_13_1506,2IFCnew,2,KLRU16,
2IFCnew,52,0,52,0,0.13345120009,1,No,7.4,-1,Hit,0.502413300099,True,False,stimulusKLRU16_2IFCnew_2019_Jun_13_1506_555,stimulusKLRU16_2IFCnew_2019_Jun_13_1506_556,True,2019_Jun_13_1506,2IFCnew,2,KLRU16,
2IFCnew,53,0,53,0,0.232359800022,2,Yes,6.4,-1,Correct Rejection,0.600628199987,False,True,stimulusKLRU16_2IFCnew_2019_Jun_13_1506_557,stimulusKLRU16_2IFCnew_2019_Jun_13_1506_558,True,2019_Jun_13_1506,2IFCnew,2,KLRU16,
2IFCnew,54,0,54,0,0.298717299942,2,Yes,7.4,-1,Correct Rejection,0.534341600025,False,True,stimulusKLRU16_2IFCnew_2019_Jun_13_1506_559,stimulusKLRU16_2IFCnew_2019_Jun_13_1506_560,True,2019_Jun_13_1506,2IFCnew,2,KLRU16,
2IFCnew,55,0,55,0,0.333821399836,1,No,6.4,-1,Hit,0.600589799928,True,False,stimulusKLRU16_2IFCnew_2019_Jun_13_1506_561,stimulusKLRU16_2IFCnew_2019_Jun_13_1506_562,True,2019_Jun_13_1506,2IFCnew,2,KLRU16,
2IFCnew,56,0,56,0,0.168366600061,1,No,9.3,-1,Hit,0.434602399822,True,False,stimulusKLRU16_2IFCnew_2019_Jun_13_1506_563,stimulusKLRU16_2IFCnew_2019_Jun_13_1506_564,True,2019_Jun_13_1506,2IFCnew,2,KLRU16,
2IFCnew,57,0,57,0,0.300579800038,3,No,3.5,-1,False Alarm,0.566241800087,False,True,stimulusKLRU16_2IFCnew_2019_Jun_13_1506_565,stimulusKLRU16_2IFCnew_2019_Jun_13_1506_566,True,2019_Jun_13_1506,2IFCnew,2,KLRU16,
2IFCnew,58,0,58,0,0.165072600124,2,Yes,7.4,-1,Correct Rejection,0.400495199952,False,True,stimulusKLRU16_2IFCnew_2019_Jun_13_1506_567,stimulusKLRU16_2IFCnew_2019_Jun_13_1506_568,True,2019_Jun_13_1506,2IFCnew,2,KLRU16,
2IFCnew,59,0,59,0,0.200347699923,1,No,11.6,-1,Hit,0.600931699853,True,False,stimulusKLRU16_2IFCnew_2019_Jun_13_1506_569,stimulusKLRU16_2IFCnew_2019_Jun_13_1506_570,True,2019_Jun_13_1506,2IFCnew,2,KLRU16,
2IFCnew,60,0,60,0,0.167224699864,1,No,9.3,-1,Hit,0.467999600107,True,False,stimulusKLRU16_2IFCnew_2019_Jun_13_1506_571,stimulusKLRU16_2IFCnew_2019_Jun_13_1506_572,True,2019_Jun_13_1506,2IFCnew,2,KLRU16,
2IFCnew,61,0,61,0,0.0998464000877,1,No,10.4,-1,Hit,0.367232100107,True,False,stimulusKLRU16_2IFCnew_2019_Jun_13_1506_573,stimulusKLRU16_2IFCnew_2019_Jun_13_1506_574,True,2019_Jun_13_1506,2IFCnew,2,KLRU16,
2IFCnew,62,0,62,0,0.233729500091,2,Yes,5.1,-1,Correct Rejection,0.534500199836,False,True,stimulusKLRU16_2IFCnew_2019_Jun_13_1506_575,stimulusKLRU16_2IFCnew_2019_Jun_13_1506_576,True,2019_Jun_13_1506,2IFCnew,2,KLRU16,
2IFCnew,63,0,63,0,0.634034599876,5,Yes,11.6,-1,False Alarm,0.700961399823,False,True,stimulusKLRU16_2IFCnew_2019_Jun_13_1506_577,stimulusKLRU16_2IFCnew_2019_Jun_13_1506_578,True,2019_Jun_13_1506,2IFCnew,2,KLRU16,
2IFCnew,64,0,64,0,0.200254100142,2,Yes,8.4,-1,Correct Rejection,0.43317730003,False,True,stimulusKLRU16_2IFCnew_2019_Jun_13_1506_579,stimulusKLRU16_2IFCnew_2019_Jun_13_1506_580,True,2019_Jun_13_1506,2IFCnew,2,KLRU16,
2IFCnew,65,0,65,0,0.733988299966,3,No,3.5,-1,False Alarm,0.569852899993,False,True,stimulusKLRU16_2IFCnew_2019_Jun_13_1506_581,stimulusKLRU16_2IFCnew_2019_Jun_13_1506_582,True,2019_Jun_13_1506,2IFCnew,2,KLRU16,
2IFCnew,66,0,66,0,0.366549700033,2,Yes,7.4,-1,Correct Rejection,0.633979800157,False,True,stimulusKLRU16_2IFCnew_2019_Jun_13_1506_583,stimulusKLRU16_2IFCnew_2019_Jun_13_1506_584,True,2019_Jun_13_1506,2IFCnew,2,KLRU16,
2IFCnew,67,0,67,0,0.567674499936,6,No,6.4,-1,Miss,0.466950400034,True,False,stimulusKLRU16_2IFCnew_2019_Jun_13_1506_585,stimulusKLRU16_2IFCnew_2019_Jun_13_1506_586,True,2019_Jun_13_1506,2IFCnew,2,KLRU16,
2IFCnew,68,0,68,0,0.299592599971,1,No,9.3,-1,Hit,0.634426699951,True,False,stimulusKLRU16_2IFCnew_2019_Jun_13_1506_587,stimulusKLRU16_2IFCnew_2019_Jun_13_1506_588,True,2019_Jun_13_1506,2IFCnew,2,KLRU16,
2IFCnew,69,0,69,0,0.467404899886,1,No,8.4,-1,Hit,0.600997000001,True,False,stimulusKLRU16_2IFCnew_2019_Jun_13_1506_589,stimulusKLRU16_2IFCnew_2019_Jun_13_1506_590,True,2019_Jun_13_1506,2IFCnew,2,KLRU16,
2IFCnew,70,0,70,0,0.43431859999,2,Yes,11.6,-1,Correct Rejection,0.467022900004,False,True,stimulusKLRU16_2IFCnew_2019_Jun_13_1506_591,stimulusKLRU16_2IFCnew_2019_Jun_13_1506_592,True,2019_Jun_13_1506,2IFCnew,2,KLRU16,
2IFCnew,71,0,71,0,0.467344600009,2,Yes,10.4,-1,Correct Rejection,0.533788800007,False,True,stimulusKLRU16_2IFCnew_2019_Jun_13_1506_593,stimulusKLRU16_2IFCnew_2019_Jun_13_1506_594,True,2019_Jun_13_1506,2IFCnew,2,KLRU16,
2IFCnew,72,0,72,0,0.43371799984,2,Yes,11.6,-1,Correct Rejection,0.734140599845,False,True,stimulusKLRU16_2IFCnew_2019_Jun_13_1506_595,stimulusKLRU16_2IFCnew_2019_Jun_13_1506_596,True,2019_Jun_13_1506,2IFCnew,2,KLRU16,
2IFCnew,73,0,73,0,0.299716199981,3,No,3.5,-1,False Alarm,0.668891699985,False,True,stimulusKLRU16_2IFCnew_2019_Jun_13_1506_597,stimulusKLRU16_2IFCnew_2019_Jun_13_1506_598,True,2019_Jun_13_1506,2IFCnew,2,KLRU16,
2IFCnew,74,0,74,0,0.135784799932,1,No,11.6,-1,Hit,0.50069330004,True,False,stimulusKLRU16_2IFCnew_2019_Jun_13_1506_599,stimulusKLRU16_2IFCnew_2019_Jun_13_1506_600,True,2019_Jun_13_1506,2IFCnew,2,KLRU16,
2IFCnew,0,0,0,0,0.868444000138,2,Yes,5.1,-1,Correct Rejection,0.5011008,False,True,stimulusKLRU16_2IFCnew_2019_Jun_13_1506_601,stimulusKLRU16_2IFCnew_2019_Jun_13_1506_602,True,2019_Jun_13_1506,2IFCnew,2,KLRU16,
2IFCnew,1,0,1,0,0.167438100092,1,No,10.4,-1,Hit,0.567501000129,True,False,stimulusKLRU16_2IFCnew_2019_Jun_13_1506_603,stimulusKLRU16_2IFCnew_2019_Jun_13_1506_604,True,2019_Jun_13_1506,2IFCnew,2,KLRU16,
2IFCnew,2,0,2,0,0.467979900073,2,Yes,8.4,-1,Correct Rejection,0.500250099925,False,True,stimulusKLRU16_2IFCnew_2019_Jun_13_1506_605,stimulusKLRU16_2IFCnew_2019_Jun_13_1506_606,True,2019_Jun_13_1506,2IFCnew,2,KLRU16,
2IFCnew,3,0,3,0,0.466106100008,2,Yes,11.6,-1,Correct Rejection,0.635893499944,False,True,stimulusKLRU16_2IFCnew_2019_Jun_13_1506_607,stimulusKLRU16_2IFCnew_2019_Jun_13_1506_608,True,2019_Jun_13_1506,2IFCnew,2,KLRU16,
2IFCnew,4,0,4,0,0.434509899933,8,No,8.4,-1,Correct Rejection,0.534039800055,False,True,stimulusKLRU16_2IFCnew_2019_Jun_13_1506_609,stimulusKLRU16_2IFCnew_2019_Jun_13_1506_610,True,2019_Jun_13_1506,2IFCnew,2,KLRU16,
2IFCnew,5,0,5,0,0.23241629987,1,No,6.4,-1,Hit,0.633140100166,True,False,stimulusKLRU16_2IFCnew_2019_Jun_13_1506_611,stimulusKLRU16_2IFCnew_2019_Jun_13_1506_612,True,2019_Jun_13_1506,2IFCnew,2,KLRU16,
2IFCnew,6,0,6,0,0.467363500036,2,Yes,11.6,-1,Correct Rejection,0.566871999996,False,True,stimulusKLRU16_2IFCnew_2019_Jun_13_1506_613,stimulusKLRU16_2IFCnew_2019_Jun_13_1506_614,True,2019_Jun_13_1506,2IFCnew,2,KLRU16,
2IFCnew,7,0,7,0,0.7338246,5,Yes,3.5,-1,False Alarm,0.698181200074,False,True,stimulusKLRU16_2IFCnew_2019_Jun_13_1506_615,stimulusKLRU16_2IFCnew_2019_Jun_13_1506_616,True,2019_Jun_13_1506,2IFCnew,2,KLRU16,
2IFCnew,8,0,8,0,0.300258900039,3,No,5.1,-1,False Alarm,0.634113300126,False,True,stimulusKLRU16_2IFCnew_2019_Jun_13_1506_617,stimulusKLRU16_2IFCnew_2019_Jun_13_1506_618,True,2019_Jun_13_1506,2IFCnew,2,KLRU16,
2IFCnew,9,0,9,0,0.39963829983,1,No,11.6,-1,Hit,0.799609699985,True,False,stimulusKLRU16_2IFCnew_2019_Jun_13_1506_619,stimulusKLRU16_2IFCnew_2019_Jun_13_1506_620,True,2019_Jun_13_1506,2IFCnew,2,KLRU16,
2IFCnew,10,0,10,0,0.70061900001,2,Yes,8.4,-1,Correct Rejection,0.533010200132,False,True,stimulusKLRU16_2IFCnew_2019_Jun_13_1506_621,stimulusKLRU16_2IFCnew_2019_Jun_13_1506_622,True,2019_Jun_13_1506,2IFCnew,2,KLRU16,
2IFCnew,11,0,11,0,0.467341999989,2,Yes,9.3,-1,Correct Rejection,0.567266500089,False,True,stimulusKLRU16_2IFCnew_2019_Jun_13_1506_623,stimulusKLRU16_2IFCnew_2019_Jun_13_1506_624,True,2019_Jun_13_1506,2IFCnew,2,KLRU16,
2IFCnew,12,0,12,0,0.434266899945,2,Yes,11.6,-1,Correct Rejection,0.535121300025,False,True,stimulusKLRU16_2IFCnew_2019_Jun_13_1506_625,stimulusKLRU16_2IFCnew_2019_Jun_13_1506_626,True,2019_Jun_13_1506,2IFCnew,2,KLRU16,
2IFCnew,13,0,13,0,0.267103899969,1,No,6.4,-1,Hit,0.600683000172,True,False,stimulusKLRU16_2IFCnew_2019_Jun_13_1506_627,stimulusKLRU16_2IFCnew_2019_Jun_13_1506_628,True,2019_Jun_13_1506,2IFCnew,2,KLRU16,
2IFCnew,14,0,14,0,0.868065499933,7,Yes,7.4,-1,Hit,0.734205400106,True,False,stimulusKLRU16_2IFCnew_2019_Jun_13_1506_629,stimulusKLRU16_2IFCnew_2019_Jun_13_1506_630,True,2019_Jun_13_1506,2IFCnew,2,KLRU16,
2IFCnew,15,0,15,0,0.133711999981,2,Yes,10.4,-1,Correct Rejection,0.53480880009,False,True,stimulusKLRU16_2IFCnew_2019_Jun_13_1506_631,stimulusKLRU16_2IFCnew_2019_Jun_13_1506_632,True,2019_Jun_13_1506,2IFCnew,2,KLRU16,
2IFCnew,16,0,16,0,0.535009499872,5,Yes,11.6,-1,False Alarm,0.600757000037,False,True,stimulusKLRU16_2IFCnew_2019_Jun_13_1506_633,stimulusKLRU16_2IFCnew_2019_Jun_13_1506_634,True,2019_Jun_13_1506,2IFCnew,2,KLRU16,
2IFCnew,17,0,17,0,0.501718000043,4,Yes,6.4,-1,Miss,0.700669499813,True,False,stimulusKLRU16_2IFCnew_2019_Jun_13_1506_635,stimulusKLRU16_2IFCnew_2019_Jun_13_1506_636,True,2019_Jun_13_1506,2IFCnew,2,KLRU16,
2IFCnew,18,0,18,0,0.26534110005,1,No,5.1,-1,Hit,0.669384100009,True,False,stimulusKLRU16_2IFCnew_2019_Jun_13_1506_637,stimulusKLRU16_2IFCnew_2019_Jun_13_1506_638,True,2019_Jun_13_1506,2IFCnew,2,KLRU16,
2IFCnew,19,0,19,0,0.433779699961,1,No,11.6,-1,Hit,0.534126400016,True,False,stimulusKLRU16_2IFCnew_2019_Jun_13_1506_639,stimulusKLRU16_2IFCnew_2019_Jun_13_1506_640,True,2019_Jun_13_1506,2IFCnew,2,KLRU16,
2IFCnew,20,0,20,0,0.200354399858,1,No,6.4,-1,Hit,0.600569699891,True,False,stimulusKLRU16_2IFCnew_2019_Jun_13_1506_641,stimulusKLRU16_2IFCnew_2019_Jun_13_1506_642,True,2019_Jun_13_1506,2IFCnew,2,KLRU16,
2IFCnew,21,0,21,0,0.43479910004,2,Yes,6.4,-1,Correct Rejection,0.500647000037,False,True,stimulusKLRU16_2IFCnew_2019_Jun_13_1506_643,stimulusKLRU16_2IFCnew_2019_Jun_13_1506_644,True,2019_Jun_13_1506,2IFCnew,2,KLRU16,
2IFCnew,22,0,22,0,0.602167600067,2,Yes,6.4,-1,Correct Rejection,0.767506400123,False,True,stimulusKLRU16_2IFCnew_2019_Jun_13_1506_645,stimulusKLRU16_2IFCnew_2019_Jun_13_1506_646,True,2019_Jun_13_1506,2IFCnew,2,KLRU16,
2IFCnew,23,0,23,0,0.200501799816,1,No,9.3,-1,Hit,0.601007799851,True,False,stimulusKLRU16_2IFCnew_2019_Jun_13_1506_647,stimulusKLRU16_2IFCnew_2019_Jun_13_1506_648,True,2019_Jun_13_1506,2IFCnew,2,KLRU16,
2IFCnew,24,0,24,0,0.633996600052,5,Yes,5.1,-1,False Alarm,0.667988799978,False,True,stimulusKLRU16_2IFCnew_2019_Jun_13_1506_649,stimulusKLRU16_2IFCnew_2019_Jun_13_1506_650,True,2019_Jun_13_1506,2IFCnew,2,KLRU16,
2IFCnew,25,0,25,0,0.498314199969,1,No,6.4,-1,Hit,0.600621900056,True,False,stimulusKLRU16_2IFCnew_2019_Jun_13_1506_651,stimulusKLRU16_2IFCnew_2019_Jun_13_1506_652,True,2019_Jun_13_1506,2IFCnew,2,KLRU16,
2IFCnew,26,0,26,0,0.367306499975,1,No,8.4,-1,Hit,0.534192800056,True,False,stimulusKLRU16_2IFCnew_2019_Jun_13_1506_653,stimulusKLRU16_2IFCnew_2019_Jun_13_1506_654,True,2019_Jun_13_1506,2IFCnew,2,KLRU16,
2IFCnew,27,0,27,0,0.332828399958,1,No,11.6,-1,Hit,0.533580000047,True,False,stimulusKLRU16_2IFCnew_2019_Jun_13_1506_655,stimulusKLRU16_2IFCnew_2019_Jun_13_1506_656,True,2019_Jun_13_1506,2IFCnew,2,KLRU16,
2IFCnew,28,0,28,0,0.468981799902,5,Yes,9.3,-1,False Alarm,0.56716779992,False,True,stimulusKLRU16_2IFCnew_2019_Jun_13_1506_657,stimulusKLRU16_2IFCnew_2019_Jun_13_1506_658,True,2019_Jun_13_1506,2IFCnew,2,KLRU16,
2IFCnew,29,0,29,0,0.266875599977,1,No,11.6,-1,Hit,0.500426099868,True,False,stimulusKLRU16_2IFCnew_2019_Jun_13_1506_659,stimulusKLRU16_2IFCnew_2019_Jun_13_1506_660,True,2019_Jun_13_1506,2IFCnew,2,KLRU16,
2IFCnew,30,0,30,0,0.266745700035,1,No,6.4,-1,Hit,0.500858100131,True,False,stimulusKLRU16_2IFCnew_2019_Jun_13_1506_661,stimulusKLRU16_2IFCnew_2019_Jun_13_1506_662,True,2019_Jun_13_1506,2IFCnew,2,KLRU16,
2IFCnew,31,0,31,0,0.534807099961,5,Yes,8.4,-1,False Alarm,0.467060999945,False,True,stimulusKLRU16_2IFCnew_2019_Jun_13_1506_663,stimulusKLRU16_2IFCnew_2019_Jun_13_1506_664,True,2019_Jun_13_1506,2IFCnew,2,KLRU16,
2IFCnew,32,0,32,0,0.668871199945,5,Yes,5.1,-1,False Alarm,0.699999900069,False,True,stimulusKLRU16_2IFCnew_2019_Jun_13_1506_665,stimulusKLRU16_2IFCnew_2019_Jun_13_1506_666,True,2019_Jun_13_1506,2IFCnew,2,KLRU16,
2IFCnew,33,0,33,0,0.7346043,5,Yes,10.4,-1,False Alarm,0.733955200063,False,True,stimulusKLRU16_2IFCnew_2019_Jun_13_1506_667,stimulusKLRU16_2IFCnew_2019_Jun_13_1506_668,True,2019_Jun_13_1506,2IFCnew,2,KLRU16,
2IFCnew,34,0,34,0,0.700229700189,5,Yes,10.4,-1,False Alarm,0.802448900184,False,True,stimulusKLRU16_2IFCnew_2019_Jun_13_1506_669,stimulusKLRU16_2IFCnew_2019_Jun_13_1506_670,True,2019_Jun_13_1506,2IFCnew,2,KLRU16,
2IFCnew,35,0,35,0,0.334277200047,4,Yes,5.1,-1,Miss,0.567722000182,True,False,stimulusKLRU16_2IFCnew_2019_Jun_13_1506_671,stimulusKLRU16_2IFCnew_2019_Jun_13_1506_672,True,2019_Jun_13_1506,2IFCnew,2,KLRU16,
2IFCnew,36,0,36,0,0.633855399908,5,Yes,3.5,-1,False Alarm,0.567717700033,False,True,stimulusKLRU16_2IFCnew_2019_Jun_13_1506_673,stimulusKLRU16_2IFCnew_2019_Jun_13_1506_674,True,2019_Jun_13_1506,2IFCnew,2,KLRU16,
2IFCnew,37,0,37,0,0.399525200017,2,Yes,3.5,-1,Correct Rejection,0.501102799783,False,True,stimulusKLRU16_2IFCnew_2019_Jun_13_1506_675,stimulusKLRU16_2IFCnew_2019_Jun_13_1506_676,True,2019_Jun_13_1506,2IFCnew,2,KLRU16,
2IFCnew,38,0,38,0,0.533940399997,2,Yes,6.4,-1,Correct Rejection,0.567216100171,False,True,stimulusKLRU16_2IFCnew_2019_Jun_13_1506_677,stimulusKLRU16_2IFCnew_2019_Jun_13_1506_678,True,2019_Jun_13_1506,2IFCnew,2,KLRU16,
2IFCnew,39,0,39,0,0.43379619997,2,Yes,7.4,-1,Correct Rejection,0.567408300005,False,True,stimulusKLRU16_2IFCnew_2019_Jun_13_1506_679,stimulusKLRU16_2IFCnew_2019_Jun_13_1506_680,True,2019_Jun_13_1506,2IFCnew,2,KLRU16,
2IFCnew,40,0,40,0,0.233096299926,2,Yes,7.4,-1,Correct Rejection,0.53520100005,False,True,stimulusKLRU16_2IFCnew_2019_Jun_13_1506_681,stimulusKLRU16_2IFCnew_2019_Jun_13_1506_682,True,2019_Jun_13_1506,2IFCnew,2,KLRU16,
2IFCnew,41,0,41,0,0.20092480001,2,Yes,5.1,-1,Correct Rejection,0.534556800034,False,True,stimulusKLRU16_2IFCnew_2019_Jun_13_1506_683,stimulusKLRU16_2IFCnew_2019_Jun_13_1506_684,True,2019_Jun_13_1506,2IFCnew,2,KLRU16,
2IFCnew,42,0,42,0,0.300601700088,2,Yes,7.4,-1,Correct Rejection,0.601648299955,False,True,stimulusKLRU16_2IFCnew_2019_Jun_13_1506_685,stimulusKLRU16_2IFCnew_2019_Jun_13_1506_686,True,2019_Jun_13_1506,2IFCnew,2,KLRU16,
2IFCnew,43,0,43,0,0.16689930018,1,No,11.6,-1,Hit,0.50058569992,True,False,stimulusKLRU16_2IFCnew_2019_Jun_13_1506_687,stimulusKLRU16_2IFCnew_2019_Jun_13_1506_688,True,2019_Jun_13_1506,2IFCnew,2,KLRU16,
2IFCnew,44,0,44,0,0.365841999883,1,No,6.4,-1,Hit,0.534960799851,True,False,stimulusKLRU16_2IFCnew_2019_Jun_13_1506_689,stimulusKLRU16_2IFCnew_2019_Jun_13_1506_690,True,2019_Jun_13_1506,2IFCnew,2,KLRU16,
2IFCnew,45,0,45,0,0.366755299969,1,No,8.4,-1,Hit,0.49988470017,True,False,stimulusKLRU16_2IFCnew_2019_Jun_13_1506_691,stimulusKLRU16_2IFCnew_2019_Jun_13_1506_692,True,2019_Jun_13_1506,2IFCnew,2,KLRU16,
2IFCnew,46,0,46,0,0.30093170004,1,No,8.4,-1,Hit,0.367205600021,True,False,stimulusKLRU16_2IFCnew_2019_Jun_13_1506_693,stimulusKLRU16_2IFCnew_2019_Jun_13_1506_694,True,2019_Jun_13_1506,2IFCnew,2,KLRU16,
2IFCnew,47,0,47,0,0.233705600025,1,No,5.1,-1,Hit,0.434274400119,True,False,stimulusKLRU16_2IFCnew_2019_Jun_13_1506_695,stimulusKLRU16_2IFCnew_2019_Jun_13_1506_696,True,2019_Jun_13_1506,2IFCnew,2,KLRU16,
2IFCnew,48,0,48,0,0.601262399927,5,Yes,3.5,-1,False Alarm,0.500538800145,False,True,stimulusKLRU16_2IFCnew_2019_Jun_13_1506_697,stimulusKLRU16_2IFCnew_2019_Jun_13_1506_698,True,2019_Jun_13_1506,2IFCnew,2,KLRU16,
2IFCnew,49,0,49,0,0.600899900077,5,Yes,10.4,-1,False Alarm,0.501258899923,False,True,stimulusKLRU16_2IFCnew_2019_Jun_13_1506_699,stimulusKLRU16_2IFCnew_2019_Jun_13_1506_700,True,2019_Jun_13_1506,2IFCnew,2,KLRU16,
2IFCnew,50,0,50,0,0.400340599939,1,No,8.4,-1,Hit,0.567199399928,True,False,stimulusKLRU16_2IFCnew_2019_Jun_13_1506_701,stimulusKLRU16_2IFCnew_2019_Jun_13_1506_702,True,2019_Jun_13_1506,2IFCnew,2,KLRU16,
2IFCnew,51,0,51,0,0.300801899983,1,No,6.4,-1,Hit,0.535052200081,True,False,stimulusKLRU16_2IFCnew_2019_Jun_13_1506_703,stimulusKLRU16_2IFCnew_2019_Jun_13_1506_704,True,2019_Jun_13_1506,2IFCnew,2,KLRU16,
2IFCnew,52,0,52,0,0.230171799893,1,No,11.6,-1,Hit,0.434119799873,True,False,stimulusKLRU16_2IFCnew_2019_Jun_13_1506_705,stimulusKLRU16_2IFCnew_2019_Jun_13_1506_706,True,2019_Jun_13_1506,2IFCnew,2,KLRU16,
2IFCnew,53,0,53,0,0.367358499905,5,Yes,3.5,-1,False Alarm,0.466345800087,False,True,stimulusKLRU16_2IFCnew_2019_Jun_13_1506_707,stimulusKLRU16_2IFCnew_2019_Jun_13_1506_708,True,2019_Jun_13_1506,2IFCnew,2,KLRU16,
2IFCnew,54,0,54,0,0.30049189995,4,Yes,6.4,-1,Miss,0.534285699949,True,False,stimulusKLRU16_2IFCnew_2019_Jun_13_1506_709,stimulusKLRU16_2IFCnew_2019_Jun_13_1506_710,True,2019_Jun_13_1506,2IFCnew,2,KLRU16,
2IFCnew,55,0,55,0,0.133756200084,1,No,9.3,-1,Hit,0.534357999917,True,False,stimulusKLRU16_2IFCnew_2019_Jun_13_1506_711,stimulusKLRU16_2IFCnew_2019_Jun_13_1506_712,True,2019_Jun_13_1506,2IFCnew,2,KLRU16,
2IFCnew,56,0,56,0,0.166869299952,1,No,9.3,-1,Hit,0.500609999988,True,False,stimulusKLRU16_2IFCnew_2019_Jun_13_1506_713,stimulusKLRU16_2IFCnew_2019_Jun_13_1506_714,True,2019_Jun_13_1506,2IFCnew,2,KLRU16,
2IFCnew,57,0,57,0,0.133688299917,1,No,11.6,-1,Hit,0.434141199803,True,False,stimulusKLRU16_2IFCnew_2019_Jun_13_1506_715,stimulusKLRU16_2IFCnew_2019_Jun_13_1506_716,True,2019_Jun_13_1506,2IFCnew,2,KLRU16,
2IFCnew,58,0,58,0,0.533927999903,5,Yes,8.4,-1,False Alarm,0.502505100099,False,True,stimulusKLRU16_2IFCnew_2019_Jun_13_1506_717,stimulusKLRU16_2IFCnew_2019_Jun_13_1506_718,True,2019_Jun_13_1506,2IFCnew,2,KLRU16,
2IFCnew,59,0,59,0,0.400376399979,2,Yes,8.4,-1,Correct Rejection,0.500797500135,False,True,stimulusKLRU16_2IFCnew_2019_Jun_13_1506_719,stimulusKLRU16_2IFCnew_2019_Jun_13_1506_720,True,2019_Jun_13_1506,2IFCnew,2,KLRU16,
2IFCnew,60,0,60,0,0.133746500127,1,No,11.6,-1,Hit,0.535901200026,True,False,stimulusKLRU16_2IFCnew_2019_Jun_13_1506_721,stimulusKLRU16_2IFCnew_2019_Jun_13_1506_722,True,2019_Jun_13_1506,2IFCnew,2,KLRU16,
2IFCnew,61,0,61,0,0.667823099997,5,Yes,10.4,-1,False Alarm,0.533720699837,False,True,stimulusKLRU16_2IFCnew_2019_Jun_13_1506_723,stimulusKLRU16_2IFCnew_2019_Jun_13_1506_724,True,2019_Jun_13_1506,2IFCnew,2,KLRU16,
2IFCnew,62,0,62,0,0.267169700004,2,Yes,6.4,-1,Correct Rejection,0.500101099955,False,True,stimulusKLRU16_2IFCnew_2019_Jun_13_1506_725,stimulusKLRU16_2IFCnew_2019_Jun_13_1506_726,True,2019_Jun_13_1506,2IFCnew,2,KLRU16,
2IFCnew,63,0,63,0,0.200682899915,1,No,11.6,-1,Hit,0.433969500009,True,False,stimulusKLRU16_2IFCnew_2019_Jun_13_1506_727,stimulusKLRU16_2IFCnew_2019_Jun_13_1506_728,True,2019_Jun_13_1506,2IFCnew,2,KLRU16,
2IFCnew,64,0,64,0,0.467323499965,1,No,7.4,-1,Hit,0.500593000092,True,False,stimulusKLRU16_2IFCnew_2019_Jun_13_1506_729,stimulusKLRU16_2IFCnew_2019_Jun_13_1506_730,True,2019_Jun_13_1506,2IFCnew,2,KLRU16,
2IFCnew,65,0,65,0,0.299783400027,2,Yes,6.4,-1,Correct Rejection,0.567040099995,False,True,stimulusKLRU16_2IFCnew_2019_Jun_13_1506_731,stimulusKLRU16_2IFCnew_2019_Jun_13_1506_732,True,2019_Jun_13_1506,2IFCnew,2,KLRU16,
2IFCnew,66,0,66,0,0.200643399963,1,No,9.3,-1,Hit,0.535808100132,True,False,stimulusKLRU16_2IFCnew_2019_Jun_13_1506_733,stimulusKLRU16_2IFCnew_2019_Jun_13_1506_734,True,2019_Jun_13_1506,2IFCnew,2,KLRU16,
2IFCnew,67,0,67,0,0.598878599936,1,No,5.1,-1,Hit,0.534021000145,True,False,stimulusKLRU16_2IFCnew_2019_Jun_13_1506_735,stimulusKLRU16_2IFCnew_2019_Jun_13_1506_736,True,2019_Jun_13_1506,2IFCnew,2,KLRU16,
2IFCnew,68,0,68,0,0.20038259984,2,Yes,11.6,-1,Correct Rejection,0.567550200038,False,True,stimulusKLRU16_2IFCnew_2019_Jun_13_1506_737,stimulusKLRU16_2IFCnew_2019_Jun_13_1506_738,True,2019_Jun_13_1506,2IFCnew,2,KLRU16,
2IFCnew,69,0,69,0,0.366893199971,2,Yes,8.4,-1,Correct Rejection,0.700844799867,False,True,stimulusKLRU16_2IFCnew_2019_Jun_13_1506_739,stimulusKLRU16_2IFCnew_2019_Jun_13_1506_740,True,2019_Jun_13_1506,2IFCnew,2,KLRU16,
2IFCnew,70,0,70,0,0.433744400041,3,No,3.5,-1,False Alarm,0.533547099913,False,True,stimulusKLRU16_2IFCnew_2019_Jun_13_1506_741,stimulusKLRU16_2IFCnew_2019_Jun_13_1506_742,True,2019_Jun_13_1506,2IFCnew,2,KLRU16,
2IFCnew,71,0,71,0,0.467334699817,1,No,9.3,-1,Hit,0.50057839998,True,False,stimulusKLRU16_2IFCnew_2019_Jun_13_1506_743,stimulusKLRU16_2IFCnew_2019_Jun_13_1506_744,True,2019_Jun_13_1506,2IFCnew,2,KLRU16,
2IFCnew,72,0,72,0,0.333354900125,4,Yes,5.1,-1,Miss,0.601069499971,True,False,stimulusKLRU16_2IFCnew_2019_Jun_13_1506_745,stimulusKLRU16_2IFCnew_2019_Jun_13_1506_746,True,2019_Jun_13_1506,2IFCnew,2,KLRU16,
2IFCnew,73,0,73,0,0.733738899929,8,No,6.4,-1,Correct Rejection,0.635263499804,False,True,stimulusKLRU16_2IFCnew_2019_Jun_13_1506_747,stimulusKLRU16_2IFCnew_2019_Jun_13_1506_748,True,2019_Jun_13_1506,2IFCnew,2,KLRU16,
2IFCnew,74,0,74,0,0.600628100103,2,Yes,7.4,-1,Correct Rejection,0.667837599991,False,True,stimulusKLRU16_2IFCnew_2019_Jun_13_1506_749,stimulusKLRU16_2IFCnew_2019_Jun_13_1506_750,True,2019_Jun_13_1506,2IFCnew,2,KLRU16,
2IFCnew,0,0,0,0,-1,0,Yes,11.6,-1,No Answer,-1,False,True,stimulusKLRU16_2IFCnew_2019_Jun_13_1506_751,stimulusKLRU16_2IFCnew_2019_Jun_13_1506_752,True,2019_Jun_13_1506,2IFCnew,2,KLRU16,
2IFCnew,1,0,1,0,0.200483300025,1,No,9.3,-1,Hit,0.701356500154,True,False,stimulusKLRU16_2IFCnew_2019_Jun_13_1506_753,stimulusKLRU16_2IFCnew_2019_Jun_13_1506_754,True,2019_Jun_13_1506,2IFCnew,2,KLRU16,
2IFCnew,2,0,2,0,0.467108200071,1,No,11.6,-1,Hit,0.43562559993,True,False,stimulusKLRU16_2IFCnew_2019_Jun_13_1506_755,stimulusKLRU16_2IFCnew_2019_Jun_13_1506_756,True,2019_Jun_13_1506,2IFCnew,2,KLRU16,
2IFCnew,3,0,3,0,0.299943199847,1,No,7.4,-1,Hit,0.500539300032,True,False,stimulusKLRU16_2IFCnew_2019_Jun_13_1506_757,stimulusKLRU16_2IFCnew_2019_Jun_13_1506_758,True,2019_Jun_13_1506,2IFCnew,2,KLRU16,
2IFCnew,4,0,4,0,0.167017400032,1,No,8.4,-1,Hit,0.433746699942,True,False,stimulusKLRU16_2IFCnew_2019_Jun_13_1506_759,stimulusKLRU16_2IFCnew_2019_Jun_13_1506_760,True,2019_Jun_13_1506,2IFCnew,2,KLRU16,
2IFCnew,5,0,5,0,0.234061999945,1,No,8.4,-1,Hit,0.600112800021,True,False,stimulusKLRU16_2IFCnew_2019_Jun_13_1506_761,stimulusKLRU16_2IFCnew_2019_Jun_13_1506_762,True,2019_Jun_13_1506,2IFCnew,2,KLRU16,
2IFCnew,6,0,6,0,0.300348800141,2,Yes,6.4,-1,Correct Rejection,0.533904199954,False,True,stimulusKLRU16_2IFCnew_2019_Jun_13_1506_763,stimulusKLRU16_2IFCnew_2019_Jun_13_1506_764,True,2019_Jun_13_1506,2IFCnew,2,KLRU16,
2IFCnew,7,0,7,0,0.400540099945,2,Yes,8.4,-1,Correct Rejection,0.500572299818,False,True,stimulusKLRU16_2IFCnew_2019_Jun_13_1506_765,stimulusKLRU16_2IFCnew_2019_Jun_13_1506_766,True,2019_Jun_13_1506,2IFCnew,2,KLRU16,
2IFCnew,8,0,8,0,0.233179399977,1,No,9.3,-1,Hit,0.567512300098,True,False,stimulusKLRU16_2IFCnew_2019_Jun_13_1506_767,stimulusKLRU16_2IFCnew_2019_Jun_13_1506_768,True,2019_Jun_13_1506,2IFCnew,2,KLRU16,
2IFCnew,9,0,9,0,0.399843499996,3,No,3.5,-1,False Alarm,0.535606000107,False,True,stimulusKLRU16_2IFCnew_2019_Jun_13_1506_769,stimulusKLRU16_2IFCnew_2019_Jun_13_1506_770,True,2019_Jun_13_1506,2IFCnew,2,KLRU16,
2IFCnew,10,0,10,0,0.298907299992,2,Yes,11.6,-1,Correct Rejection,0.567768999841,False,True,stimulusKLRU16_2IFCnew_2019_Jun_13_1506_771,stimulusKLRU16_2IFCnew_2019_Jun_13_1506_772,True,2019_Jun_13_1506,2IFCnew,2,KLRU16,
2IFCnew,11,0,11,0,0.23398450017,1,No,6.4,-1,Hit,0.534892099909,True,False,stimulusKLRU16_2IFCnew_2019_Jun_13_1506_773,stimulusKLRU16_2IFCnew_2019_Jun_13_1506_774,True,2019_Jun_13_1506,2IFCnew,2,KLRU16,
2IFCnew,12,0,12,0,0.366529100109,1,No,6.4,-1,Hit,0.467345800018,True,False,stimulusKLRU16_2IFCnew_2019_Jun_13_1506_775,stimulusKLRU16_2IFCnew_2019_Jun_13_1506_776,True,2019_Jun_13_1506,2IFCnew,2,KLRU16,
2IFCnew,13,0,13,0,0.332402799977,3,No,3.5,-1,False Alarm,0.597988700029,False,True,stimulusKLRU16_2IFCnew_2019_Jun_13_1506_777,stimulusKLRU16_2IFCnew_2019_Jun_13_1506_778,True,2019_Jun_13_1506,2IFCnew,2,KLRU16,
2IFCnew,14,0,14,0,0.234642100055,1,No,8.4,-1,Hit,0.538143599872,True,False,stimulusKLRU16_2IFCnew_2019_Jun_13_1506_779,stimulusKLRU16_2IFCnew_2019_Jun_13_1506_780,True,2019_Jun_13_1506,2IFCnew,2,KLRU16,
2IFCnew,15,0,15,0,0.6006167999,5,Yes,6.4,-1,False Alarm,0.534173100023,False,True,stimulusKLRU16_2IFCnew_2019_Jun_13_1506_781,stimulusKLRU16_2IFCnew_2019_Jun_13_1506_782,True,2019_Jun_13_1506,2IFCnew,2,KLRU16,
2IFCnew,16,0,16,0,0.599860599963,1,No,5.1,-1,Hit,0.501611599931,True,False,stimulusKLRU16_2IFCnew_2019_Jun_13_1506_783,stimulusKLRU16_2IFCnew_2019_Jun_13_1506_784,True,2019_Jun_13_1506,2IFCnew,2,KLRU16,
2IFCnew,17,0,17,0,0.834192699986,8,No,9.3,-1,Correct Rejection,0.567497899989,False,True,stimulusKLRU16_2IFCnew_2019_Jun_13_1506_785,stimulusKLRU16_2IFCnew_2019_Jun_13_1506_786,True,2019_Jun_13_1506,2IFCnew,2,KLRU16,
2IFCnew,18,0,18,0,0.666367600206,1,No,7.4,-1,Hit,0.567373599857,True,False,stimulusKLRU16_2IFCnew_2019_Jun_13_1506_787,stimulusKLRU16_2IFCnew_2019_Jun_13_1506_788,True,2019_Jun_13_1506,2IFCnew,2,KLRU16,
2IFCnew,19,0,19,0,0.431015799986,2,Yes,10.4,-1,Correct Rejection,0.56681190012,False,True,stimulusKLRU16_2IFCnew_2019_Jun_13_1506_789,stimulusKLRU16_2IFCnew_2019_Jun_13_1506_790,True,2019_Jun_13_1506,2IFCnew,2,KLRU16,
2IFCnew,20,0,20,0,0.567132400116,3,No,3.5,-1,False Alarm,0.569716300117,False,True,stimulusKLRU16_2IFCnew_2019_Jun_13_1506_791,stimulusKLRU16_2IFCnew_2019_Jun_13_1506_792,True,2019_Jun_13_1506,2IFCnew,2,KLRU16,
2IFCnew,21,0,21,0,0.600631300127,5,Yes,3.5,-1,False Alarm,0.63399500004,False,True,stimulusKLRU16_2IFCnew_2019_Jun_13_1506_793,stimulusKLRU16_2IFCnew_2019_Jun_13_1506_794,True,2019_Jun_13_1506,2IFCnew,2,KLRU16,
2IFCnew,22,0,22,0,0.366520999931,2,Yes,11.6,-1,Correct Rejection,0.501467599999,False,True,stimulusKLRU16_2IFCnew_2019_Jun_13_1506_795,stimulusKLRU16_2IFCnew_2019_Jun_13_1506_796,True,2019_Jun_13_1506,2IFCnew,2,KLRU16,
2IFCnew,23,0,23,0,0.634148099925,1,No,9.3,-1,Hit,0.535202000057,True,False,stimulusKLRU16_2IFCnew_2019_Jun_13_1506_797,stimulusKLRU16_2IFCnew_2019_Jun_13_1506_798,True,2019_Jun_13_1506,2IFCnew,2,KLRU16,
2IFCnew,24,0,24,0,0.300643799827,4,Yes,3.5,-1,Miss,0.634784199996,True,False,stimulusKLRU16_2IFCnew_2019_Jun_13_1506_799,stimulusKLRU16_2IFCnew_2019_Jun_13_1506_800,True,2019_Jun_13_1506,2IFCnew,2,KLRU16,
2IFCnew,25,0,25,0,0.500786599936,1,No,5.1,-1,Hit,0.601035299944,True,False,stimulusKLRU16_2IFCnew_2019_Jun_13_1506_801,stimulusKLRU16_2IFCnew_2019_Jun_13_1506_802,True,2019_Jun_13_1506,2IFCnew,2,KLRU16,
2IFCnew,26,0,26,0,0.500093800016,1,No,9.3,-1,Hit,0.467370199971,True,False,stimulusKLRU16_2IFCnew_2019_Jun_13_1506_803,stimulusKLRU16_2IFCnew_2019_Jun_13_1506_804,True,2019_Jun_13_1506,2IFCnew,2,KLRU16,
2IFCnew,27,0,27,0,0.732631399995,1,No,3.5,-1,Hit,0.566520299995,True,False,stimulusKLRU16_2IFCnew_2019_Jun_13_1506_805,stimulusKLRU16_2IFCnew_2019_Jun_13_1506_806,True,2019_Jun_13_1506,2IFCnew,2,KLRU16,
2IFCnew,28,0,28,0,0.634798399871,4,Yes,3.5,-1,Miss,0.700615900103,True,False,stimulusKLRU16_2IFCnew_2019_Jun_13_1506_807,stimulusKLRU16_2IFCnew_2019_Jun_13_1506_808,True,2019_Jun_13_1506,2IFCnew,2,KLRU16,
2IFCnew,29,0,29,0,0.466567999916,1,No,8.4,-1,Hit,0.534731399966,True,False,stimulusKLRU16_2IFCnew_2019_Jun_13_1506_809,stimulusKLRU16_2IFCnew_2019_Jun_13_1506_810,True,2019_Jun_13_1506,2IFCnew,2,KLRU16,
2IFCnew,30,0,30,0,0.499873499852,1,No,7.4,-1,Hit,0.56759820017,True,False,stimulusKLRU16_2IFCnew_2019_Jun_13_1506_811,stimulusKLRU16_2IFCnew_2019_Jun_13_1506_812,True,2019_Jun_13_1506,2IFCnew,2,KLRU16,
2IFCnew,31,0,31,0,-1,4,No,5.1,-1,Miss,0.668781100074,True,False,stimulusKLRU16_2IFCnew_2019_Jun_13_1506_813,stimulusKLRU16_2IFCnew_2019_Jun_13_1506_814,True,2019_Jun_13_1506,2IFCnew,2,KLRU16,
2IFCnew,32,0,32,0,0.267085799947,4,Yes,6.4,-1,Miss,0.635461299913,True,False,stimulusKLRU16_2IFCnew_2019_Jun_13_1506_815,stimulusKLRU16_2IFCnew_2019_Jun_13_1506_816,True,2019_Jun_13_1506,2IFCnew,2,KLRU16,
2IFCnew,33,0,33,0,0.867768299999,5,Yes,6.4,-1,False Alarm,0.767169300001,False,True,stimulusKLRU16_2IFCnew_2019_Jun_13_1506_817,stimulusKLRU16_2IFCnew_2019_Jun_13_1506_818,True,2019_Jun_13_1506,2IFCnew,2,KLRU16,
2IFCnew,34,0,34,0,0.433369999984,2,Yes,11.6,-1,Correct Rejection,0.6008287,False,True,stimulusKLRU16_2IFCnew_2019_Jun_13_1506_819,stimulusKLRU16_2IFCnew_2019_Jun_13_1506_820,True,2019_Jun_13_1506,2IFCnew,2,KLRU16,
2IFCnew,35,0,35,0,0.734015400056,6,No,5.1,-1,Miss,0.700492499862,True,False,stimulusKLRU16_2IFCnew_2019_Jun_13_1506_821,stimulusKLRU16_2IFCnew_2019_Jun_13_1506_822,True,2019_Jun_13_1506,2IFCnew,2,KLRU16,
2IFCnew,36,0,36,0,0.733858400024,6,No,3.5,-1,Miss,0.733193400083,True,False,stimulusKLRU16_2IFCnew_2019_Jun_13_1506_823,stimulusKLRU16_2IFCnew_2019_Jun_13_1506_824,True,2019_Jun_13_1506,2IFCnew,2,KLRU16,
2IFCnew,37,0,37,0,0.467237100005,2,Yes,5.1,-1,Correct Rejection,0.633983600186,False,True,stimulusKLRU16_2IFCnew_2019_Jun_13_1506_825,stimulusKLRU16_2IFCnew_2019_Jun_13_1506_826,True,2019_Jun_13_1506,2IFCnew,2,KLRU16,
2IFCnew,38,0,38,0,0.400166699896,1,No,8.4,-1,Hit,0.567469600122,True,False,stimulusKLRU16_2IFCnew_2019_Jun_13_1506_827,stimulusKLRU16_2IFCnew_2019_Jun_13_1506_828,True,2019_Jun_13_1506,2IFCnew,2,KLRU16,
2IFCnew,39,0,39,0,0.701090499992,6,No,7.4,-1,Miss,0.66741759982,True,False,stimulusKLRU16_2IFCnew_2019_Jun_13_1506_829,stimulusKLRU16_2IFCnew_2019_Jun_13_1506_830,True,2019_Jun_13_1506,2IFCnew,2,KLRU16,
2IFCnew,40,0,40,0,0.734292800073,2,Yes,8.4,-1,Correct Rejection,0.600878200028,False,True,stimulusKLRU16_2IFCnew_2019_Jun_13_1506_831,stimulusKLRU16_2IFCnew_2019_Jun_13_1506_832,True,2019_Jun_13_1506,2IFCnew,2,KLRU16,
2IFCnew,41,0,41,0,0.698432100005,6,No,3.5,-1,Miss,0.500534699997,True,False,stimulusKLRU16_2IFCnew_2019_Jun_13_1506_833,stimulusKLRU16_2IFCnew_2019_Jun_13_1506_834,True,2019_Jun_13_1506,2IFCnew,2,KLRU16,
2IFCnew,42,0,42,0,0.234606400132,1,No,10.4,-1,Hit,0.567569300067,True,False,stimulusKLRU16_2IFCnew_2019_Jun_13_1506_835,stimulusKLRU16_2IFCnew_2019_Jun_13_1506_836,True,2019_Jun_13_1506,2IFCnew,2,KLRU16,
2IFCnew,43,0,43,0,0.367399600102,1,No,8.4,-1,Hit,0.834940900095,True,False,stimulusKLRU16_2IFCnew_2019_Jun_13_1506_837,stimulusKLRU16_2IFCnew_2019_Jun_13_1506_838,True,2019_Jun_13_1506,2IFCnew,2,KLRU16,
2IFCnew,44,0,44,0,0.400921399938,2,Yes,11.6,-1,Correct Rejection,0.53337339987,False,True,stimulusKLRU16_2IFCnew_2019_Jun_13_1506_839,stimulusKLRU16_2IFCnew_2019_Jun_13_1506_840,True,2019_Jun_13_1506,2IFCnew,2,KLRU16,
2IFCnew,45,0,45,0,0.466844200157,2,Yes,10.4,-1,Correct Rejection,0.533971899888,False,True,stimulusKLRU16_2IFCnew_2019_Jun_13_1506_841,stimulusKLRU16_2IFCnew_2019_Jun_13_1506_842,True,2019_Jun_13_1506,2IFCnew,2,KLRU16,
2IFCnew,46,0,46,0,0.567374600098,5,Yes,9.3,-1,False Alarm,0.700729299802,False,True,stimulusKLRU16_2IFCnew_2019_Jun_13_1506_843,stimulusKLRU16_2IFCnew_2019_Jun_13_1506_844,True,2019_Jun_13_1506,2IFCnew,2,KLRU16,
2IFCnew,47,0,47,0,0.566936100135,2,Yes,9.3,-1,Correct Rejection,0.733993100002,False,True,stimulusKLRU16_2IFCnew_2019_Jun_13_1506_845,stimulusKLRU16_2IFCnew_2019_Jun_13_1506_846,True,2019_Jun_13_1506,2IFCnew,2,KLRU16,
2IFCnew,48,0,48,0,0.467417999869,2,Yes,3.5,-1,Correct Rejection,0.633376299869,False,True,stimulusKLRU16_2IFCnew_2019_Jun_13_1506_847,stimulusKLRU16_2IFCnew_2019_Jun_13_1506_848,True,2019_Jun_13_1506,2IFCnew,2,KLRU16,
2IFCnew,49,0,49,0,0.366644599941,1,No,8.4,-1,Hit,0.600554799894,True,False,stimulusKLRU16_2IFCnew_2019_Jun_13_1506_849,stimulusKLRU16_2IFCnew_2019_Jun_13_1506_850,True,2019_Jun_13_1506,2IFCnew,2,KLRU16,
2IFCnew,50,0,50,0,0.364627800183,1,No,7.4,-1,Hit,0.535265400074,True,False,stimulusKLRU16_2IFCnew_2019_Jun_13_1506_851,stimulusKLRU16_2IFCnew_2019_Jun_13_1506_852,True,2019_Jun_13_1506,2IFCnew,2,KLRU16,
2IFCnew,51,0,51,0,0.433904699981,2,Yes,8.4,-1,Correct Rejection,0.634655099828,False,True,stimulusKLRU16_2IFCnew_2019_Jun_13_1506_853,stimulusKLRU16_2IFCnew_2019_Jun_13_1506_854,True,2019_Jun_13_1506,2IFCnew,2,KLRU16,
2IFCnew,52,0,52,0,0.533827099949,2,Yes,8.4,-1,Correct Rejection,0.535210799892,False,True,stimulusKLRU16_2IFCnew_2019_Jun_13_1506_855,stimulusKLRU16_2IFCnew_2019_Jun_13_1506_856,True,2019_Jun_13_1506,2IFCnew,2,KLRU16,
2IFCnew,53,0,53,0,0.433922600001,2,Yes,10.4,-1,Correct Rejection,0.50071069994,False,True,stimulusKLRU16_2IFCnew_2019_Jun_13_1506_857,stimulusKLRU16_2IFCnew_2019_Jun_13_1506_858,True,2019_Jun_13_1506,2IFCnew,2,KLRU16,
2IFCnew,54,0,54,0,0.501790300012,1,No,3.5,-1,Hit,0.501409400022,True,False,stimulusKLRU16_2IFCnew_2019_Jun_13_1506_859,stimulusKLRU16_2IFCnew_2019_Jun_13_1506_860,True,2019_Jun_13_1506,2IFCnew,2,KLRU16,
2IFCnew,55,0,55,0,0.500600100029,4,Yes,3.5,-1,Miss,0.500053599942,True,False,stimulusKLRU16_2IFCnew_2019_Jun_13_1506_861,stimulusKLRU16_2IFCnew_2019_Jun_13_1506_862,True,2019_Jun_13_1506,2IFCnew,2,KLRU16,
2IFCnew,56,0,56,0,0.634118000045,2,Yes,8.4,-1,Correct Rejection,0.63402769994,False,True,stimulusKLRU16_2IFCnew_2019_Jun_13_1506_863,stimulusKLRU16_2IFCnew_2019_Jun_13_1506_864,True,2019_Jun_13_1506,2IFCnew,2,KLRU16,
2IFCnew,57,0,57,0,0.5006463998,1,No,8.4,-1,Hit,0.466865699971,True,False,stimulusKLRU16_2IFCnew_2019_Jun_13_1506_865,stimulusKLRU16_2IFCnew_2019_Jun_13_1506_866,True,2019_Jun_13_1506,2IFCnew,2,KLRU16,
2IFCnew,58,0,58,0,0.567075499799,6,No,6.4,-1,Miss,0.66621159995,True,False,stimulusKLRU16_2IFCnew_2019_Jun_13_1506_867,stimulusKLRU16_2IFCnew_2019_Jun_13_1506_868,True,2019_Jun_13_1506,2IFCnew,2,KLRU16,
2IFCnew,59,0,59,0,0.533893899992,1,No,5.1,-1,Hit,0.534010499949,True,False,stimulusKLRU16_2IFCnew_2019_Jun_13_1506_869,stimulusKLRU16_2IFCnew_2019_Jun_13_1506_870,True,2019_Jun_13_1506,2IFCnew,2,KLRU16,
2IFCnew,60,0,60,0,0.402104800101,2,Yes,7.4,-1,Correct Rejection,0.534266600152,False,True,stimulusKLRU16_2IFCnew_2019_Jun_13_1506_871,stimulusKLRU16_2IFCnew_2019_Jun_13_1506_872,True,2019_Jun_13_1506,2IFCnew,2,KLRU16,
2IFCnew,61,0,61,0,0.467404199997,2,Yes,9.3,-1,Correct Rejection,0.533257199917,False,True,stimulusKLRU16_2IFCnew_2019_Jun_13_1506_873,stimulusKLRU16_2IFCnew_2019_Jun_13_1506_874,True,2019_Jun_13_1506,2IFCnew,2,KLRU16,
2IFCnew,62,0,62,0,0.333857099991,1,No,11.6,-1,Hit,0.667657400016,True,False,stimulusKLRU16_2IFCnew_2019_Jun_13_1506_875,stimulusKLRU16_2IFCnew_2019_Jun_13_1506_876,True,2019_Jun_13_1506,2IFCnew,2,KLRU16,
2IFCnew,63,0,63,0,0.46711149998,6,No,3.5,-1,Miss,0.534089399967,True,False,stimulusKLRU16_2IFCnew_2019_Jun_13_1506_877,stimulusKLRU16_2IFCnew_2019_Jun_13_1506_878,True,2019_Jun_13_1506,2IFCnew,2,KLRU16,
2IFCnew,64,0,64,0,0.534339499893,2,Yes,9.3,-1,Correct Rejection,0.533834400121,False,True,stimulusKLRU16_2IFCnew_2019_Jun_13_1506_879,stimulusKLRU16_2IFCnew_2019_Jun_13_1506_880,True,2019_Jun_13_1506,2IFCnew,2,KLRU16,
2IFCnew,65,0,65,0,0.834137200145,5,Yes,8.4,-1,False Alarm,0.500772000058,False,True,stimulusKLRU16_2IFCnew_2019_Jun_13_1506_881,stimulusKLRU16_2IFCnew_2019_Jun_13_1506_882,True,2019_Jun_13_1506,2IFCnew,2,KLRU16,
2IFCnew,66,0,66,0,0.500267199939,2,Yes,10.4,-1,Correct Rejection,0.700961000053,False,True,stimulusKLRU16_2IFCnew_2019_Jun_13_1506_883,stimulusKLRU16_2IFCnew_2019_Jun_13_1506_884,True,2019_Jun_13_1506,2IFCnew,2,KLRU16,
2IFCnew,67,0,67,0,0.432558600092,2,Yes,9.3,-1,Correct Rejection,0.598572399933,False,True,stimulusKLRU16_2IFCnew_2019_Jun_13_1506_885,stimulusKLRU16_2IFCnew_2019_Jun_13_1506_886,True,2019_Jun_13_1506,2IFCnew,2,KLRU16,
2IFCnew,68,0,68,0,0.734137200052,6,No,5.1,-1,Miss,0.500806199852,True,False,stimulusKLRU16_2IFCnew_2019_Jun_13_1506_887,stimulusKLRU16_2IFCnew_2019_Jun_13_1506_888,True,2019_Jun_13_1506,2IFCnew,2,KLRU16,
2IFCnew,69,0,69,0,0.300113399979,2,Yes,9.3,-1,Correct Rejection,0.53397089988,False,True,stimulusKLRU16_2IFCnew_2019_Jun_13_1506_889,stimulusKLRU16_2IFCnew_2019_Jun_13_1506_890,True,2019_Jun_13_1506,2IFCnew,2,KLRU16,
2IFCnew,70,0,70,0,0.800201999955,4,Yes,7.4,-1,Miss,0.702800999861,True,False,stimulusKLRU16_2IFCnew_2019_Jun_13_1506_891,stimulusKLRU16_2IFCnew_2019_Jun_13_1506_892,True,2019_Jun_13_1506,2IFCnew,2,KLRU16,
2IFCnew,71,0,71,0,0.466850099852,2,Yes,9.3,-1,Correct Rejection,0.500029499875,False,True,stimulusKLRU16_2IFCnew_2019_Jun_13_1506_893,stimulusKLRU16_2IFCnew_2019_Jun_13_1506_894,True,2019_Jun_13_1506,2IFCnew,2,KLRU16,
2IFCnew,72,0,72,0,0.367612699978,1,No,11.6,-1,Hit,0.467643700074,True,False,stimulusKLRU16_2IFCnew_2019_Jun_13_1506_895,stimulusKLRU16_2IFCnew_2019_Jun_13_1506_896,True,2019_Jun_13_1506,2IFCnew,2,KLRU16,
2IFCnew,73,0,73,0,0.498947900021,2,Yes,8.4,-1,Correct Rejection,0.600506099872,False,True,stimulusKLRU16_2IFCnew_2019_Jun_13_1506_897,stimulusKLRU16_2IFCnew_2019_Jun_13_1506_898,True,2019_Jun_13_1506,2IFCnew,2,KLRU16,
2IFCnew,74,0,74,0,0.600645700004,5,Yes,10.4,-1,False Alarm,0.53049080004,False,True,stimulusKLRU16_2IFCnew_2019_Jun_13_1506_899,stimulusKLRU16_2IFCnew_2019_Jun_13_1506_900,True,2019_Jun_13_1506,2IFCnew,2,KLRU16,
2IFCnew,0,0,0,0,0.768251500092,4,Yes,10.4,-1,Miss,0.534325500019,True,False,stimulusKLRU16_2IFCnew_2019_Jun_13_1506_901,stimulusKLRU16_2IFCnew_2019_Jun_13_1506_902,True,2019_Jun_13_1506,2IFCnew,2,KLRU16,
2IFCnew,1,0,1,0,0.133946700022,1,No,11.6,-1,Hit,0.500563000096,True,False,stimulusKLRU16_2IFCnew_2019_Jun_13_1506_903,stimulusKLRU16_2IFCnew_2019_Jun_13_1506_904,True,2019_Jun_13_1506,2IFCnew,2,KLRU16,
2IFCnew,2,0,2,0,0.40098679997,2,Yes,11.6,-1,Correct Rejection,0.533725500107,False,True,stimulusKLRU16_2IFCnew_2019_Jun_13_1506_905,stimulusKLRU16_2IFCnew_2019_Jun_13_1506_906,True,2019_Jun_13_1506,2IFCnew,2,KLRU16,
2IFCnew,3,0,3,0,0.467136299936,1,No,5.1,-1,Hit,0.801804300165,True,False,stimulusKLRU16_2IFCnew_2019_Jun_13_1506_907,stimulusKLRU16_2IFCnew_2019_Jun_13_1506_908,True,2019_Jun_13_1506,2IFCnew,2,KLRU16,
2IFCnew,4,0,4,0,0.434801499825,1,No,3.5,-1,Hit,0.633099799976,True,False,stimulusKLRU16_2IFCnew_2019_Jun_13_1506_909,stimulusKLRU16_2IFCnew_2019_Jun_13_1506_910,True,2019_Jun_13_1506,2IFCnew,2,KLRU16,
2IFCnew,5,0,5,0,0.833421099931,7,Yes,5.1,-1,Hit,0.59987340006,True,False,stimulusKLRU16_2IFCnew_2019_Jun_13_1506_911,stimulusKLRU16_2IFCnew_2019_Jun_13_1506_912,True,2019_Jun_13_1506,2IFCnew,2,KLRU16,
2IFCnew,6,0,6,0,0.700658599846,2,Yes,6.4,-1,Correct Rejection,0.634833700024,False,True,stimulusKLRU16_2IFCnew_2019_Jun_13_1506_913,stimulusKLRU16_2IFCnew_2019_Jun_13_1506_914,True,2019_Jun_13_1506,2IFCnew,2,KLRU16,
2IFCnew,7,0,7,0,0.532683399972,2,Yes,5.1,-1,Correct Rejection,0.666659199866,False,True,stimulusKLRU16_2IFCnew_2019_Jun_13_1506_915,stimulusKLRU16_2IFCnew_2019_Jun_13_1506_916,True,2019_Jun_13_1506,2IFCnew,2,KLRU16,
2IFCnew,8,0,8,0,0.201205699937,1,No,11.6,-1,Hit,0.534093399998,True,False,stimulusKLRU16_2IFCnew_2019_Jun_13_1506_917,stimulusKLRU16_2IFCnew_2019_Jun_13_1506_918,True,2019_Jun_13_1506,2IFCnew,2,KLRU16,
2IFCnew,9,0,9,0,0.433592300164,1,No,3.5,-1,Hit,0.633908000076,True,False,stimulusKLRU16_2IFCnew_2019_Jun_13_1506_919,stimulusKLRU16_2IFCnew_2019_Jun_13_1506_920,True,2019_Jun_13_1506,2IFCnew,2,KLRU16,
2IFCnew,10,0,10,0,0.365763399983,2,Yes,9.3,-1,Correct Rejection,0.535729900002,False,True,stimulusKLRU16_2IFCnew_2019_Jun_13_1506_921,stimulusKLRU16_2IFCnew_2019_Jun_13_1506_922,True,2019_Jun_13_1506,2IFCnew,2,KLRU16,
2IFCnew,11,0,11,0,0.700764900073,5,Yes,11.6,-1,False Alarm,0.568947899854,False,True,stimulusKLRU16_2IFCnew_2019_Jun_13_1506_923,stimulusKLRU16_2IFCnew_2019_Jun_13_1506_924,True,2019_Jun_13_1506,2IFCnew,2,KLRU16,
2IFCnew,12,0,12,0,0.23364380002,1,No,9.3,-1,Hit,0.567060300149,True,False,stimulusKLRU16_2IFCnew_2019_Jun_13_1506_925,stimulusKLRU16_2IFCnew_2019_Jun_13_1506_926,True,2019_Jun_13_1506,2IFCnew,2,KLRU16,
2IFCnew,13,0,13,0,0.500462100143,2,Yes,7.4,-1,Correct Rejection,0.63470569998,False,True,stimulusKLRU16_2IFCnew_2019_Jun_13_1506_927,stimulusKLRU16_2IFCnew_2019_Jun_13_1506_928,True,2019_Jun_13_1506,2IFCnew,2,KLRU16,
2IFCnew,14,0,14,0,0.534181399969,2,Yes,6.4,-1,Correct Rejection,0.634338299977,False,True,stimulusKLRU16_2IFCnew_2019_Jun_13_1506_929,stimulusKLRU16_2IFCnew_2019_Jun_13_1506_930,True,2019_Jun_13_1506,2IFCnew,2,KLRU16,
2IFCnew,15,0,15,0,0.267958299955,1,No,11.6,-1,Hit,0.467774299905,True,False,stimulusKLRU16_2IFCnew_2019_Jun_13_1506_931,stimulusKLRU16_2IFCnew_2019_Jun_13_1506_932,True,2019_Jun_13_1506,2IFCnew,2,KLRU16,
2IFCnew,16,0,16,0,0.433768499875,2,Yes,5.1,-1,Correct Rejection,0.566289100097,False,True,stimulusKLRU16_2IFCnew_2019_Jun_13_1506_933,stimulusKLRU16_2IFCnew_2019_Jun_13_1506_934,True,2019_Jun_13_1506,2IFCnew,2,KLRU16,
2IFCnew,17,0,17,0,0.700705799973,5,Yes,8.4,-1,False Alarm,0.533428200055,False,True,stimulusKLRU16_2IFCnew_2019_Jun_13_1506_935,stimulusKLRU16_2IFCnew_2019_Jun_13_1506_936,True,2019_Jun_13_1506,2IFCnew,2,KLRU16,
2IFCnew,18,0,18,0,0.76788849989,6,No,3.5,-1,Miss,0.59976669983,True,False,stimulusKLRU16_2IFCnew_2019_Jun_13_1506_937,stimulusKLRU16_2IFCnew_2019_Jun_13_1506_938,True,2019_Jun_13_1506,2IFCnew,2,KLRU16,
2IFCnew,19,0,19,0,0.567022999981,2,Yes,10.4,-1,Correct Rejection,0.867531399941,False,True,stimulusKLRU16_2IFCnew_2019_Jun_13_1506_939,stimulusKLRU16_2IFCnew_2019_Jun_13_1506_940,True,2019_Jun_13_1506,2IFCnew,2,KLRU16,
2IFCnew,20,0,20,0,0.801051100018,8,No,5.1,-1,Correct Rejection,0.6674587999,False,True,stimulusKLRU16_2IFCnew_2019_Jun_13_1506_941,stimulusKLRU16_2IFCnew_2019_Jun_13_1506_942,True,2019_Jun_13_1506,2IFCnew,2,KLRU16,
2IFCnew,21,0,21,0,0.466561000096,1,No,5.1,-1,Hit,0.667617100058,True,False,stimulusKLRU16_2IFCnew_2019_Jun_13_1506_943,stimulusKLRU16_2IFCnew_2019_Jun_13_1506_944,True,2019_Jun_13_1506,2IFCnew,2,KLRU16,
2IFCnew,22,0,22,0,0.399573700037,1,No,10.4,-1,Hit,0.467369699851,True,False,stimulusKLRU16_2IFCnew_2019_Jun_13_1506_945,stimulusKLRU16_2IFCnew_2019_Jun_13_1506_946,True,2019_Jun_13_1506,2IFCnew,2,KLRU16,
2IFCnew,23,0,23,0,0.367008500034,1,No,9.3,-1,Hit,0.500507500023,True,False,stimulusKLRU16_2IFCnew_2019_Jun_13_1506_947,stimulusKLRU16_2IFCnew_2019_Jun_13_1506_948,True,2019_Jun_13_1506,2IFCnew,2,KLRU16,
2IFCnew,24,0,24,0,0.299213899998,1,No,10.4,-1,Hit,0.50139390002,True,False,stimulusKLRU16_2IFCnew_2019_Jun_13_1506_949,stimulusKLRU16_2IFCnew_2019_Jun_13_1506_950,True,2019_Jun_13_1506,2IFCnew,2,KLRU16,
