Task,trials.thisRepN,trials.thisTrialN,trials.thisN,trials.thisIndex,signal_intensity,constant Value,response,time_response,signal_on_stimuluspos1,signal_on_stimuluspos2,stimulus_name_pos1,stimulus_name_pos2,random_intensity,date,expName,session,participant,
Yes-No Task,0,0,0,0,6.6,-1,Miss,0.500390700006,True,-1,stimulus_MIJA04_Yes-No Task_2019_Jun_18_1400_1,-1,True,2019_Jun_18_1400,Yes-No Task,3,MIJA04,
Yes-No Task,1,0,1,0,1,-1,Hit,0.56717200001,True,-1,stimulus_MIJA04_Yes-No Task_2019_Jun_18_1400_2,-1,True,2019_Jun_18_1400,Yes-No Task,3,MIJA04,
Yes-No Task,2,0,2,0,1.7,-1,False Alarm,0.436262400006,False,-1,stimulus_MIJA04_Yes-No Task_2019_Jun_18_1400_3,-1,True,2019_Jun_18_1400,Yes-No Task,3,MIJA04,
Yes-No Task,3,0,3,0,3.3,-1,Hit,0.371161799994,True,-1,stimulus_MIJA04_Yes-No Task_2019_Jun_18_1400_4,-1,True,2019_Jun_18_1400,Yes-No Task,3,MIJA04,
Yes-No Task,4,0,4,0,9.6,-1,False Alarm,0.467014100053,False,-1,stimulus_MIJA04_Yes-No Task_2019_Jun_18_1400_5,-1,True,2019_Jun_18_1400,Yes-No Task,3,MIJA04,
Yes-No Task,5,0,5,0,8,-1,False Alarm,0.567395299964,False,-1,stimulus_MIJA04_Yes-No Task_2019_Jun_18_1400_6,-1,True,2019_Jun_18_1400,Yes-No Task,3,MIJA04,
Yes-No Task,6,0,6,0,1.7,-1,Correct Rejection,0.500587499992,False,-1,stimulus_MIJA04_Yes-No Task_2019_Jun_18_1400_7,-1,True,2019_Jun_18_1400,Yes-No Task,3,MIJA04,
Yes-No Task,7,0,7,0,11.5,-1,Correct Rejection,0.466861299996,False,-1,stimulus_MIJA04_Yes-No Task_2019_Jun_18_1400_8,-1,True,2019_Jun_18_1400,Yes-No Task,3,MIJA04,
Yes-No Task,8,0,8,0,1,-1,Miss,0.464955299976,True,-1,stimulus_MIJA04_Yes-No Task_2019_Jun_18_1400_9,-1,True,2019_Jun_18_1400,Yes-No Task,3,MIJA04,
Yes-No Task,9,0,9,0,1.7,-1,Hit,0.533409400028,True,-1,stimulus_MIJA04_Yes-No Task_2019_Jun_18_1400_10,-1,True,2019_Jun_18_1400,Yes-No Task,3,MIJA04,
Yes-No Task,10,0,10,0,1,-1,False Alarm,0.466946400004,False,-1,stimulus_MIJA04_Yes-No Task_2019_Jun_18_1400_11,-1,True,2019_Jun_18_1400,Yes-No Task,3,MIJA04,
Yes-No Task,11,0,11,0,9.6,-1,False Alarm,0.467070000013,False,-1,stimulus_MIJA04_Yes-No Task_2019_Jun_18_1400_12,-1,True,2019_Jun_18_1400,Yes-No Task,3,MIJA04,
Yes-No Task,12,0,12,0,11.5,-1,False Alarm,0.467188299983,False,-1,stimulus_MIJA04_Yes-No Task_2019_Jun_18_1400_13,-1,True,2019_Jun_18_1400,Yes-No Task,3,MIJA04,
Yes-No Task,13,0,13,0,11.5,-1,Hit,0.434054800018,True,-1,stimulus_MIJA04_Yes-No Task_2019_Jun_18_1400_14,-1,True,2019_Jun_18_1400,Yes-No Task,3,MIJA04,
Yes-No Task,14,0,14,0,11.5,-1,Hit,0.4009601,True,-1,stimulus_MIJA04_Yes-No Task_2019_Jun_18_1400_15,-1,True,2019_Jun_18_1400,Yes-No Task,3,MIJA04,
Yes-No Task,15,0,15,0,4.9,-1,Hit,0.433849000023,True,-1,stimulus_MIJA04_Yes-No Task_2019_Jun_18_1400_16,-1,True,2019_Jun_18_1400,Yes-No Task,3,MIJA04,
Yes-No Task,16,0,16,0,4.9,-1,Hit,0.435018000018,True,-1,stimulus_MIJA04_Yes-No Task_2019_Jun_18_1400_17,-1,True,2019_Jun_18_1400,Yes-No Task,3,MIJA04,
Yes-No Task,17,0,17,0,1.7,-1,Hit,0.400685500004,True,-1,stimulus_MIJA04_Yes-No Task_2019_Jun_18_1400_18,-1,True,2019_Jun_18_1400,Yes-No Task,3,MIJA04,
Yes-No Task,18,0,18,0,1.7,-1,Correct Rejection,0.567295299959,False,-1,stimulus_MIJA04_Yes-No Task_2019_Jun_18_1400_19,-1,True,2019_Jun_18_1400,Yes-No Task,3,MIJA04,
Yes-No Task,19,0,19,0,11.5,-1,Hit,0.46752450004,True,-1,stimulus_MIJA04_Yes-No Task_2019_Jun_18_1400_20,-1,True,2019_Jun_18_1400,Yes-No Task,3,MIJA04,
Yes-No Task,20,0,20,0,9.6,-1,False Alarm,0.366874600004,False,-1,stimulus_MIJA04_Yes-No Task_2019_Jun_18_1400_21,-1,True,2019_Jun_18_1400,Yes-No Task,3,MIJA04,
Yes-No Task,21,0,21,0,1.7,-1,False Alarm,0.532235099992,False,-1,stimulus_MIJA04_Yes-No Task_2019_Jun_18_1400_22,-1,True,2019_Jun_18_1400,Yes-No Task,3,MIJA04,
Yes-No Task,22,0,22,0,1,-1,Miss,0.668393600034,True,-1,stimulus_MIJA04_Yes-No Task_2019_Jun_18_1400_23,-1,True,2019_Jun_18_1400,Yes-No Task,3,MIJA04,
Yes-No Task,23,0,23,0,11.5,-1,False Alarm,0.432166499959,False,-1,stimulus_MIJA04_Yes-No Task_2019_Jun_18_1400_24,-1,True,2019_Jun_18_1400,Yes-No Task,3,MIJA04,
Yes-No Task,24,0,24,0,1,-1,Hit,0.467155699967,True,-1,stimulus_MIJA04_Yes-No Task_2019_Jun_18_1400_25,-1,True,2019_Jun_18_1400,Yes-No Task,3,MIJA04,
Yes-No Task,25,0,25,0,4.9,-1,Hit,0.400358400017,True,-1,stimulus_MIJA04_Yes-No Task_2019_Jun_18_1400_26,-1,True,2019_Jun_18_1400,Yes-No Task,3,MIJA04,
Yes-No Task,26,0,26,0,1.7,-1,Miss,0.433497099963,True,-1,stimulus_MIJA04_Yes-No Task_2019_Jun_18_1400_27,-1,True,2019_Jun_18_1400,Yes-No Task,3,MIJA04,
Yes-No Task,27,0,27,0,4.9,-1,Hit,0.367759599991,True,-1,stimulus_MIJA04_Yes-No Task_2019_Jun_18_1400_28,-1,True,2019_Jun_18_1400,Yes-No Task,3,MIJA04,
Yes-No Task,28,0,28,0,3.3,-1,Hit,0.433946999954,True,-1,stimulus_MIJA04_Yes-No Task_2019_Jun_18_1400_29,-1,True,2019_Jun_18_1400,Yes-No Task,3,MIJA04,
Yes-No Task,29,0,29,0,6.6,-1,False Alarm,0.332137899997,False,-1,stimulus_MIJA04_Yes-No Task_2019_Jun_18_1400_30,-1,True,2019_Jun_18_1400,Yes-No Task,3,MIJA04,
Yes-No Task,30,0,30,0,9.6,-1,False Alarm,0.333913600014,False,-1,stimulus_MIJA04_Yes-No Task_2019_Jun_18_1400_31,-1,True,2019_Jun_18_1400,Yes-No Task,3,MIJA04,
Yes-No Task,31,0,31,0,6.6,-1,Correct Rejection,0.400641100015,False,-1,stimulus_MIJA04_Yes-No Task_2019_Jun_18_1400_32,-1,True,2019_Jun_18_1400,Yes-No Task,3,MIJA04,
Yes-No Task,32,0,32,0,4.9,-1,Correct Rejection,0.400159299956,False,-1,stimulus_MIJA04_Yes-No Task_2019_Jun_18_1400_33,-1,True,2019_Jun_18_1400,Yes-No Task,3,MIJA04,
Yes-No Task,33,0,33,0,4.9,-1,Hit,0.435716099979,True,-1,stimulus_MIJA04_Yes-No Task_2019_Jun_18_1400_34,-1,True,2019_Jun_18_1400,Yes-No Task,3,MIJA04,
Yes-No Task,34,0,34,0,1,-1,False Alarm,0.432759799995,False,-1,stimulus_MIJA04_Yes-No Task_2019_Jun_18_1400_35,-1,True,2019_Jun_18_1400,Yes-No Task,3,MIJA04,
Yes-No Task,35,0,35,0,3.3,-1,Hit,0.434130500013,True,-1,stimulus_MIJA04_Yes-No Task_2019_Jun_18_1400_36,-1,True,2019_Jun_18_1400,Yes-No Task,3,MIJA04,
Yes-No Task,36,0,36,0,8,-1,False Alarm,0.401836499979,False,-1,stimulus_MIJA04_Yes-No Task_2019_Jun_18_1400_37,-1,True,2019_Jun_18_1400,Yes-No Task,3,MIJA04,
Yes-No Task,37,0,37,0,6.6,-1,Hit,0.400226400001,True,-1,stimulus_MIJA04_Yes-No Task_2019_Jun_18_1400_38,-1,True,2019_Jun_18_1400,Yes-No Task,3,MIJA04,
Yes-No Task,38,0,38,0,8,-1,Hit,0.467448000039,True,-1,stimulus_MIJA04_Yes-No Task_2019_Jun_18_1400_39,-1,True,2019_Jun_18_1400,Yes-No Task,3,MIJA04,
Yes-No Task,39,0,39,0,1,-1,Hit,0.400386900001,True,-1,stimulus_MIJA04_Yes-No Task_2019_Jun_18_1400_40,-1,True,2019_Jun_18_1400,Yes-No Task,3,MIJA04,
Yes-No Task,40,0,40,0,6.6,-1,Correct Rejection,0.300341500028,False,-1,stimulus_MIJA04_Yes-No Task_2019_Jun_18_1400_41,-1,True,2019_Jun_18_1400,Yes-No Task,3,MIJA04,
Yes-No Task,41,0,41,0,11.5,-1,Correct Rejection,0.30006379995,False,-1,stimulus_MIJA04_Yes-No Task_2019_Jun_18_1400_42,-1,True,2019_Jun_18_1400,Yes-No Task,3,MIJA04,
Yes-No Task,42,0,42,0,4.9,-1,Correct Rejection,0.366776700015,False,-1,stimulus_MIJA04_Yes-No Task_2019_Jun_18_1400_43,-1,True,2019_Jun_18_1400,Yes-No Task,3,MIJA04,
Yes-No Task,43,0,43,0,9.6,-1,Correct Rejection,0.300282300042,False,-1,stimulus_MIJA04_Yes-No Task_2019_Jun_18_1400_44,-1,True,2019_Jun_18_1400,Yes-No Task,3,MIJA04,
Yes-No Task,44,0,44,0,8,-1,Miss,0.300067400036,True,-1,stimulus_MIJA04_Yes-No Task_2019_Jun_18_1400_45,-1,True,2019_Jun_18_1400,Yes-No Task,3,MIJA04,
Yes-No Task,45,0,45,0,4.9,-1,Hit,0.5339638,True,-1,stimulus_MIJA04_Yes-No Task_2019_Jun_18_1400_46,-1,True,2019_Jun_18_1400,Yes-No Task,3,MIJA04,
Yes-No Task,46,0,46,0,3.3,-1,False Alarm,0.3331626,False,-1,stimulus_MIJA04_Yes-No Task_2019_Jun_18_1400_47,-1,True,2019_Jun_18_1400,Yes-No Task,3,MIJA04,
Yes-No Task,47,0,47,0,1,-1,Correct Rejection,0.634071699984,False,-1,stimulus_MIJA04_Yes-No Task_2019_Jun_18_1400_48,-1,True,2019_Jun_18_1400,Yes-No Task,3,MIJA04,
Yes-No Task,48,0,48,0,8,-1,Hit,0.49968020001,True,-1,stimulus_MIJA04_Yes-No Task_2019_Jun_18_1400_49,-1,True,2019_Jun_18_1400,Yes-No Task,3,MIJA04,
Yes-No Task,49,0,49,0,6.6,-1,False Alarm,0.466241799993,False,-1,stimulus_MIJA04_Yes-No Task_2019_Jun_18_1400_50,-1,True,2019_Jun_18_1400,Yes-No Task,3,MIJA04,
Yes-No Task,50,0,50,0,4.9,-1,Hit,0.568417500006,True,-1,stimulus_MIJA04_Yes-No Task_2019_Jun_18_1400_51,-1,True,2019_Jun_18_1400,Yes-No Task,3,MIJA04,
Yes-No Task,51,0,51,0,1.7,-1,Miss,0.46700080001,True,-1,stimulus_MIJA04_Yes-No Task_2019_Jun_18_1400_52,-1,True,2019_Jun_18_1400,Yes-No Task,3,MIJA04,
Yes-No Task,52,0,52,0,1,-1,Hit,0.667335700011,True,-1,stimulus_MIJA04_Yes-No Task_2019_Jun_18_1400_53,-1,True,2019_Jun_18_1400,Yes-No Task,3,MIJA04,
Yes-No Task,53,0,53,0,11.5,-1,Hit,0.500233299972,True,-1,stimulus_MIJA04_Yes-No Task_2019_Jun_18_1400_54,-1,True,2019_Jun_18_1400,Yes-No Task,3,MIJA04,
Yes-No Task,54,0,54,0,8,-1,Correct Rejection,0.633517600014,False,-1,stimulus_MIJA04_Yes-No Task_2019_Jun_18_1400_55,-1,True,2019_Jun_18_1400,Yes-No Task,3,MIJA04,
Yes-No Task,55,0,55,0,8,-1,Hit,0.300728300004,True,-1,stimulus_MIJA04_Yes-No Task_2019_Jun_18_1400_56,-1,True,2019_Jun_18_1400,Yes-No Task,3,MIJA04,
Yes-No Task,56,0,56,0,9.6,-1,Correct Rejection,0.567094900005,False,-1,stimulus_MIJA04_Yes-No Task_2019_Jun_18_1400_57,-1,True,2019_Jun_18_1400,Yes-No Task,3,MIJA04,
Yes-No Task,57,0,57,0,6.6,-1,Hit,0.301243899972,True,-1,stimulus_MIJA04_Yes-No Task_2019_Jun_18_1400_58,-1,True,2019_Jun_18_1400,Yes-No Task,3,MIJA04,
Yes-No Task,58,0,58,0,9.6,-1,Correct Rejection,0.400587200013,False,-1,stimulus_MIJA04_Yes-No Task_2019_Jun_18_1400_59,-1,True,2019_Jun_18_1400,Yes-No Task,3,MIJA04,
Yes-No Task,59,0,59,0,3.3,-1,Hit,0.400668999995,True,-1,stimulus_MIJA04_Yes-No Task_2019_Jun_18_1400_60,-1,True,2019_Jun_18_1400,Yes-No Task,3,MIJA04,
Yes-No Task,60,0,60,0,1.7,-1,Miss,0.467564999999,True,-1,stimulus_MIJA04_Yes-No Task_2019_Jun_18_1400_61,-1,True,2019_Jun_18_1400,Yes-No Task,3,MIJA04,
Yes-No Task,61,0,61,0,3.3,-1,Hit,0.400256499997,True,-1,stimulus_MIJA04_Yes-No Task_2019_Jun_18_1400_62,-1,True,2019_Jun_18_1400,Yes-No Task,3,MIJA04,
Yes-No Task,62,0,62,0,1.7,-1,Correct Rejection,0.433843000035,False,-1,stimulus_MIJA04_Yes-No Task_2019_Jun_18_1400_63,-1,True,2019_Jun_18_1400,Yes-No Task,3,MIJA04,
Yes-No Task,63,0,63,0,3.3,-1,Hit,0.432131399983,True,-1,stimulus_MIJA04_Yes-No Task_2019_Jun_18_1400_64,-1,True,2019_Jun_18_1400,Yes-No Task,3,MIJA04,
Yes-No Task,64,0,64,0,3.3,-1,Hit,0.534056900011,True,-1,stimulus_MIJA04_Yes-No Task_2019_Jun_18_1400_65,-1,True,2019_Jun_18_1400,Yes-No Task,3,MIJA04,
Yes-No Task,65,0,65,0,9.6,-1,Hit,0.400499000039,True,-1,stimulus_MIJA04_Yes-No Task_2019_Jun_18_1400_66,-1,True,2019_Jun_18_1400,Yes-No Task,3,MIJA04,
Yes-No Task,66,0,66,0,1,-1,Correct Rejection,0.467112099985,False,-1,stimulus_MIJA04_Yes-No Task_2019_Jun_18_1400_67,-1,True,2019_Jun_18_1400,Yes-No Task,3,MIJA04,
Yes-No Task,67,0,67,0,9.6,-1,Correct Rejection,0.368327900011,False,-1,stimulus_MIJA04_Yes-No Task_2019_Jun_18_1400_68,-1,True,2019_Jun_18_1400,Yes-No Task,3,MIJA04,
Yes-No Task,68,0,68,0,3.3,-1,Hit,0.334594600019,True,-1,stimulus_MIJA04_Yes-No Task_2019_Jun_18_1400_69,-1,True,2019_Jun_18_1400,Yes-No Task,3,MIJA04,
Yes-No Task,69,0,69,0,9.6,-1,Correct Rejection,0.432823100011,False,-1,stimulus_MIJA04_Yes-No Task_2019_Jun_18_1400_70,-1,True,2019_Jun_18_1400,Yes-No Task,3,MIJA04,
Yes-No Task,70,0,70,0,4.9,-1,Correct Rejection,0.367462099995,False,-1,stimulus_MIJA04_Yes-No Task_2019_Jun_18_1400_71,-1,True,2019_Jun_18_1400,Yes-No Task,3,MIJA04,
Yes-No Task,71,0,71,0,1,-1,Correct Rejection,0.300345800002,False,-1,stimulus_MIJA04_Yes-No Task_2019_Jun_18_1400_72,-1,True,2019_Jun_18_1400,Yes-No Task,3,MIJA04,
Yes-No Task,72,0,72,0,8,-1,Hit,0.399321200035,True,-1,stimulus_MIJA04_Yes-No Task_2019_Jun_18_1400_73,-1,True,2019_Jun_18_1400,Yes-No Task,3,MIJA04,
Yes-No Task,73,0,73,0,1,-1,Miss,0.402952100034,True,-1,stimulus_MIJA04_Yes-No Task_2019_Jun_18_1400_74,-1,True,2019_Jun_18_1400,Yes-No Task,3,MIJA04,
Yes-No Task,74,0,74,0,3.3,-1,Miss,0.300773399998,True,-1,stimulus_MIJA04_Yes-No Task_2019_Jun_18_1400_75,-1,True,2019_Jun_18_1400,Yes-No Task,3,MIJA04,
Yes-No Task,0,0,0,0,6.6,-1,Miss,0.53412169998,True,-1,stimulus_MIJA04_Yes-No Task_2019_Jun_18_1400_76,-1,True,2019_Jun_18_1400,Yes-No Task,3,MIJA04,
Yes-No Task,1,0,1,0,6.6,-1,Correct Rejection,0.567474699987,False,-1,stimulus_MIJA04_Yes-No Task_2019_Jun_18_1400_77,-1,True,2019_Jun_18_1400,Yes-No Task,3,MIJA04,
Yes-No Task,2,0,2,0,4.9,-1,Hit,0.368343900016,True,-1,stimulus_MIJA04_Yes-No Task_2019_Jun_18_1400_78,-1,True,2019_Jun_18_1400,Yes-No Task,3,MIJA04,
Yes-No Task,3,0,3,0,11.5,-1,False Alarm,0.434233499982,False,-1,stimulus_MIJA04_Yes-No Task_2019_Jun_18_1400_79,-1,True,2019_Jun_18_1400,Yes-No Task,3,MIJA04,
Yes-No Task,4,0,4,0,1.7,-1,False Alarm,0.468409300025,False,-1,stimulus_MIJA04_Yes-No Task_2019_Jun_18_1400_80,-1,True,2019_Jun_18_1400,Yes-No Task,3,MIJA04,
Yes-No Task,5,0,5,0,1,-1,Miss,0.501790900016,True,-1,stimulus_MIJA04_Yes-No Task_2019_Jun_18_1400_81,-1,True,2019_Jun_18_1400,Yes-No Task,3,MIJA04,
Yes-No Task,6,0,6,0,1,-1,Hit,0.332942600013,True,-1,stimulus_MIJA04_Yes-No Task_2019_Jun_18_1400_82,-1,True,2019_Jun_18_1400,Yes-No Task,3,MIJA04,
Yes-No Task,7,0,7,0,3.3,-1,Correct Rejection,0.467215199955,False,-1,stimulus_MIJA04_Yes-No Task_2019_Jun_18_1400_83,-1,True,2019_Jun_18_1400,Yes-No Task,3,MIJA04,
Yes-No Task,8,0,8,0,1.7,-1,Correct Rejection,0.567486400018,False,-1,stimulus_MIJA04_Yes-No Task_2019_Jun_18_1400_84,-1,True,2019_Jun_18_1400,Yes-No Task,3,MIJA04,
Yes-No Task,9,0,9,0,3.3,-1,Hit,0.333779200038,True,-1,stimulus_MIJA04_Yes-No Task_2019_Jun_18_1400_85,-1,True,2019_Jun_18_1400,Yes-No Task,3,MIJA04,
Yes-No Task,10,0,10,0,11.5,-1,False Alarm,0.467207500013,False,-1,stimulus_MIJA04_Yes-No Task_2019_Jun_18_1400_86,-1,True,2019_Jun_18_1400,Yes-No Task,3,MIJA04,
Yes-No Task,11,0,11,0,9.6,-1,Hit,0.333920800011,True,-1,stimulus_MIJA04_Yes-No Task_2019_Jun_18_1400_87,-1,True,2019_Jun_18_1400,Yes-No Task,3,MIJA04,
Yes-No Task,12,0,12,0,4.9,-1,Correct Rejection,0.400047500036,False,-1,stimulus_MIJA04_Yes-No Task_2019_Jun_18_1400_88,-1,True,2019_Jun_18_1400,Yes-No Task,3,MIJA04,
Yes-No Task,13,0,13,0,11.5,-1,Hit,0.300304600038,True,-1,stimulus_MIJA04_Yes-No Task_2019_Jun_18_1400_89,-1,True,2019_Jun_18_1400,Yes-No Task,3,MIJA04,
Yes-No Task,14,0,14,0,1.7,-1,Correct Rejection,0.402249900042,False,-1,stimulus_MIJA04_Yes-No Task_2019_Jun_18_1400_90,-1,True,2019_Jun_18_1400,Yes-No Task,3,MIJA04,
Yes-No Task,15,0,15,0,6.6,-1,Hit,0.233708699991,True,-1,stimulus_MIJA04_Yes-No Task_2019_Jun_18_1400_91,-1,True,2019_Jun_18_1400,Yes-No Task,3,MIJA04,
Yes-No Task,16,0,16,0,8,-1,Correct Rejection,0.467634600005,False,-1,stimulus_MIJA04_Yes-No Task_2019_Jun_18_1400_92,-1,True,2019_Jun_18_1400,Yes-No Task,3,MIJA04,
Yes-No Task,17,0,17,0,9.6,-1,Hit,0.433853299997,True,-1,stimulus_MIJA04_Yes-No Task_2019_Jun_18_1400_93,-1,True,2019_Jun_18_1400,Yes-No Task,3,MIJA04,
Yes-No Task,18,0,18,0,8,-1,Hit,0.467004099977,True,-1,stimulus_MIJA04_Yes-No Task_2019_Jun_18_1400_94,-1,True,2019_Jun_18_1400,Yes-No Task,3,MIJA04,
Yes-No Task,19,0,19,0,1.7,-1,Correct Rejection,0.397971600003,False,-1,stimulus_MIJA04_Yes-No Task_2019_Jun_18_1400_95,-1,True,2019_Jun_18_1400,Yes-No Task,3,MIJA04,
Yes-No Task,20,0,20,0,1,-1,False Alarm,0.400289800018,False,-1,stimulus_MIJA04_Yes-No Task_2019_Jun_18_1400_96,-1,True,2019_Jun_18_1400,Yes-No Task,3,MIJA04,
Yes-No Task,21,0,21,0,6.6,-1,Correct Rejection,0.534355600015,False,-1,stimulus_MIJA04_Yes-No Task_2019_Jun_18_1400_97,-1,True,2019_Jun_18_1400,Yes-No Task,3,MIJA04,
Yes-No Task,22,0,22,0,6.6,-1,Correct Rejection,0.502311700024,False,-1,stimulus_MIJA04_Yes-No Task_2019_Jun_18_1400_98,-1,True,2019_Jun_18_1400,Yes-No Task,3,MIJA04,
Yes-No Task,23,0,23,0,3.3,-1,Hit,0.601067500014,True,-1,stimulus_MIJA04_Yes-No Task_2019_Jun_18_1400_99,-1,True,2019_Jun_18_1400,Yes-No Task,3,MIJA04,
Yes-No Task,24,0,24,0,9.6,-1,Correct Rejection,0.500354800024,False,-1,stimulus_MIJA04_Yes-No Task_2019_Jun_18_1400_100,-1,True,2019_Jun_18_1400,Yes-No Task,3,MIJA04,
Yes-No Task,25,0,25,0,1.7,-1,Correct Rejection,0.433581899968,False,-1,stimulus_MIJA04_Yes-No Task_2019_Jun_18_1400_101,-1,True,2019_Jun_18_1400,Yes-No Task,3,MIJA04,
Yes-No Task,26,0,26,0,3.3,-1,Miss,0.43333140004,True,-1,stimulus_MIJA04_Yes-No Task_2019_Jun_18_1400_102,-1,True,2019_Jun_18_1400,Yes-No Task,3,MIJA04,
Yes-No Task,27,0,27,0,11.5,-1,Correct Rejection,0.367808400013,False,-1,stimulus_MIJA04_Yes-No Task_2019_Jun_18_1400_103,-1,True,2019_Jun_18_1400,Yes-No Task,3,MIJA04,
Yes-No Task,28,0,28,0,8,-1,False Alarm,0.265990899992,False,-1,stimulus_MIJA04_Yes-No Task_2019_Jun_18_1400_104,-1,True,2019_Jun_18_1400,Yes-No Task,3,MIJA04,
Yes-No Task,29,0,29,0,1,-1,Miss,0.467491400021,True,-1,stimulus_MIJA04_Yes-No Task_2019_Jun_18_1400_105,-1,True,2019_Jun_18_1400,Yes-No Task,3,MIJA04,
Yes-No Task,30,0,30,0,3.3,-1,Hit,0.500198199996,True,-1,stimulus_MIJA04_Yes-No Task_2019_Jun_18_1400_106,-1,True,2019_Jun_18_1400,Yes-No Task,3,MIJA04,
Yes-No Task,31,0,31,0,8,-1,Correct Rejection,0.400819200033,False,-1,stimulus_MIJA04_Yes-No Task_2019_Jun_18_1400_107,-1,True,2019_Jun_18_1400,Yes-No Task,3,MIJA04,
Yes-No Task,32,0,32,0,4.9,-1,False Alarm,0.365809099982,False,-1,stimulus_MIJA04_Yes-No Task_2019_Jun_18_1400_108,-1,True,2019_Jun_18_1400,Yes-No Task,3,MIJA04,
Yes-No Task,33,0,33,0,6.6,-1,False Alarm,0.433621600037,False,-1,stimulus_MIJA04_Yes-No Task_2019_Jun_18_1400_109,-1,True,2019_Jun_18_1400,Yes-No Task,3,MIJA04,
Yes-No Task,34,0,34,0,4.9,-1,Correct Rejection,0.402124000015,False,-1,stimulus_MIJA04_Yes-No Task_2019_Jun_18_1400_110,-1,True,2019_Jun_18_1400,Yes-No Task,3,MIJA04,
Yes-No Task,35,0,35,0,3.3,-1,Hit,0.50126530003,True,-1,stimulus_MIJA04_Yes-No Task_2019_Jun_18_1400_111,-1,True,2019_Jun_18_1400,Yes-No Task,3,MIJA04,
Yes-No Task,36,0,36,0,1,-1,Correct Rejection,0.36801970005,False,-1,stimulus_MIJA04_Yes-No Task_2019_Jun_18_1400_112,-1,True,2019_Jun_18_1400,Yes-No Task,3,MIJA04,
Yes-No Task,37,0,37,0,9.6,-1,Hit,0.502182099968,True,-1,stimulus_MIJA04_Yes-No Task_2019_Jun_18_1400_113,-1,True,2019_Jun_18_1400,Yes-No Task,3,MIJA04,
Yes-No Task,38,0,38,0,11.5,-1,Correct Rejection,0.433801300009,False,-1,stimulus_MIJA04_Yes-No Task_2019_Jun_18_1400_114,-1,True,2019_Jun_18_1400,Yes-No Task,3,MIJA04,
Yes-No Task,39,0,39,0,4.9,-1,Miss,0.400518899958,True,-1,stimulus_MIJA04_Yes-No Task_2019_Jun_18_1400_115,-1,True,2019_Jun_18_1400,Yes-No Task,3,MIJA04,
Yes-No Task,40,0,40,0,9.6,-1,Correct Rejection,0.533307300007,False,-1,stimulus_MIJA04_Yes-No Task_2019_Jun_18_1400_116,-1,True,2019_Jun_18_1400,Yes-No Task,3,MIJA04,
Yes-No Task,41,0,41,0,1.7,-1,Miss,0.434387699992,True,-1,stimulus_MIJA04_Yes-No Task_2019_Jun_18_1400_117,-1,True,2019_Jun_18_1400,Yes-No Task,3,MIJA04,
Yes-No Task,42,0,42,0,6.6,-1,Correct Rejection,0.60052029998,False,-1,stimulus_MIJA04_Yes-No Task_2019_Jun_18_1400_118,-1,True,2019_Jun_18_1400,Yes-No Task,3,MIJA04,
Yes-No Task,43,0,43,0,1.7,-1,Miss,0.400045100017,True,-1,stimulus_MIJA04_Yes-No Task_2019_Jun_18_1400_119,-1,True,2019_Jun_18_1400,Yes-No Task,3,MIJA04,
Yes-No Task,44,0,44,0,4.9,-1,Hit,0.46558020002,True,-1,stimulus_MIJA04_Yes-No Task_2019_Jun_18_1400_120,-1,True,2019_Jun_18_1400,Yes-No Task,3,MIJA04,
Yes-No Task,45,0,45,0,1,-1,Miss,0.566396700044,True,-1,stimulus_MIJA04_Yes-No Task_2019_Jun_18_1400_121,-1,True,2019_Jun_18_1400,Yes-No Task,3,MIJA04,
Yes-No Task,46,0,46,0,8,-1,Correct Rejection,0.56779120001,False,-1,stimulus_MIJA04_Yes-No Task_2019_Jun_18_1400_122,-1,True,2019_Jun_18_1400,Yes-No Task,3,MIJA04,
Yes-No Task,47,0,47,0,1,-1,False Alarm,0.3014005,False,-1,stimulus_MIJA04_Yes-No Task_2019_Jun_18_1400_123,-1,True,2019_Jun_18_1400,Yes-No Task,3,MIJA04,
Yes-No Task,48,0,48,0,9.6,-1,False Alarm,0.467933599954,False,-1,stimulus_MIJA04_Yes-No Task_2019_Jun_18_1400_124,-1,True,2019_Jun_18_1400,Yes-No Task,3,MIJA04,
Yes-No Task,49,0,49,0,11.5,-1,Hit,0.567571699969,True,-1,stimulus_MIJA04_Yes-No Task_2019_Jun_18_1400_125,-1,True,2019_Jun_18_1400,Yes-No Task,3,MIJA04,
Yes-No Task,50,0,50,0,1.7,-1,Correct Rejection,0.601457300014,False,-1,stimulus_MIJA04_Yes-No Task_2019_Jun_18_1400_126,-1,True,2019_Jun_18_1400,Yes-No Task,3,MIJA04,
Yes-No Task,51,0,51,0,11.5,-1,Hit,0.433713400038,True,-1,stimulus_MIJA04_Yes-No Task_2019_Jun_18_1400_127,-1,True,2019_Jun_18_1400,Yes-No Task,3,MIJA04,
Yes-No Task,52,0,52,0,6.6,-1,Correct Rejection,0.467434099992,False,-1,stimulus_MIJA04_Yes-No Task_2019_Jun_18_1400_128,-1,True,2019_Jun_18_1400,Yes-No Task,3,MIJA04,
Yes-No Task,53,0,53,0,1,-1,Miss,0.433439200046,True,-1,stimulus_MIJA04_Yes-No Task_2019_Jun_18_1400_129,-1,True,2019_Jun_18_1400,Yes-No Task,3,MIJA04,
Yes-No Task,54,0,54,0,6.6,-1,Miss,0.465880399977,True,-1,stimulus_MIJA04_Yes-No Task_2019_Jun_18_1400_130,-1,True,2019_Jun_18_1400,Yes-No Task,3,MIJA04,
Yes-No Task,55,0,55,0,9.6,-1,Hit,0.400304999959,True,-1,stimulus_MIJA04_Yes-No Task_2019_Jun_18_1400_131,-1,True,2019_Jun_18_1400,Yes-No Task,3,MIJA04,
Yes-No Task,56,0,56,0,8,-1,Hit,0.46725039999,True,-1,stimulus_MIJA04_Yes-No Task_2019_Jun_18_1400_132,-1,True,2019_Jun_18_1400,Yes-No Task,3,MIJA04,
Yes-No Task,57,0,57,0,1.7,-1,Miss,0.533708600036,True,-1,stimulus_MIJA04_Yes-No Task_2019_Jun_18_1400_133,-1,True,2019_Jun_18_1400,Yes-No Task,3,MIJA04,
Yes-No Task,58,0,58,0,4.9,-1,Miss,0.401367300015,True,-1,stimulus_MIJA04_Yes-No Task_2019_Jun_18_1400_134,-1,True,2019_Jun_18_1400,Yes-No Task,3,MIJA04,
Yes-No Task,59,0,59,0,6.6,-1,Correct Rejection,0.500844100025,False,-1,stimulus_MIJA04_Yes-No Task_2019_Jun_18_1400_135,-1,True,2019_Jun_18_1400,Yes-No Task,3,MIJA04,
Yes-No Task,60,0,60,0,1,-1,Correct Rejection,0.500545100018,False,-1,stimulus_MIJA04_Yes-No Task_2019_Jun_18_1400_136,-1,True,2019_Jun_18_1400,Yes-No Task,3,MIJA04,
Yes-No Task,61,0,61,0,8,-1,False Alarm,0.467354299966,False,-1,stimulus_MIJA04_Yes-No Task_2019_Jun_18_1400_137,-1,True,2019_Jun_18_1400,Yes-No Task,3,MIJA04,
Yes-No Task,62,0,62,0,6.6,-1,Hit,0.467556399992,True,-1,stimulus_MIJA04_Yes-No Task_2019_Jun_18_1400_138,-1,True,2019_Jun_18_1400,Yes-No Task,3,MIJA04,
Yes-No Task,63,0,63,0,8,-1,Correct Rejection,0.600687600032,False,-1,stimulus_MIJA04_Yes-No Task_2019_Jun_18_1400_139,-1,True,2019_Jun_18_1400,Yes-No Task,3,MIJA04,
Yes-No Task,64,0,64,0,9.6,-1,Correct Rejection,0.467066299985,False,-1,stimulus_MIJA04_Yes-No Task_2019_Jun_18_1400_140,-1,True,2019_Jun_18_1400,Yes-No Task,3,MIJA04,
Yes-No Task,65,0,65,0,8,-1,Correct Rejection,0.534087000007,False,-1,stimulus_MIJA04_Yes-No Task_2019_Jun_18_1400_141,-1,True,2019_Jun_18_1400,Yes-No Task,3,MIJA04,
Yes-No Task,66,0,66,0,4.9,-1,Correct Rejection,0.600969900028,False,-1,stimulus_MIJA04_Yes-No Task_2019_Jun_18_1400_142,-1,True,2019_Jun_18_1400,Yes-No Task,3,MIJA04,
Yes-No Task,67,0,67,0,1.7,-1,Miss,0.433722599992,True,-1,stimulus_MIJA04_Yes-No Task_2019_Jun_18_1400_143,-1,True,2019_Jun_18_1400,Yes-No Task,3,MIJA04,
Yes-No Task,68,0,68,0,3.3,-1,Correct Rejection,0.600287900015,False,-1,stimulus_MIJA04_Yes-No Task_2019_Jun_18_1400_144,-1,True,2019_Jun_18_1400,Yes-No Task,3,MIJA04,
Yes-No Task,69,0,69,0,1,-1,Correct Rejection,0.468568900018,False,-1,stimulus_MIJA04_Yes-No Task_2019_Jun_18_1400_145,-1,True,2019_Jun_18_1400,Yes-No Task,3,MIJA04,
Yes-No Task,70,0,70,0,4.9,-1,Hit,0.431757599988,True,-1,stimulus_MIJA04_Yes-No Task_2019_Jun_18_1400_146,-1,True,2019_Jun_18_1400,Yes-No Task,3,MIJA04,
Yes-No Task,71,0,71,0,1.7,-1,Correct Rejection,0.699685,False,-1,stimulus_MIJA04_Yes-No Task_2019_Jun_18_1400_147,-1,True,2019_Jun_18_1400,Yes-No Task,3,MIJA04,
Yes-No Task,72,0,72,0,9.6,-1,Hit,0.433934999979,True,-1,stimulus_MIJA04_Yes-No Task_2019_Jun_18_1400_148,-1,True,2019_Jun_18_1400,Yes-No Task,3,MIJA04,
Yes-No Task,73,0,73,0,1.7,-1,Correct Rejection,0.33410810004,False,-1,stimulus_MIJA04_Yes-No Task_2019_Jun_18_1400_149,-1,True,2019_Jun_18_1400,Yes-No Task,3,MIJA04,
Yes-No Task,74,0,74,0,1,-1,Correct Rejection,0.400216999988,False,-1,stimulus_MIJA04_Yes-No Task_2019_Jun_18_1400_150,-1,True,2019_Jun_18_1400,Yes-No Task,3,MIJA04,
Yes-No Task,0,0,0,0,1,-1,Miss,0.467440699984,True,-1,stimulus_MIJA04_Yes-No Task_2019_Jun_18_1400_151,-1,True,2019_Jun_18_1400,Yes-No Task,3,MIJA04,
Yes-No Task,1,0,1,0,11.5,-1,Hit,0.467511399998,True,-1,stimulus_MIJA04_Yes-No Task_2019_Jun_18_1400_152,-1,True,2019_Jun_18_1400,Yes-No Task,3,MIJA04,
Yes-No Task,2,0,2,0,4.9,-1,Correct Rejection,0.466746199992,False,-1,stimulus_MIJA04_Yes-No Task_2019_Jun_18_1400_153,-1,True,2019_Jun_18_1400,Yes-No Task,3,MIJA04,
Yes-No Task,3,0,3,0,3.3,-1,Correct Rejection,0.433392799983,False,-1,stimulus_MIJA04_Yes-No Task_2019_Jun_18_1400_154,-1,True,2019_Jun_18_1400,Yes-No Task,3,MIJA04,
Yes-No Task,4,0,4,0,3.3,-1,Correct Rejection,0.433631899999,False,-1,stimulus_MIJA04_Yes-No Task_2019_Jun_18_1400_155,-1,True,2019_Jun_18_1400,Yes-No Task,3,MIJA04,
Yes-No Task,5,0,5,0,1,-1,Miss,0.433836099983,True,-1,stimulus_MIJA04_Yes-No Task_2019_Jun_18_1400_156,-1,True,2019_Jun_18_1400,Yes-No Task,3,MIJA04,
Yes-No Task,6,0,6,0,3.3,-1,False Alarm,0.533445500012,False,-1,stimulus_MIJA04_Yes-No Task_2019_Jun_18_1400_157,-1,True,2019_Jun_18_1400,Yes-No Task,3,MIJA04,
Yes-No Task,7,0,7,0,11.5,-1,Correct Rejection,0.399949399987,False,-1,stimulus_MIJA04_Yes-No Task_2019_Jun_18_1400_158,-1,True,2019_Jun_18_1400,Yes-No Task,3,MIJA04,
Yes-No Task,8,0,8,0,9.6,-1,Correct Rejection,0.334011800005,False,-1,stimulus_MIJA04_Yes-No Task_2019_Jun_18_1400_159,-1,True,2019_Jun_18_1400,Yes-No Task,3,MIJA04,
Yes-No Task,9,0,9,0,3.3,-1,False Alarm,0.433394799998,False,-1,stimulus_MIJA04_Yes-No Task_2019_Jun_18_1400_160,-1,True,2019_Jun_18_1400,Yes-No Task,3,MIJA04,
Yes-No Task,10,0,10,0,4.9,-1,Correct Rejection,0.433871100016,False,-1,stimulus_MIJA04_Yes-No Task_2019_Jun_18_1400_161,-1,True,2019_Jun_18_1400,Yes-No Task,3,MIJA04,
Yes-No Task,11,0,11,0,6.6,-1,Hit,0.467542900005,True,-1,stimulus_MIJA04_Yes-No Task_2019_Jun_18_1400_162,-1,True,2019_Jun_18_1400,Yes-No Task,3,MIJA04,
Yes-No Task,12,0,12,0,4.9,-1,Correct Rejection,0.399362800003,False,-1,stimulus_MIJA04_Yes-No Task_2019_Jun_18_1400_163,-1,True,2019_Jun_18_1400,Yes-No Task,3,MIJA04,
Yes-No Task,13,0,13,0,3.3,-1,Miss,0.399865099986,True,-1,stimulus_MIJA04_Yes-No Task_2019_Jun_18_1400_164,-1,True,2019_Jun_18_1400,Yes-No Task,3,MIJA04,
Yes-No Task,14,0,14,0,8,-1,Hit,0.434017800028,True,-1,stimulus_MIJA04_Yes-No Task_2019_Jun_18_1400_165,-1,True,2019_Jun_18_1400,Yes-No Task,3,MIJA04,
Yes-No Task,15,0,15,0,4.9,-1,Hit,0.600629799999,True,-1,stimulus_MIJA04_Yes-No Task_2019_Jun_18_1400_166,-1,True,2019_Jun_18_1400,Yes-No Task,3,MIJA04,
Yes-No Task,16,0,16,0,6.6,-1,Hit,0.468259000045,True,-1,stimulus_MIJA04_Yes-No Task_2019_Jun_18_1400_167,-1,True,2019_Jun_18_1400,Yes-No Task,3,MIJA04,
Yes-No Task,17,0,17,0,8,-1,Correct Rejection,0.533884899982,False,-1,stimulus_MIJA04_Yes-No Task_2019_Jun_18_1400_168,-1,True,2019_Jun_18_1400,Yes-No Task,3,MIJA04,
Yes-No Task,18,0,18,0,8,-1,Correct Rejection,0.467255500029,False,-1,stimulus_MIJA04_Yes-No Task_2019_Jun_18_1400_169,-1,True,2019_Jun_18_1400,Yes-No Task,3,MIJA04,
Yes-No Task,19,0,19,0,1,-1,False Alarm,0.666245000029,False,-1,stimulus_MIJA04_Yes-No Task_2019_Jun_18_1400_170,-1,True,2019_Jun_18_1400,Yes-No Task,3,MIJA04,
Yes-No Task,20,0,20,0,1.7,-1,Miss,0.500077400007,True,-1,stimulus_MIJA04_Yes-No Task_2019_Jun_18_1400_171,-1,True,2019_Jun_18_1400,Yes-No Task,3,MIJA04,
Yes-No Task,21,0,21,0,3.3,-1,Hit,0.500565199996,True,-1,stimulus_MIJA04_Yes-No Task_2019_Jun_18_1400_172,-1,True,2019_Jun_18_1400,Yes-No Task,3,MIJA04,
Yes-No Task,22,0,22,0,9.6,-1,Hit,0.500666699954,True,-1,stimulus_MIJA04_Yes-No Task_2019_Jun_18_1400_173,-1,True,2019_Jun_18_1400,Yes-No Task,3,MIJA04,
Yes-No Task,23,0,23,0,9.6,-1,Hit,0.465262699989,True,-1,stimulus_MIJA04_Yes-No Task_2019_Jun_18_1400_174,-1,True,2019_Jun_18_1400,Yes-No Task,3,MIJA04,
Yes-No Task,24,0,24,0,1.7,-1,Miss,0.432516900008,True,-1,stimulus_MIJA04_Yes-No Task_2019_Jun_18_1400_175,-1,True,2019_Jun_18_1400,Yes-No Task,3,MIJA04,
Yes-No Task,25,0,25,0,1.7,-1,Miss,0.533154000004,True,-1,stimulus_MIJA04_Yes-No Task_2019_Jun_18_1400_176,-1,True,2019_Jun_18_1400,Yes-No Task,3,MIJA04,
Yes-No Task,26,0,26,0,9.6,-1,Hit,0.334777099953,True,-1,stimulus_MIJA04_Yes-No Task_2019_Jun_18_1400_177,-1,True,2019_Jun_18_1400,Yes-No Task,3,MIJA04,
Yes-No Task,27,0,27,0,1,-1,Miss,0.434593100043,True,-1,stimulus_MIJA04_Yes-No Task_2019_Jun_18_1400_178,-1,True,2019_Jun_18_1400,Yes-No Task,3,MIJA04,
Yes-No Task,28,0,28,0,4.9,-1,Hit,0.533848299994,True,-1,stimulus_MIJA04_Yes-No Task_2019_Jun_18_1400_179,-1,True,2019_Jun_18_1400,Yes-No Task,3,MIJA04,
Yes-No Task,29,0,29,0,9.6,-1,False Alarm,0.533365700045,False,-1,stimulus_MIJA04_Yes-No Task_2019_Jun_18_1400_180,-1,True,2019_Jun_18_1400,Yes-No Task,3,MIJA04,
Yes-No Task,30,0,30,0,8,-1,Correct Rejection,0.432492899999,False,-1,stimulus_MIJA04_Yes-No Task_2019_Jun_18_1400_181,-1,True,2019_Jun_18_1400,Yes-No Task,3,MIJA04,
Yes-No Task,31,0,31,0,4.9,-1,Correct Rejection,0.500727800012,False,-1,stimulus_MIJA04_Yes-No Task_2019_Jun_18_1400_182,-1,True,2019_Jun_18_1400,Yes-No Task,3,MIJA04,
Yes-No Task,32,0,32,0,9.6,-1,False Alarm,0.466920799983,False,-1,stimulus_MIJA04_Yes-No Task_2019_Jun_18_1400_183,-1,True,2019_Jun_18_1400,Yes-No Task,3,MIJA04,
Yes-No Task,33,0,33,0,9.6,-1,Correct Rejection,0.433851399983,False,-1,stimulus_MIJA04_Yes-No Task_2019_Jun_18_1400_184,-1,True,2019_Jun_18_1400,Yes-No Task,3,MIJA04,
Yes-No Task,34,0,34,0,4.9,-1,False Alarm,0.367574000033,False,-1,stimulus_MIJA04_Yes-No Task_2019_Jun_18_1400_185,-1,True,2019_Jun_18_1400,Yes-No Task,3,MIJA04,
Yes-No Task,35,0,35,0,8,-1,False Alarm,0.700245699962,False,-1,stimulus_MIJA04_Yes-No Task_2019_Jun_18_1400_186,-1,True,2019_Jun_18_1400,Yes-No Task,3,MIJA04,
Yes-No Task,36,0,36,0,1,-1,Correct Rejection,0.569200800033,False,-1,stimulus_MIJA04_Yes-No Task_2019_Jun_18_1400_187,-1,True,2019_Jun_18_1400,Yes-No Task,3,MIJA04,
Yes-No Task,37,0,37,0,11.5,-1,Hit,0.399845899956,True,-1,stimulus_MIJA04_Yes-No Task_2019_Jun_18_1400_188,-1,True,2019_Jun_18_1400,Yes-No Task,3,MIJA04,
Yes-No Task,38,0,38,0,8,-1,Correct Rejection,0.534918600053,False,-1,stimulus_MIJA04_Yes-No Task_2019_Jun_18_1400_189,-1,True,2019_Jun_18_1400,Yes-No Task,3,MIJA04,
Yes-No Task,39,0,39,0,1,-1,Correct Rejection,0.399606800056,False,-1,stimulus_MIJA04_Yes-No Task_2019_Jun_18_1400_190,-1,True,2019_Jun_18_1400,Yes-No Task,3,MIJA04,
Yes-No Task,40,0,40,0,9.6,-1,False Alarm,0.500412099995,False,-1,stimulus_MIJA04_Yes-No Task_2019_Jun_18_1400_191,-1,True,2019_Jun_18_1400,Yes-No Task,3,MIJA04,
Yes-No Task,41,0,41,0,9.6,-1,Hit,0.434173899994,True,-1,stimulus_MIJA04_Yes-No Task_2019_Jun_18_1400_192,-1,True,2019_Jun_18_1400,Yes-No Task,3,MIJA04,
Yes-No Task,42,0,42,0,11.5,-1,False Alarm,0.467322499957,False,-1,stimulus_MIJA04_Yes-No Task_2019_Jun_18_1400_193,-1,True,2019_Jun_18_1400,Yes-No Task,3,MIJA04,
Yes-No Task,43,0,43,0,4.9,-1,Correct Rejection,0.468038999999,False,-1,stimulus_MIJA04_Yes-No Task_2019_Jun_18_1400_194,-1,True,2019_Jun_18_1400,Yes-No Task,3,MIJA04,
Yes-No Task,44,0,44,0,1,-1,Correct Rejection,0.533953200036,False,-1,stimulus_MIJA04_Yes-No Task_2019_Jun_18_1400_195,-1,True,2019_Jun_18_1400,Yes-No Task,3,MIJA04,
Yes-No Task,45,0,45,0,6.6,-1,Hit,0.567139299994,True,-1,stimulus_MIJA04_Yes-No Task_2019_Jun_18_1400_196,-1,True,2019_Jun_18_1400,Yes-No Task,3,MIJA04,
Yes-No Task,46,0,46,0,1.7,-1,Correct Rejection,0.400627200026,False,-1,stimulus_MIJA04_Yes-No Task_2019_Jun_18_1400_197,-1,True,2019_Jun_18_1400,Yes-No Task,3,MIJA04,
Yes-No Task,47,0,47,0,4.9,-1,Hit,0.634111099993,True,-1,stimulus_MIJA04_Yes-No Task_2019_Jun_18_1400_198,-1,True,2019_Jun_18_1400,Yes-No Task,3,MIJA04,
Yes-No Task,48,0,48,0,9.6,-1,Hit,0.600297300029,True,-1,stimulus_MIJA04_Yes-No Task_2019_Jun_18_1400_199,-1,True,2019_Jun_18_1400,Yes-No Task,3,MIJA04,
Yes-No Task,49,0,49,0,9.6,-1,False Alarm,0.47048660001,False,-1,stimulus_MIJA04_Yes-No Task_2019_Jun_18_1400_200,-1,True,2019_Jun_18_1400,Yes-No Task,3,MIJA04,
Yes-No Task,50,0,50,0,1,-1,Correct Rejection,0.468546400021,False,-1,stimulus_MIJA04_Yes-No Task_2019_Jun_18_1400_201,-1,True,2019_Jun_18_1400,Yes-No Task,3,MIJA04,
Yes-No Task,51,0,51,0,11.5,-1,Hit,0.467130400008,True,-1,stimulus_MIJA04_Yes-No Task_2019_Jun_18_1400_202,-1,True,2019_Jun_18_1400,Yes-No Task,3,MIJA04,
Yes-No Task,52,0,52,0,11.5,-1,Hit,0.401308300032,True,-1,stimulus_MIJA04_Yes-No Task_2019_Jun_18_1400_203,-1,True,2019_Jun_18_1400,Yes-No Task,3,MIJA04,
Yes-No Task,53,0,53,0,3.3,-1,False Alarm,0.499781699968,False,-1,stimulus_MIJA04_Yes-No Task_2019_Jun_18_1400_204,-1,True,2019_Jun_18_1400,Yes-No Task,3,MIJA04,
Yes-No Task,54,0,54,0,9.6,-1,Hit,0.501556400035,True,-1,stimulus_MIJA04_Yes-No Task_2019_Jun_18_1400_205,-1,True,2019_Jun_18_1400,Yes-No Task,3,MIJA04,
Yes-No Task,55,0,55,0,1,-1,Hit,0.466594099998,True,-1,stimulus_MIJA04_Yes-No Task_2019_Jun_18_1400_206,-1,True,2019_Jun_18_1400,Yes-No Task,3,MIJA04,
Yes-No Task,56,0,56,0,4.9,-1,Miss,0.333769399964,True,-1,stimulus_MIJA04_Yes-No Task_2019_Jun_18_1400_207,-1,True,2019_Jun_18_1400,Yes-No Task,3,MIJA04,
Yes-No Task,57,0,57,0,4.9,-1,Correct Rejection,0.567103600013,False,-1,stimulus_MIJA04_Yes-No Task_2019_Jun_18_1400_208,-1,True,2019_Jun_18_1400,Yes-No Task,3,MIJA04,
Yes-No Task,58,0,58,0,11.5,-1,Correct Rejection,0.432750799984,False,-1,stimulus_MIJA04_Yes-No Task_2019_Jun_18_1400_209,-1,True,2019_Jun_18_1400,Yes-No Task,3,MIJA04,
Yes-No Task,59,0,59,0,9.6,-1,Hit,0.467230699956,True,-1,stimulus_MIJA04_Yes-No Task_2019_Jun_18_1400_210,-1,True,2019_Jun_18_1400,Yes-No Task,3,MIJA04,
Yes-No Task,60,0,60,0,4.9,-1,Miss,0.433853900002,True,-1,stimulus_MIJA04_Yes-No Task_2019_Jun_18_1400_211,-1,True,2019_Jun_18_1400,Yes-No Task,3,MIJA04,
Yes-No Task,61,0,61,0,9.6,-1,Hit,0.368881400034,True,-1,stimulus_MIJA04_Yes-No Task_2019_Jun_18_1400_212,-1,True,2019_Jun_18_1400,Yes-No Task,3,MIJA04,
Yes-No Task,62,0,62,0,1.7,-1,Correct Rejection,0.468493999972,False,-1,stimulus_MIJA04_Yes-No Task_2019_Jun_18_1400_213,-1,True,2019_Jun_18_1400,Yes-No Task,3,MIJA04,
Yes-No Task,63,0,63,0,6.6,-1,False Alarm,0.332368999952,False,-1,stimulus_MIJA04_Yes-No Task_2019_Jun_18_1400_214,-1,True,2019_Jun_18_1400,Yes-No Task,3,MIJA04,
Yes-No Task,64,0,64,0,6.6,-1,Correct Rejection,0.465982299997,False,-1,stimulus_MIJA04_Yes-No Task_2019_Jun_18_1400_215,-1,True,2019_Jun_18_1400,Yes-No Task,3,MIJA04,
Yes-No Task,65,0,65,0,8,-1,Hit,0.534991299966,True,-1,stimulus_MIJA04_Yes-No Task_2019_Jun_18_1400_216,-1,True,2019_Jun_18_1400,Yes-No Task,3,MIJA04,
Yes-No Task,66,0,66,0,1,-1,Hit,0.533935900021,True,-1,stimulus_MIJA04_Yes-No Task_2019_Jun_18_1400_217,-1,True,2019_Jun_18_1400,Yes-No Task,3,MIJA04,
Yes-No Task,67,0,67,0,9.6,-1,Correct Rejection,0.399071699998,False,-1,stimulus_MIJA04_Yes-No Task_2019_Jun_18_1400_218,-1,True,2019_Jun_18_1400,Yes-No Task,3,MIJA04,
Yes-No Task,68,0,68,0,6.6,-1,Hit,0.533284300007,True,-1,stimulus_MIJA04_Yes-No Task_2019_Jun_18_1400_219,-1,True,2019_Jun_18_1400,Yes-No Task,3,MIJA04,
Yes-No Task,69,0,69,0,1,-1,Correct Rejection,0.467151499994,False,-1,stimulus_MIJA04_Yes-No Task_2019_Jun_18_1400_220,-1,True,2019_Jun_18_1400,Yes-No Task,3,MIJA04,
Yes-No Task,70,0,70,0,3.3,-1,Correct Rejection,0.399644399993,False,-1,stimulus_MIJA04_Yes-No Task_2019_Jun_18_1400_221,-1,True,2019_Jun_18_1400,Yes-No Task,3,MIJA04,
Yes-No Task,71,0,71,0,9.6,-1,Hit,0.500800700043,True,-1,stimulus_MIJA04_Yes-No Task_2019_Jun_18_1400_222,-1,True,2019_Jun_18_1400,Yes-No Task,3,MIJA04,
Yes-No Task,72,0,72,0,8,-1,Correct Rejection,0.400419399957,False,-1,stimulus_MIJA04_Yes-No Task_2019_Jun_18_1400_223,-1,True,2019_Jun_18_1400,Yes-No Task,3,MIJA04,
Yes-No Task,73,0,73,0,11.5,-1,Correct Rejection,0.534105600032,False,-1,stimulus_MIJA04_Yes-No Task_2019_Jun_18_1400_224,-1,True,2019_Jun_18_1400,Yes-No Task,3,MIJA04,
Yes-No Task,74,0,74,0,1,-1,Correct Rejection,0.43381810002,False,-1,stimulus_MIJA04_Yes-No Task_2019_Jun_18_1400_225,-1,True,2019_Jun_18_1400,Yes-No Task,3,MIJA04,
Yes-No Task,0,0,0,0,1,-1,Correct Rejection,0.433889800042,False,-1,stimulus_MIJA04_Yes-No Task_2019_Jun_18_1400_226,-1,True,2019_Jun_18_1400,Yes-No Task,3,MIJA04,
Yes-No Task,1,0,1,0,4.9,-1,Miss,0.433148600045,True,-1,stimulus_MIJA04_Yes-No Task_2019_Jun_18_1400_227,-1,True,2019_Jun_18_1400,Yes-No Task,3,MIJA04,
Yes-No Task,2,0,2,0,1.7,-1,Correct Rejection,0.400719000027,False,-1,stimulus_MIJA04_Yes-No Task_2019_Jun_18_1400_228,-1,True,2019_Jun_18_1400,Yes-No Task,3,MIJA04,
Yes-No Task,3,0,3,0,1,-1,Miss,0.36702559999,True,-1,stimulus_MIJA04_Yes-No Task_2019_Jun_18_1400_229,-1,True,2019_Jun_18_1400,Yes-No Task,3,MIJA04,
Yes-No Task,4,0,4,0,6.6,-1,Hit,0.600382700039,True,-1,stimulus_MIJA04_Yes-No Task_2019_Jun_18_1400_230,-1,True,2019_Jun_18_1400,Yes-No Task,3,MIJA04,
Yes-No Task,5,0,5,0,1.7,-1,Miss,0.433711500023,True,-1,stimulus_MIJA04_Yes-No Task_2019_Jun_18_1400_231,-1,True,2019_Jun_18_1400,Yes-No Task,3,MIJA04,
Yes-No Task,6,0,6,0,1.7,-1,Correct Rejection,0.499849500018,False,-1,stimulus_MIJA04_Yes-No Task_2019_Jun_18_1400_232,-1,True,2019_Jun_18_1400,Yes-No Task,3,MIJA04,
Yes-No Task,7,0,7,0,3.3,-1,Hit,0.500320100051,True,-1,stimulus_MIJA04_Yes-No Task_2019_Jun_18_1400_233,-1,True,2019_Jun_18_1400,Yes-No Task,3,MIJA04,
Yes-No Task,8,0,8,0,4.9,-1,False Alarm,0.433706699987,False,-1,stimulus_MIJA04_Yes-No Task_2019_Jun_18_1400_234,-1,True,2019_Jun_18_1400,Yes-No Task,3,MIJA04,
Yes-No Task,9,0,9,0,3.3,-1,False Alarm,0.467282500002,False,-1,stimulus_MIJA04_Yes-No Task_2019_Jun_18_1400_235,-1,True,2019_Jun_18_1400,Yes-No Task,3,MIJA04,
Yes-No Task,10,0,10,0,1,-1,Hit,0.602342700004,True,-1,stimulus_MIJA04_Yes-No Task_2019_Jun_18_1400_236,-1,True,2019_Jun_18_1400,Yes-No Task,3,MIJA04,
Yes-No Task,11,0,11,0,1.7,-1,Miss,0.33383800002,True,-1,stimulus_MIJA04_Yes-No Task_2019_Jun_18_1400_237,-1,True,2019_Jun_18_1400,Yes-No Task,3,MIJA04,
Yes-No Task,12,0,12,0,4.9,-1,Hit,0.466949500027,True,-1,stimulus_MIJA04_Yes-No Task_2019_Jun_18_1400_238,-1,True,2019_Jun_18_1400,Yes-No Task,3,MIJA04,
Yes-No Task,13,0,13,0,6.6,-1,Correct Rejection,0.468486600032,False,-1,stimulus_MIJA04_Yes-No Task_2019_Jun_18_1400_239,-1,True,2019_Jun_18_1400,Yes-No Task,3,MIJA04,
Yes-No Task,14,0,14,0,8,-1,Hit,0.467146999959,True,-1,stimulus_MIJA04_Yes-No Task_2019_Jun_18_1400_240,-1,True,2019_Jun_18_1400,Yes-No Task,3,MIJA04,
Yes-No Task,15,0,15,0,4.9,-1,Hit,0.600841400039,True,-1,stimulus_MIJA04_Yes-No Task_2019_Jun_18_1400_241,-1,True,2019_Jun_18_1400,Yes-No Task,3,MIJA04,
Yes-No Task,16,0,16,0,4.9,-1,Correct Rejection,0.43206250004,False,-1,stimulus_MIJA04_Yes-No Task_2019_Jun_18_1400_242,-1,True,2019_Jun_18_1400,Yes-No Task,3,MIJA04,
Yes-No Task,17,0,17,0,9.6,-1,False Alarm,0.301733599976,False,-1,stimulus_MIJA04_Yes-No Task_2019_Jun_18_1400_243,-1,True,2019_Jun_18_1400,Yes-No Task,3,MIJA04,
Yes-No Task,18,0,18,0,3.3,-1,Hit,0.401313500013,True,-1,stimulus_MIJA04_Yes-No Task_2019_Jun_18_1400_244,-1,True,2019_Jun_18_1400,Yes-No Task,3,MIJA04,
Yes-No Task,19,0,19,0,6.6,-1,Hit,0.499922399991,True,-1,stimulus_MIJA04_Yes-No Task_2019_Jun_18_1400_245,-1,True,2019_Jun_18_1400,Yes-No Task,3,MIJA04,
Yes-No Task,20,0,20,0,8,-1,Hit,0.40059559996,True,-1,stimulus_MIJA04_Yes-No Task_2019_Jun_18_1400_246,-1,True,2019_Jun_18_1400,Yes-No Task,3,MIJA04,
Yes-No Task,21,0,21,0,1,-1,Correct Rejection,0.467490100011,False,-1,stimulus_MIJA04_Yes-No Task_2019_Jun_18_1400_247,-1,True,2019_Jun_18_1400,Yes-No Task,3,MIJA04,
Yes-No Task,22,0,22,0,9.6,-1,Hit,0.43411750003,True,-1,stimulus_MIJA04_Yes-No Task_2019_Jun_18_1400_248,-1,True,2019_Jun_18_1400,Yes-No Task,3,MIJA04,
Yes-No Task,23,0,23,0,4.9,-1,Correct Rejection,0.466984900006,False,-1,stimulus_MIJA04_Yes-No Task_2019_Jun_18_1400_249,-1,True,2019_Jun_18_1400,Yes-No Task,3,MIJA04,
Yes-No Task,24,0,24,0,1,-1,Miss,0.402243599994,True,-1,stimulus_MIJA04_Yes-No Task_2019_Jun_18_1400_250,-1,True,2019_Jun_18_1400,Yes-No Task,3,MIJA04,
Yes-No Task,25,0,25,0,4.9,-1,Hit,0.467186299968,True,-1,stimulus_MIJA04_Yes-No Task_2019_Jun_18_1400_251,-1,True,2019_Jun_18_1400,Yes-No Task,3,MIJA04,
Yes-No Task,26,0,26,0,1,-1,Miss,0.500737099966,True,-1,stimulus_MIJA04_Yes-No Task_2019_Jun_18_1400_252,-1,True,2019_Jun_18_1400,Yes-No Task,3,MIJA04,
Yes-No Task,27,0,27,0,6.6,-1,False Alarm,0.367229000025,False,-1,stimulus_MIJA04_Yes-No Task_2019_Jun_18_1400_253,-1,True,2019_Jun_18_1400,Yes-No Task,3,MIJA04,
Yes-No Task,28,0,28,0,3.3,-1,False Alarm,0.467082799994,False,-1,stimulus_MIJA04_Yes-No Task_2019_Jun_18_1400_254,-1,True,2019_Jun_18_1400,Yes-No Task,3,MIJA04,
Yes-No Task,29,0,29,0,1.7,-1,Correct Rejection,0.500917500001,False,-1,stimulus_MIJA04_Yes-No Task_2019_Jun_18_1400_255,-1,True,2019_Jun_18_1400,Yes-No Task,3,MIJA04,
Yes-No Task,30,0,30,0,6.6,-1,False Alarm,0.500640299986,False,-1,stimulus_MIJA04_Yes-No Task_2019_Jun_18_1400_256,-1,True,2019_Jun_18_1400,Yes-No Task,3,MIJA04,
Yes-No Task,31,0,31,0,1,-1,Correct Rejection,0.499741399952,False,-1,stimulus_MIJA04_Yes-No Task_2019_Jun_18_1400_257,-1,True,2019_Jun_18_1400,Yes-No Task,3,MIJA04,
Yes-No Task,32,0,32,0,9.6,-1,Hit,0.466751900036,True,-1,stimulus_MIJA04_Yes-No Task_2019_Jun_18_1400_258,-1,True,2019_Jun_18_1400,Yes-No Task,3,MIJA04,
Yes-No Task,33,0,33,0,4.9,-1,Miss,0.533968900039,True,-1,stimulus_MIJA04_Yes-No Task_2019_Jun_18_1400_259,-1,True,2019_Jun_18_1400,Yes-No Task,3,MIJA04,
Yes-No Task,34,0,34,0,1.7,-1,Correct Rejection,0.56711850001,False,-1,stimulus_MIJA04_Yes-No Task_2019_Jun_18_1400_260,-1,True,2019_Jun_18_1400,Yes-No Task,3,MIJA04,
Yes-No Task,35,0,35,0,6.6,-1,False Alarm,0.60077780002,False,-1,stimulus_MIJA04_Yes-No Task_2019_Jun_18_1400_261,-1,True,2019_Jun_18_1400,Yes-No Task,3,MIJA04,
Yes-No Task,36,0,36,0,9.6,-1,Correct Rejection,0.601297999965,False,-1,stimulus_MIJA04_Yes-No Task_2019_Jun_18_1400_262,-1,True,2019_Jun_18_1400,Yes-No Task,3,MIJA04,
Yes-No Task,37,0,37,0,8,-1,Correct Rejection,0.434093499964,False,-1,stimulus_MIJA04_Yes-No Task_2019_Jun_18_1400_263,-1,True,2019_Jun_18_1400,Yes-No Task,3,MIJA04,
Yes-No Task,38,0,38,0,6.6,-1,Hit,0.533882299962,True,-1,stimulus_MIJA04_Yes-No Task_2019_Jun_18_1400_264,-1,True,2019_Jun_18_1400,Yes-No Task,3,MIJA04,
Yes-No Task,39,0,39,0,9.6,-1,Hit,0.434119199985,True,-1,stimulus_MIJA04_Yes-No Task_2019_Jun_18_1400_265,-1,True,2019_Jun_18_1400,Yes-No Task,3,MIJA04,
Yes-No Task,40,0,40,0,3.3,-1,Miss,0.400617200008,True,-1,stimulus_MIJA04_Yes-No Task_2019_Jun_18_1400_266,-1,True,2019_Jun_18_1400,Yes-No Task,3,MIJA04,
Yes-No Task,41,0,41,0,9.6,-1,Correct Rejection,0.43403189996,False,-1,stimulus_MIJA04_Yes-No Task_2019_Jun_18_1400_267,-1,True,2019_Jun_18_1400,Yes-No Task,3,MIJA04,
Yes-No Task,42,0,42,0,3.3,-1,Hit,0.568359799974,True,-1,stimulus_MIJA04_Yes-No Task_2019_Jun_18_1400_268,-1,True,2019_Jun_18_1400,Yes-No Task,3,MIJA04,
Yes-No Task,43,0,43,0,11.5,-1,Hit,0.400344499969,True,-1,stimulus_MIJA04_Yes-No Task_2019_Jun_18_1400_269,-1,True,2019_Jun_18_1400,Yes-No Task,3,MIJA04,
Yes-No Task,44,0,44,0,1.7,-1,Miss,0.434441999998,True,-1,stimulus_MIJA04_Yes-No Task_2019_Jun_18_1400_270,-1,True,2019_Jun_18_1400,Yes-No Task,3,MIJA04,
Yes-No Task,45,0,45,0,1,-1,False Alarm,0.300524700026,False,-1,stimulus_MIJA04_Yes-No Task_2019_Jun_18_1400_271,-1,True,2019_Jun_18_1400,Yes-No Task,3,MIJA04,
Yes-No Task,46,0,46,0,11.5,-1,Hit,0.434084000008,True,-1,stimulus_MIJA04_Yes-No Task_2019_Jun_18_1400_272,-1,True,2019_Jun_18_1400,Yes-No Task,3,MIJA04,
Yes-No Task,47,0,47,0,11.5,-1,Correct Rejection,0.433731900004,False,-1,stimulus_MIJA04_Yes-No Task_2019_Jun_18_1400_273,-1,True,2019_Jun_18_1400,Yes-No Task,3,MIJA04,
Yes-No Task,48,0,48,0,8,-1,Hit,0.335390000022,True,-1,stimulus_MIJA04_Yes-No Task_2019_Jun_18_1400_274,-1,True,2019_Jun_18_1400,Yes-No Task,3,MIJA04,
Yes-No Task,49,0,49,0,11.5,-1,False Alarm,0.400296200009,False,-1,stimulus_MIJA04_Yes-No Task_2019_Jun_18_1400_275,-1,True,2019_Jun_18_1400,Yes-No Task,3,MIJA04,
Yes-No Task,50,0,50,0,6.6,-1,False Alarm,0.300600300019,False,-1,stimulus_MIJA04_Yes-No Task_2019_Jun_18_1400_276,-1,True,2019_Jun_18_1400,Yes-No Task,3,MIJA04,
Yes-No Task,51,0,51,0,3.3,-1,Correct Rejection,0.432797299989,False,-1,stimulus_MIJA04_Yes-No Task_2019_Jun_18_1400_277,-1,True,2019_Jun_18_1400,Yes-No Task,3,MIJA04,
Yes-No Task,52,0,52,0,11.5,-1,Correct Rejection,0.467020199983,False,-1,stimulus_MIJA04_Yes-No Task_2019_Jun_18_1400_278,-1,True,2019_Jun_18_1400,Yes-No Task,3,MIJA04,
Yes-No Task,53,0,53,0,9.6,-1,Hit,0.467073399981,True,-1,stimulus_MIJA04_Yes-No Task_2019_Jun_18_1400_279,-1,True,2019_Jun_18_1400,Yes-No Task,3,MIJA04,
Yes-No Task,54,0,54,0,3.3,-1,Hit,0.43360379996,True,-1,stimulus_MIJA04_Yes-No Task_2019_Jun_18_1400_280,-1,True,2019_Jun_18_1400,Yes-No Task,3,MIJA04,
Yes-No Task,55,0,55,0,6.6,-1,Correct Rejection,0.466899299994,False,-1,stimulus_MIJA04_Yes-No Task_2019_Jun_18_1400_281,-1,True,2019_Jun_18_1400,Yes-No Task,3,MIJA04,
Yes-No Task,56,0,56,0,4.9,-1,Correct Rejection,0.400467100029,False,-1,stimulus_MIJA04_Yes-No Task_2019_Jun_18_1400_282,-1,True,2019_Jun_18_1400,Yes-No Task,3,MIJA04,
Yes-No Task,57,0,57,0,1.7,-1,Miss,0.435831000039,True,-1,stimulus_MIJA04_Yes-No Task_2019_Jun_18_1400_283,-1,True,2019_Jun_18_1400,Yes-No Task,3,MIJA04,
Yes-No Task,58,0,58,0,11.5,-1,Hit,0.433248999994,True,-1,stimulus_MIJA04_Yes-No Task_2019_Jun_18_1400_284,-1,True,2019_Jun_18_1400,Yes-No Task,3,MIJA04,
Yes-No Task,59,0,59,0,8,-1,Correct Rejection,0.433664200013,False,-1,stimulus_MIJA04_Yes-No Task_2019_Jun_18_1400_285,-1,True,2019_Jun_18_1400,Yes-No Task,3,MIJA04,
Yes-No Task,60,0,60,0,3.3,-1,False Alarm,0.300614100008,False,-1,stimulus_MIJA04_Yes-No Task_2019_Jun_18_1400_286,-1,True,2019_Jun_18_1400,Yes-No Task,3,MIJA04,
Yes-No Task,61,0,61,0,1,-1,False Alarm,0.300880700001,False,-1,stimulus_MIJA04_Yes-No Task_2019_Jun_18_1400_287,-1,True,2019_Jun_18_1400,Yes-No Task,3,MIJA04,
Yes-No Task,62,0,62,0,1,-1,Correct Rejection,0.467444400012,False,-1,stimulus_MIJA04_Yes-No Task_2019_Jun_18_1400_288,-1,True,2019_Jun_18_1400,Yes-No Task,3,MIJA04,
Yes-No Task,63,0,63,0,9.6,-1,Hit,0.333871800045,True,-1,stimulus_MIJA04_Yes-No Task_2019_Jun_18_1400_289,-1,True,2019_Jun_18_1400,Yes-No Task,3,MIJA04,
Yes-No Task,64,0,64,0,11.5,-1,Hit,0.299638300028,True,-1,stimulus_MIJA04_Yes-No Task_2019_Jun_18_1400_290,-1,True,2019_Jun_18_1400,Yes-No Task,3,MIJA04,
Yes-No Task,65,0,65,0,1.7,-1,Hit,0.333046999993,True,-1,stimulus_MIJA04_Yes-No Task_2019_Jun_18_1400_291,-1,True,2019_Jun_18_1400,Yes-No Task,3,MIJA04,
Yes-No Task,66,0,66,0,9.6,-1,Hit,0.366895399988,True,-1,stimulus_MIJA04_Yes-No Task_2019_Jun_18_1400_292,-1,True,2019_Jun_18_1400,Yes-No Task,3,MIJA04,
Yes-No Task,67,0,67,0,4.9,-1,Hit,0.433539699996,True,-1,stimulus_MIJA04_Yes-No Task_2019_Jun_18_1400_293,-1,True,2019_Jun_18_1400,Yes-No Task,3,MIJA04,
Yes-No Task,68,0,68,0,1,-1,Miss,0.533657599997,True,-1,stimulus_MIJA04_Yes-No Task_2019_Jun_18_1400_294,-1,True,2019_Jun_18_1400,Yes-No Task,3,MIJA04,
Yes-No Task,69,0,69,0,11.5,-1,Hit,0.400225899997,True,-1,stimulus_MIJA04_Yes-No Task_2019_Jun_18_1400_295,-1,True,2019_Jun_18_1400,Yes-No Task,3,MIJA04,
Yes-No Task,70,0,70,0,4.9,-1,Correct Rejection,0.400517200003,False,-1,stimulus_MIJA04_Yes-No Task_2019_Jun_18_1400_296,-1,True,2019_Jun_18_1400,Yes-No Task,3,MIJA04,
Yes-No Task,71,0,71,0,1.7,-1,Correct Rejection,0.433777300001,False,-1,stimulus_MIJA04_Yes-No Task_2019_Jun_18_1400_297,-1,True,2019_Jun_18_1400,Yes-No Task,3,MIJA04,
Yes-No Task,72,0,72,0,9.6,-1,Miss,0.300652599952,True,-1,stimulus_MIJA04_Yes-No Task_2019_Jun_18_1400_298,-1,True,2019_Jun_18_1400,Yes-No Task,3,MIJA04,
Yes-No Task,73,0,73,0,1.7,-1,False Alarm,0.50047259999,False,-1,stimulus_MIJA04_Yes-No Task_2019_Jun_18_1400_299,-1,True,2019_Jun_18_1400,Yes-No Task,3,MIJA04,
Yes-No Task,74,0,74,0,8,-1,Hit,0.434199699957,True,-1,stimulus_MIJA04_Yes-No Task_2019_Jun_18_1400_300,-1,True,2019_Jun_18_1400,Yes-No Task,3,MIJA04,
Yes-No Task,0,0,0,0,1.7,-1,Correct Rejection,0.50093650003,False,-1,stimulus_MIJA04_Yes-No Task_2019_Jun_18_1400_301,-1,True,2019_Jun_18_1400,Yes-No Task,3,MIJA04,
Yes-No Task,1,0,1,0,1.7,-1,Correct Rejection,0.500565099996,False,-1,stimulus_MIJA04_Yes-No Task_2019_Jun_18_1400_302,-1,True,2019_Jun_18_1400,Yes-No Task,3,MIJA04,
Yes-No Task,2,0,2,0,11.5,-1,Correct Rejection,0.468448900036,False,-1,stimulus_MIJA04_Yes-No Task_2019_Jun_18_1400_303,-1,True,2019_Jun_18_1400,Yes-No Task,3,MIJA04,
Yes-No Task,3,0,3,0,1.7,-1,False Alarm,0.567197699973,False,-1,stimulus_MIJA04_Yes-No Task_2019_Jun_18_1400_304,-1,True,2019_Jun_18_1400,Yes-No Task,3,MIJA04,
Yes-No Task,4,0,4,0,1,-1,Correct Rejection,0.466451800021,False,-1,stimulus_MIJA04_Yes-No Task_2019_Jun_18_1400_305,-1,True,2019_Jun_18_1400,Yes-No Task,3,MIJA04,
Yes-No Task,5,0,5,0,6.6,-1,Hit,0.46722250001,True,-1,stimulus_MIJA04_Yes-No Task_2019_Jun_18_1400_306,-1,True,2019_Jun_18_1400,Yes-No Task,3,MIJA04,
Yes-No Task,6,0,6,0,3.3,-1,Hit,0.399628199986,True,-1,stimulus_MIJA04_Yes-No Task_2019_Jun_18_1400_307,-1,True,2019_Jun_18_1400,Yes-No Task,3,MIJA04,
Yes-No Task,7,0,7,0,1,-1,Miss,0.466820199974,True,-1,stimulus_MIJA04_Yes-No Task_2019_Jun_18_1400_308,-1,True,2019_Jun_18_1400,Yes-No Task,3,MIJA04,
Yes-No Task,8,0,8,0,1.7,-1,Correct Rejection,0.532469799975,False,-1,stimulus_MIJA04_Yes-No Task_2019_Jun_18_1400_309,-1,True,2019_Jun_18_1400,Yes-No Task,3,MIJA04,
Yes-No Task,9,0,9,0,1.7,-1,False Alarm,0.399001600046,False,-1,stimulus_MIJA04_Yes-No Task_2019_Jun_18_1400_310,-1,True,2019_Jun_18_1400,Yes-No Task,3,MIJA04,
Yes-No Task,10,0,10,0,8,-1,Correct Rejection,0.434636499966,False,-1,stimulus_MIJA04_Yes-No Task_2019_Jun_18_1400_311,-1,True,2019_Jun_18_1400,Yes-No Task,3,MIJA04,
Yes-No Task,11,0,11,0,6.6,-1,Hit,0.433635500027,True,-1,stimulus_MIJA04_Yes-No Task_2019_Jun_18_1400_312,-1,True,2019_Jun_18_1400,Yes-No Task,3,MIJA04,
Yes-No Task,12,0,12,0,8,-1,Hit,0.366786399973,True,-1,stimulus_MIJA04_Yes-No Task_2019_Jun_18_1400_313,-1,True,2019_Jun_18_1400,Yes-No Task,3,MIJA04,
Yes-No Task,13,0,13,0,4.9,-1,False Alarm,0.33368479996,False,-1,stimulus_MIJA04_Yes-No Task_2019_Jun_18_1400_314,-1,True,2019_Jun_18_1400,Yes-No Task,3,MIJA04,
Yes-No Task,14,0,14,0,6.6,-1,False Alarm,0.400054999976,False,-1,stimulus_MIJA04_Yes-No Task_2019_Jun_18_1400_315,-1,True,2019_Jun_18_1400,Yes-No Task,3,MIJA04,
Yes-No Task,15,0,15,0,4.9,-1,Hit,0.400488500018,True,-1,stimulus_MIJA04_Yes-No Task_2019_Jun_18_1400_316,-1,True,2019_Jun_18_1400,Yes-No Task,3,MIJA04,
Yes-No Task,16,0,16,0,6.6,-1,Correct Rejection,0.533622100018,False,-1,stimulus_MIJA04_Yes-No Task_2019_Jun_18_1400_317,-1,True,2019_Jun_18_1400,Yes-No Task,3,MIJA04,
Yes-No Task,17,0,17,0,1.7,-1,Correct Rejection,0.434105699998,False,-1,stimulus_MIJA04_Yes-No Task_2019_Jun_18_1400_318,-1,True,2019_Jun_18_1400,Yes-No Task,3,MIJA04,
Yes-No Task,18,0,18,0,8,-1,Correct Rejection,0.500721700024,False,-1,stimulus_MIJA04_Yes-No Task_2019_Jun_18_1400_319,-1,True,2019_Jun_18_1400,Yes-No Task,3,MIJA04,
Yes-No Task,19,0,19,0,1,-1,Hit,0.467356699985,True,-1,stimulus_MIJA04_Yes-No Task_2019_Jun_18_1400_320,-1,True,2019_Jun_18_1400,Yes-No Task,3,MIJA04,
Yes-No Task,20,0,20,0,1,-1,Correct Rejection,0.500645300024,False,-1,stimulus_MIJA04_Yes-No Task_2019_Jun_18_1400_321,-1,True,2019_Jun_18_1400,Yes-No Task,3,MIJA04,
Yes-No Task,21,0,21,0,1.7,-1,Miss,0.5676599,True,-1,stimulus_MIJA04_Yes-No Task_2019_Jun_18_1400_322,-1,True,2019_Jun_18_1400,Yes-No Task,3,MIJA04,
Yes-No Task,22,0,22,0,6.6,-1,Hit,0.434674399963,True,-1,stimulus_MIJA04_Yes-No Task_2019_Jun_18_1400_323,-1,True,2019_Jun_18_1400,Yes-No Task,3,MIJA04,
Yes-No Task,23,0,23,0,11.5,-1,Correct Rejection,0.500856500003,False,-1,stimulus_MIJA04_Yes-No Task_2019_Jun_18_1400_324,-1,True,2019_Jun_18_1400,Yes-No Task,3,MIJA04,
Yes-No Task,24,0,24,0,9.6,-1,Correct Rejection,0.468175599992,False,-1,stimulus_MIJA04_Yes-No Task_2019_Jun_18_1400_325,-1,True,2019_Jun_18_1400,Yes-No Task,3,MIJA04,
Yes-No Task,25,0,25,0,3.3,-1,Correct Rejection,0.434619600012,False,-1,stimulus_MIJA04_Yes-No Task_2019_Jun_18_1400_326,-1,True,2019_Jun_18_1400,Yes-No Task,3,MIJA04,
Yes-No Task,26,0,26,0,8,-1,Hit,0.433558600023,True,-1,stimulus_MIJA04_Yes-No Task_2019_Jun_18_1400_327,-1,True,2019_Jun_18_1400,Yes-No Task,3,MIJA04,
Yes-No Task,27,0,27,0,4.9,-1,Correct Rejection,0.433771700016,False,-1,stimulus_MIJA04_Yes-No Task_2019_Jun_18_1400_328,-1,True,2019_Jun_18_1400,Yes-No Task,3,MIJA04,
Yes-No Task,28,0,28,0,6.6,-1,False Alarm,0.367368199979,False,-1,stimulus_MIJA04_Yes-No Task_2019_Jun_18_1400_329,-1,True,2019_Jun_18_1400,Yes-No Task,3,MIJA04,
Yes-No Task,29,0,29,0,8,-1,False Alarm,0.300445900008,False,-1,stimulus_MIJA04_Yes-No Task_2019_Jun_18_1400_330,-1,True,2019_Jun_18_1400,Yes-No Task,3,MIJA04,
Yes-No Task,30,0,30,0,11.5,-1,Correct Rejection,0.465865199978,False,-1,stimulus_MIJA04_Yes-No Task_2019_Jun_18_1400_331,-1,True,2019_Jun_18_1400,Yes-No Task,3,MIJA04,
Yes-No Task,31,0,31,0,11.5,-1,Hit,0.467136699997,True,-1,stimulus_MIJA04_Yes-No Task_2019_Jun_18_1400_332,-1,True,2019_Jun_18_1400,Yes-No Task,3,MIJA04,
Yes-No Task,32,0,32,0,9.6,-1,Hit,0.433956700028,True,-1,stimulus_MIJA04_Yes-No Task_2019_Jun_18_1400_333,-1,True,2019_Jun_18_1400,Yes-No Task,3,MIJA04,
Yes-No Task,33,0,33,0,1,-1,Miss,0.434004299983,True,-1,stimulus_MIJA04_Yes-No Task_2019_Jun_18_1400_334,-1,True,2019_Jun_18_1400,Yes-No Task,3,MIJA04,
Yes-No Task,34,0,34,0,1.7,-1,Correct Rejection,0.468490300002,False,-1,stimulus_MIJA04_Yes-No Task_2019_Jun_18_1400_335,-1,True,2019_Jun_18_1400,Yes-No Task,3,MIJA04,
Yes-No Task,35,0,35,0,6.6,-1,False Alarm,0.299017599958,False,-1,stimulus_MIJA04_Yes-No Task_2019_Jun_18_1400_336,-1,True,2019_Jun_18_1400,Yes-No Task,3,MIJA04,
Yes-No Task,36,0,36,0,3.3,-1,False Alarm,0.300162500003,False,-1,stimulus_MIJA04_Yes-No Task_2019_Jun_18_1400_337,-1,True,2019_Jun_18_1400,Yes-No Task,3,MIJA04,
Yes-No Task,37,0,37,0,11.5,-1,Hit,0.400121100014,True,-1,stimulus_MIJA04_Yes-No Task_2019_Jun_18_1400_338,-1,True,2019_Jun_18_1400,Yes-No Task,3,MIJA04,
Yes-No Task,38,0,38,0,6.6,-1,Correct Rejection,0.333827800001,False,-1,stimulus_MIJA04_Yes-No Task_2019_Jun_18_1400_339,-1,True,2019_Jun_18_1400,Yes-No Task,3,MIJA04,
Yes-No Task,39,0,39,0,1.7,-1,Miss,0.365806300018,True,-1,stimulus_MIJA04_Yes-No Task_2019_Jun_18_1400_340,-1,True,2019_Jun_18_1400,Yes-No Task,3,MIJA04,
Yes-No Task,40,0,40,0,9.6,-1,Correct Rejection,0.367839299957,False,-1,stimulus_MIJA04_Yes-No Task_2019_Jun_18_1400_341,-1,True,2019_Jun_18_1400,Yes-No Task,3,MIJA04,
Yes-No Task,41,0,41,0,1.7,-1,Miss,0.600523599947,True,-1,stimulus_MIJA04_Yes-No Task_2019_Jun_18_1400_342,-1,True,2019_Jun_18_1400,Yes-No Task,3,MIJA04,
Yes-No Task,42,0,42,0,1,-1,Hit,0.534303499968,True,-1,stimulus_MIJA04_Yes-No Task_2019_Jun_18_1400_343,-1,True,2019_Jun_18_1400,Yes-No Task,3,MIJA04,
Yes-No Task,43,0,43,0,1,-1,Miss,0.501191499992,True,-1,stimulus_MIJA04_Yes-No Task_2019_Jun_18_1400_344,-1,True,2019_Jun_18_1400,Yes-No Task,3,MIJA04,
Yes-No Task,44,0,44,0,6.6,-1,Hit,0.533657299995,True,-1,stimulus_MIJA04_Yes-No Task_2019_Jun_18_1400_345,-1,True,2019_Jun_18_1400,Yes-No Task,3,MIJA04,
Yes-No Task,45,0,45,0,8,-1,Correct Rejection,0.467836699972,False,-1,stimulus_MIJA04_Yes-No Task_2019_Jun_18_1400_346,-1,True,2019_Jun_18_1400,Yes-No Task,3,MIJA04,
Yes-No Task,46,0,46,0,8,-1,Correct Rejection,0.433985700016,False,-1,stimulus_MIJA04_Yes-No Task_2019_Jun_18_1400_347,-1,True,2019_Jun_18_1400,Yes-No Task,3,MIJA04,
Yes-No Task,47,0,47,0,9.6,-1,False Alarm,0.500564500049,False,-1,stimulus_MIJA04_Yes-No Task_2019_Jun_18_1400_348,-1,True,2019_Jun_18_1400,Yes-No Task,3,MIJA04,
Yes-No Task,48,0,48,0,11.5,-1,Hit,0.433542299957,True,-1,stimulus_MIJA04_Yes-No Task_2019_Jun_18_1400_349,-1,True,2019_Jun_18_1400,Yes-No Task,3,MIJA04,
Yes-No Task,49,0,49,0,9.6,-1,Hit,0.500490700011,True,-1,stimulus_MIJA04_Yes-No Task_2019_Jun_18_1400_350,-1,True,2019_Jun_18_1400,Yes-No Task,3,MIJA04,
Yes-No Task,50,0,50,0,1,-1,Hit,0.434282499948,True,-1,stimulus_MIJA04_Yes-No Task_2019_Jun_18_1400_351,-1,True,2019_Jun_18_1400,Yes-No Task,3,MIJA04,
Yes-No Task,51,0,51,0,6.6,-1,False Alarm,0.433929599996,False,-1,stimulus_MIJA04_Yes-No Task_2019_Jun_18_1400_352,-1,True,2019_Jun_18_1400,Yes-No Task,3,MIJA04,
Yes-No Task,52,0,52,0,9.6,-1,Correct Rejection,0.500287999981,False,-1,stimulus_MIJA04_Yes-No Task_2019_Jun_18_1400_353,-1,True,2019_Jun_18_1400,Yes-No Task,3,MIJA04,
Yes-No Task,53,0,53,0,8,-1,Hit,0.433840500016,True,-1,stimulus_MIJA04_Yes-No Task_2019_Jun_18_1400_354,-1,True,2019_Jun_18_1400,Yes-No Task,3,MIJA04,
Yes-No Task,54,0,54,0,1.7,-1,Miss,0.433812899981,True,-1,stimulus_MIJA04_Yes-No Task_2019_Jun_18_1400_355,-1,True,2019_Jun_18_1400,Yes-No Task,3,MIJA04,
Yes-No Task,55,0,55,0,8,-1,Hit,0.500200500013,True,-1,stimulus_MIJA04_Yes-No Task_2019_Jun_18_1400_356,-1,True,2019_Jun_18_1400,Yes-No Task,3,MIJA04,
Yes-No Task,56,0,56,0,3.3,-1,Miss,0.432995099982,True,-1,stimulus_MIJA04_Yes-No Task_2019_Jun_18_1400_357,-1,True,2019_Jun_18_1400,Yes-No Task,3,MIJA04,
Yes-No Task,57,0,57,0,9.6,-1,Hit,0.534122399986,True,-1,stimulus_MIJA04_Yes-No Task_2019_Jun_18_1400_358,-1,True,2019_Jun_18_1400,Yes-No Task,3,MIJA04,
Yes-No Task,58,0,58,0,9.6,-1,Hit,0.433876700001,True,-1,stimulus_MIJA04_Yes-No Task_2019_Jun_18_1400_359,-1,True,2019_Jun_18_1400,Yes-No Task,3,MIJA04,
Yes-No Task,59,0,59,0,9.6,-1,Hit,0.400460300036,True,-1,stimulus_MIJA04_Yes-No Task_2019_Jun_18_1400_360,-1,True,2019_Jun_18_1400,Yes-No Task,3,MIJA04,
Yes-No Task,60,0,60,0,6.6,-1,False Alarm,0.366413299984,False,-1,stimulus_MIJA04_Yes-No Task_2019_Jun_18_1400_361,-1,True,2019_Jun_18_1400,Yes-No Task,3,MIJA04,
Yes-No Task,61,0,61,0,4.9,-1,Hit,0.399707000004,True,-1,stimulus_MIJA04_Yes-No Task_2019_Jun_18_1400_362,-1,True,2019_Jun_18_1400,Yes-No Task,3,MIJA04,
Yes-No Task,62,0,62,0,8,-1,False Alarm,0.330564400007,False,-1,stimulus_MIJA04_Yes-No Task_2019_Jun_18_1400_363,-1,True,2019_Jun_18_1400,Yes-No Task,3,MIJA04,
Yes-No Task,63,0,63,0,6.6,-1,Correct Rejection,0.500426699989,False,-1,stimulus_MIJA04_Yes-No Task_2019_Jun_18_1400_364,-1,True,2019_Jun_18_1400,Yes-No Task,3,MIJA04,
Yes-No Task,64,0,64,0,1.7,-1,Correct Rejection,0.634112799948,False,-1,stimulus_MIJA04_Yes-No Task_2019_Jun_18_1400_365,-1,True,2019_Jun_18_1400,Yes-No Task,3,MIJA04,
Yes-No Task,65,0,65,0,4.9,-1,Correct Rejection,0.367032799986,False,-1,stimulus_MIJA04_Yes-No Task_2019_Jun_18_1400_366,-1,True,2019_Jun_18_1400,Yes-No Task,3,MIJA04,
Yes-No Task,66,0,66,0,3.3,-1,Correct Rejection,0.367288000009,False,-1,stimulus_MIJA04_Yes-No Task_2019_Jun_18_1400_367,-1,True,2019_Jun_18_1400,Yes-No Task,3,MIJA04,
Yes-No Task,67,0,67,0,11.5,-1,Correct Rejection,0.400319600012,False,-1,stimulus_MIJA04_Yes-No Task_2019_Jun_18_1400_368,-1,True,2019_Jun_18_1400,Yes-No Task,3,MIJA04,
Yes-No Task,68,0,68,0,1.7,-1,Miss,0.40047220001,True,-1,stimulus_MIJA04_Yes-No Task_2019_Jun_18_1400_369,-1,True,2019_Jun_18_1400,Yes-No Task,3,MIJA04,
Yes-No Task,69,0,69,0,1,-1,Correct Rejection,0.433745200047,False,-1,stimulus_MIJA04_Yes-No Task_2019_Jun_18_1400_370,-1,True,2019_Jun_18_1400,Yes-No Task,3,MIJA04,
Yes-No Task,70,0,70,0,9.6,-1,False Alarm,0.300590400002,False,-1,stimulus_MIJA04_Yes-No Task_2019_Jun_18_1400_371,-1,True,2019_Jun_18_1400,Yes-No Task,3,MIJA04,
Yes-No Task,71,0,71,0,9.6,-1,Hit,0.400605599978,True,-1,stimulus_MIJA04_Yes-No Task_2019_Jun_18_1400_372,-1,True,2019_Jun_18_1400,Yes-No Task,3,MIJA04,
Yes-No Task,72,0,72,0,6.6,-1,Hit,0.567227199965,True,-1,stimulus_MIJA04_Yes-No Task_2019_Jun_18_1400_373,-1,True,2019_Jun_18_1400,Yes-No Task,3,MIJA04,
Yes-No Task,73,0,73,0,11.5,-1,Correct Rejection,0.433768800052,False,-1,stimulus_MIJA04_Yes-No Task_2019_Jun_18_1400_374,-1,True,2019_Jun_18_1400,Yes-No Task,3,MIJA04,
Yes-No Task,74,0,74,0,8,-1,Hit,0.401914499991,True,-1,stimulus_MIJA04_Yes-No Task_2019_Jun_18_1400_375,-1,True,2019_Jun_18_1400,Yes-No Task,3,MIJA04,
Yes-No Task,0,0,0,0,1,-1,Miss,0.500578000036,True,-1,stimulus_MIJA04_Yes-No Task_2019_Jun_18_1400_376,-1,True,2019_Jun_18_1400,Yes-No Task,3,MIJA04,
Yes-No Task,1,0,1,0,1,-1,False Alarm,0.434048599971,False,-1,stimulus_MIJA04_Yes-No Task_2019_Jun_18_1400_377,-1,True,2019_Jun_18_1400,Yes-No Task,3,MIJA04,
Yes-No Task,2,0,2,0,11.5,-1,Hit,0.434150400048,True,-1,stimulus_MIJA04_Yes-No Task_2019_Jun_18_1400_378,-1,True,2019_Jun_18_1400,Yes-No Task,3,MIJA04,
Yes-No Task,3,0,3,0,3.3,-1,Miss,0.366070199991,True,-1,stimulus_MIJA04_Yes-No Task_2019_Jun_18_1400_379,-1,True,2019_Jun_18_1400,Yes-No Task,3,MIJA04,
Yes-No Task,4,0,4,0,8,-1,Hit,0.433384099975,True,-1,stimulus_MIJA04_Yes-No Task_2019_Jun_18_1400_380,-1,True,2019_Jun_18_1400,Yes-No Task,3,MIJA04,
Yes-No Task,5,0,5,0,4.9,-1,Correct Rejection,0.468959299964,False,-1,stimulus_MIJA04_Yes-No Task_2019_Jun_18_1400_381,-1,True,2019_Jun_18_1400,Yes-No Task,3,MIJA04,
Yes-No Task,6,0,6,0,4.9,-1,Miss,0.467359999951,True,-1,stimulus_MIJA04_Yes-No Task_2019_Jun_18_1400_382,-1,True,2019_Jun_18_1400,Yes-No Task,3,MIJA04,
Yes-No Task,7,0,7,0,3.3,-1,Hit,0.50056439999,True,-1,stimulus_MIJA04_Yes-No Task_2019_Jun_18_1400_383,-1,True,2019_Jun_18_1400,Yes-No Task,3,MIJA04,
Yes-No Task,8,0,8,0,11.5,-1,False Alarm,0.53311389999,False,-1,stimulus_MIJA04_Yes-No Task_2019_Jun_18_1400_384,-1,True,2019_Jun_18_1400,Yes-No Task,3,MIJA04,
Yes-No Task,9,0,9,0,1.7,-1,Hit,0.434201400029,True,-1,stimulus_MIJA04_Yes-No Task_2019_Jun_18_1400_385,-1,True,2019_Jun_18_1400,Yes-No Task,3,MIJA04,
Yes-No Task,10,0,10,0,3.3,-1,Hit,0.533857100003,True,-1,stimulus_MIJA04_Yes-No Task_2019_Jun_18_1400_386,-1,True,2019_Jun_18_1400,Yes-No Task,3,MIJA04,
Yes-No Task,11,0,11,0,11.5,-1,False Alarm,0.400506699982,False,-1,stimulus_MIJA04_Yes-No Task_2019_Jun_18_1400_387,-1,True,2019_Jun_18_1400,Yes-No Task,3,MIJA04,
Yes-No Task,12,0,12,0,8,-1,Miss,0.367062399979,True,-1,stimulus_MIJA04_Yes-No Task_2019_Jun_18_1400_388,-1,True,2019_Jun_18_1400,Yes-No Task,3,MIJA04,
Yes-No Task,13,0,13,0,11.5,-1,False Alarm,0.43382939999,False,-1,stimulus_MIJA04_Yes-No Task_2019_Jun_18_1400_389,-1,True,2019_Jun_18_1400,Yes-No Task,3,MIJA04,
Yes-No Task,14,0,14,0,11.5,-1,Correct Rejection,0.535579800024,False,-1,stimulus_MIJA04_Yes-No Task_2019_Jun_18_1400_390,-1,True,2019_Jun_18_1400,Yes-No Task,3,MIJA04,
Yes-No Task,15,0,15,0,4.9,-1,Miss,0.434098400001,True,-1,stimulus_MIJA04_Yes-No Task_2019_Jun_18_1400_391,-1,True,2019_Jun_18_1400,Yes-No Task,3,MIJA04,
Yes-No Task,16,0,16,0,3.3,-1,False Alarm,0.33439709997,False,-1,stimulus_MIJA04_Yes-No Task_2019_Jun_18_1400_392,-1,True,2019_Jun_18_1400,Yes-No Task,3,MIJA04,
Yes-No Task,17,0,17,0,8,-1,Hit,0.566789700009,True,-1,stimulus_MIJA04_Yes-No Task_2019_Jun_18_1400_393,-1,True,2019_Jun_18_1400,Yes-No Task,3,MIJA04,
Yes-No Task,18,0,18,0,1,-1,Correct Rejection,0.535250499961,False,-1,stimulus_MIJA04_Yes-No Task_2019_Jun_18_1400_394,-1,True,2019_Jun_18_1400,Yes-No Task,3,MIJA04,
Yes-No Task,19,0,19,0,9.6,-1,Hit,0.401641000004,True,-1,stimulus_MIJA04_Yes-No Task_2019_Jun_18_1400_395,-1,True,2019_Jun_18_1400,Yes-No Task,3,MIJA04,
Yes-No Task,20,0,20,0,4.9,-1,Hit,0.432351100026,True,-1,stimulus_MIJA04_Yes-No Task_2019_Jun_18_1400_396,-1,True,2019_Jun_18_1400,Yes-No Task,3,MIJA04,
Yes-No Task,21,0,21,0,1,-1,Correct Rejection,0.466166099999,False,-1,stimulus_MIJA04_Yes-No Task_2019_Jun_18_1400_397,-1,True,2019_Jun_18_1400,Yes-No Task,3,MIJA04,
Yes-No Task,22,0,22,0,11.5,-1,Hit,0.367235300015,True,-1,stimulus_MIJA04_Yes-No Task_2019_Jun_18_1400_398,-1,True,2019_Jun_18_1400,Yes-No Task,3,MIJA04,
Yes-No Task,23,0,23,0,1,-1,Correct Rejection,0.466692599992,False,-1,stimulus_MIJA04_Yes-No Task_2019_Jun_18_1400_399,-1,True,2019_Jun_18_1400,Yes-No Task,3,MIJA04,
Yes-No Task,24,0,24,0,4.9,-1,Miss,0.433771700016,True,-1,stimulus_MIJA04_Yes-No Task_2019_Jun_18_1400_400,-1,True,2019_Jun_18_1400,Yes-No Task,3,MIJA04,
Yes-No Task,25,0,25,0,9.6,-1,Correct Rejection,0.567708100018,False,-1,stimulus_MIJA04_Yes-No Task_2019_Jun_18_1400_401,-1,True,2019_Jun_18_1400,Yes-No Task,3,MIJA04,
Yes-No Task,26,0,26,0,11.5,-1,False Alarm,0.467103099974,False,-1,stimulus_MIJA04_Yes-No Task_2019_Jun_18_1400_402,-1,True,2019_Jun_18_1400,Yes-No Task,3,MIJA04,
Yes-No Task,27,0,27,0,4.9,-1,Miss,0.733945199987,True,-1,stimulus_MIJA04_Yes-No Task_2019_Jun_18_1400_403,-1,True,2019_Jun_18_1400,Yes-No Task,3,MIJA04,
Yes-No Task,28,0,28,0,1,-1,Miss,0.60077770002,True,-1,stimulus_MIJA04_Yes-No Task_2019_Jun_18_1400_404,-1,True,2019_Jun_18_1400,Yes-No Task,3,MIJA04,
Yes-No Task,29,0,29,0,9.6,-1,Hit,0.400508099992,True,-1,stimulus_MIJA04_Yes-No Task_2019_Jun_18_1400_405,-1,True,2019_Jun_18_1400,Yes-No Task,3,MIJA04,
Yes-No Task,30,0,30,0,11.5,-1,Hit,0.432798299997,True,-1,stimulus_MIJA04_Yes-No Task_2019_Jun_18_1400_406,-1,True,2019_Jun_18_1400,Yes-No Task,3,MIJA04,
Yes-No Task,31,0,31,0,3.3,-1,False Alarm,0.368636799976,False,-1,stimulus_MIJA04_Yes-No Task_2019_Jun_18_1400_407,-1,True,2019_Jun_18_1400,Yes-No Task,3,MIJA04,
Yes-No Task,32,0,32,0,1.7,-1,Hit,0.467879000003,True,-1,stimulus_MIJA04_Yes-No Task_2019_Jun_18_1400_408,-1,True,2019_Jun_18_1400,Yes-No Task,3,MIJA04,
Yes-No Task,33,0,33,0,8,-1,Hit,0.437342200021,True,-1,stimulus_MIJA04_Yes-No Task_2019_Jun_18_1400_409,-1,True,2019_Jun_18_1400,Yes-No Task,3,MIJA04,
Yes-No Task,34,0,34,0,4.9,-1,Correct Rejection,0.567273000022,False,-1,stimulus_MIJA04_Yes-No Task_2019_Jun_18_1400_410,-1,True,2019_Jun_18_1400,Yes-No Task,3,MIJA04,
Yes-No Task,35,0,35,0,3.3,-1,Correct Rejection,0.467026200029,False,-1,stimulus_MIJA04_Yes-No Task_2019_Jun_18_1400_411,-1,True,2019_Jun_18_1400,Yes-No Task,3,MIJA04,
Yes-No Task,36,0,36,0,4.9,-1,Miss,0.467035199981,True,-1,stimulus_MIJA04_Yes-No Task_2019_Jun_18_1400_412,-1,True,2019_Jun_18_1400,Yes-No Task,3,MIJA04,
Yes-No Task,37,0,37,0,6.6,-1,False Alarm,0.499998199986,False,-1,stimulus_MIJA04_Yes-No Task_2019_Jun_18_1400_413,-1,True,2019_Jun_18_1400,Yes-No Task,3,MIJA04,
Yes-No Task,38,0,38,0,8,-1,Correct Rejection,0.467353200016,False,-1,stimulus_MIJA04_Yes-No Task_2019_Jun_18_1400_414,-1,True,2019_Jun_18_1400,Yes-No Task,3,MIJA04,
Yes-No Task,39,0,39,0,1.7,-1,Correct Rejection,0.700857000018,False,-1,stimulus_MIJA04_Yes-No Task_2019_Jun_18_1400_415,-1,True,2019_Jun_18_1400,Yes-No Task,3,MIJA04,
Yes-No Task,40,0,40,0,4.9,-1,Miss,0.433731600002,True,-1,stimulus_MIJA04_Yes-No Task_2019_Jun_18_1400_416,-1,True,2019_Jun_18_1400,Yes-No Task,3,MIJA04,
Yes-No Task,41,0,41,0,8,-1,Correct Rejection,0.467672300001,False,-1,stimulus_MIJA04_Yes-No Task_2019_Jun_18_1400_417,-1,True,2019_Jun_18_1400,Yes-No Task,3,MIJA04,
Yes-No Task,42,0,42,0,6.6,-1,False Alarm,0.500691100024,False,-1,stimulus_MIJA04_Yes-No Task_2019_Jun_18_1400_418,-1,True,2019_Jun_18_1400,Yes-No Task,3,MIJA04,
Yes-No Task,43,0,43,0,1.7,-1,Miss,0.468512399995,True,-1,stimulus_MIJA04_Yes-No Task_2019_Jun_18_1400_419,-1,True,2019_Jun_18_1400,Yes-No Task,3,MIJA04,
Yes-No Task,44,0,44,0,1,-1,Miss,0.568516900006,True,-1,stimulus_MIJA04_Yes-No Task_2019_Jun_18_1400_420,-1,True,2019_Jun_18_1400,Yes-No Task,3,MIJA04,
Yes-No Task,45,0,45,0,9.6,-1,Correct Rejection,0.432335399964,False,-1,stimulus_MIJA04_Yes-No Task_2019_Jun_18_1400_421,-1,True,2019_Jun_18_1400,Yes-No Task,3,MIJA04,
Yes-No Task,46,0,46,0,1,-1,False Alarm,0.333834699995,False,-1,stimulus_MIJA04_Yes-No Task_2019_Jun_18_1400_422,-1,True,2019_Jun_18_1400,Yes-No Task,3,MIJA04,
Yes-No Task,47,0,47,0,11.5,-1,Correct Rejection,0.500717499992,False,-1,stimulus_MIJA04_Yes-No Task_2019_Jun_18_1400_423,-1,True,2019_Jun_18_1400,Yes-No Task,3,MIJA04,
Yes-No Task,48,0,48,0,9.6,-1,Correct Rejection,0.566465099982,False,-1,stimulus_MIJA04_Yes-No Task_2019_Jun_18_1400_424,-1,True,2019_Jun_18_1400,Yes-No Task,3,MIJA04,
Yes-No Task,49,0,49,0,11.5,-1,Correct Rejection,0.467363900039,False,-1,stimulus_MIJA04_Yes-No Task_2019_Jun_18_1400_425,-1,True,2019_Jun_18_1400,Yes-No Task,3,MIJA04,
Yes-No Task,50,0,50,0,8,-1,Hit,0.600289000024,True,-1,stimulus_MIJA04_Yes-No Task_2019_Jun_18_1400_426,-1,True,2019_Jun_18_1400,Yes-No Task,3,MIJA04,
Yes-No Task,51,0,51,0,3.3,-1,Correct Rejection,0.500394999981,False,-1,stimulus_MIJA04_Yes-No Task_2019_Jun_18_1400_427,-1,True,2019_Jun_18_1400,Yes-No Task,3,MIJA04,
Yes-No Task,52,0,52,0,1.7,-1,Correct Rejection,0.434838400048,False,-1,stimulus_MIJA04_Yes-No Task_2019_Jun_18_1400_428,-1,True,2019_Jun_18_1400,Yes-No Task,3,MIJA04,
Yes-No Task,53,0,53,0,11.5,-1,Correct Rejection,0.3668511,False,-1,stimulus_MIJA04_Yes-No Task_2019_Jun_18_1400_429,-1,True,2019_Jun_18_1400,Yes-No Task,3,MIJA04,
Yes-No Task,54,0,54,0,8,-1,Hit,0.501167899987,True,-1,stimulus_MIJA04_Yes-No Task_2019_Jun_18_1400_430,-1,True,2019_Jun_18_1400,Yes-No Task,3,MIJA04,
Yes-No Task,55,0,55,0,8,-1,Hit,0.434324899979,True,-1,stimulus_MIJA04_Yes-No Task_2019_Jun_18_1400_431,-1,True,2019_Jun_18_1400,Yes-No Task,3,MIJA04,
Yes-No Task,56,0,56,0,1.7,-1,Miss,0.399737500004,True,-1,stimulus_MIJA04_Yes-No Task_2019_Jun_18_1400_432,-1,True,2019_Jun_18_1400,Yes-No Task,3,MIJA04,
Yes-No Task,57,0,57,0,8,-1,Miss,0.299925500003,True,-1,stimulus_MIJA04_Yes-No Task_2019_Jun_18_1400_433,-1,True,2019_Jun_18_1400,Yes-No Task,3,MIJA04,
Yes-No Task,58,0,58,0,3.3,-1,Correct Rejection,0.436503399978,False,-1,stimulus_MIJA04_Yes-No Task_2019_Jun_18_1400_434,-1,True,2019_Jun_18_1400,Yes-No Task,3,MIJA04,
Yes-No Task,59,0,59,0,8,-1,Correct Rejection,0.400248499995,False,-1,stimulus_MIJA04_Yes-No Task_2019_Jun_18_1400_435,-1,True,2019_Jun_18_1400,Yes-No Task,3,MIJA04,
Yes-No Task,60,0,60,0,1.7,-1,Correct Rejection,0.433802400017,False,-1,stimulus_MIJA04_Yes-No Task_2019_Jun_18_1400_436,-1,True,2019_Jun_18_1400,Yes-No Task,3,MIJA04,
Yes-No Task,61,0,61,0,9.6,-1,Hit,0.567469200003,True,-1,stimulus_MIJA04_Yes-No Task_2019_Jun_18_1400_437,-1,True,2019_Jun_18_1400,Yes-No Task,3,MIJA04,
Yes-No Task,62,0,62,0,3.3,-1,Miss,0.534314699995,True,-1,stimulus_MIJA04_Yes-No Task_2019_Jun_18_1400_438,-1,True,2019_Jun_18_1400,Yes-No Task,3,MIJA04,
Yes-No Task,63,0,63,0,9.6,-1,Hit,0.467255499971,True,-1,stimulus_MIJA04_Yes-No Task_2019_Jun_18_1400_439,-1,True,2019_Jun_18_1400,Yes-No Task,3,MIJA04,
Yes-No Task,64,0,64,0,1,-1,Miss,0.4336014,True,-1,stimulus_MIJA04_Yes-No Task_2019_Jun_18_1400_440,-1,True,2019_Jun_18_1400,Yes-No Task,3,MIJA04,
Yes-No Task,65,0,65,0,3.3,-1,Miss,0.467267,True,-1,stimulus_MIJA04_Yes-No Task_2019_Jun_18_1400_441,-1,True,2019_Jun_18_1400,Yes-No Task,3,MIJA04,
Yes-No Task,66,0,66,0,6.6,-1,Hit,0.500532899983,True,-1,stimulus_MIJA04_Yes-No Task_2019_Jun_18_1400_442,-1,True,2019_Jun_18_1400,Yes-No Task,3,MIJA04,
Yes-No Task,67,0,67,0,9.6,-1,Hit,0.500642600004,True,-1,stimulus_MIJA04_Yes-No Task_2019_Jun_18_1400_443,-1,True,2019_Jun_18_1400,Yes-No Task,3,MIJA04,
Yes-No Task,68,0,68,0,11.5,-1,Correct Rejection,0.501630799961,False,-1,stimulus_MIJA04_Yes-No Task_2019_Jun_18_1400_444,-1,True,2019_Jun_18_1400,Yes-No Task,3,MIJA04,
Yes-No Task,69,0,69,0,1,-1,Miss,0.433929099992,True,-1,stimulus_MIJA04_Yes-No Task_2019_Jun_18_1400_445,-1,True,2019_Jun_18_1400,Yes-No Task,3,MIJA04,
Yes-No Task,70,0,70,0,11.5,-1,Hit,0.400655400008,True,-1,stimulus_MIJA04_Yes-No Task_2019_Jun_18_1400_446,-1,True,2019_Jun_18_1400,Yes-No Task,3,MIJA04,
Yes-No Task,71,0,71,0,8,-1,Correct Rejection,0.4364756,False,-1,stimulus_MIJA04_Yes-No Task_2019_Jun_18_1400_447,-1,True,2019_Jun_18_1400,Yes-No Task,3,MIJA04,
Yes-No Task,72,0,72,0,1,-1,Correct Rejection,0.50051089999,False,-1,stimulus_MIJA04_Yes-No Task_2019_Jun_18_1400_448,-1,True,2019_Jun_18_1400,Yes-No Task,3,MIJA04,
Yes-No Task,73,0,73,0,1.7,-1,Correct Rejection,0.468022399989,False,-1,stimulus_MIJA04_Yes-No Task_2019_Jun_18_1400_449,-1,True,2019_Jun_18_1400,Yes-No Task,3,MIJA04,
Yes-No Task,74,0,74,0,9.6,-1,Correct Rejection,0.40255649999,False,-1,stimulus_MIJA04_Yes-No Task_2019_Jun_18_1400_450,-1,True,2019_Jun_18_1400,Yes-No Task,3,MIJA04,
Yes-No Task,0,0,0,0,3.3,-1,Correct Rejection,0.467369999969,False,-1,stimulus_MIJA04_Yes-No Task_2019_Jun_18_1400_451,-1,True,2019_Jun_18_1400,Yes-No Task,3,MIJA04,
Yes-No Task,1,0,1,0,1,-1,Correct Rejection,0.400513900036,False,-1,stimulus_MIJA04_Yes-No Task_2019_Jun_18_1400_452,-1,True,2019_Jun_18_1400,Yes-No Task,3,MIJA04,
Yes-No Task,2,0,2,0,1,-1,Miss,0.367442000017,True,-1,stimulus_MIJA04_Yes-No Task_2019_Jun_18_1400_453,-1,True,2019_Jun_18_1400,Yes-No Task,3,MIJA04,
Yes-No Task,3,0,3,0,4.9,-1,Miss,0.366414799995,True,-1,stimulus_MIJA04_Yes-No Task_2019_Jun_18_1400_454,-1,True,2019_Jun_18_1400,Yes-No Task,3,MIJA04,
Yes-No Task,4,0,4,0,1,-1,Correct Rejection,0.467133499973,False,-1,stimulus_MIJA04_Yes-No Task_2019_Jun_18_1400_455,-1,True,2019_Jun_18_1400,Yes-No Task,3,MIJA04,
Yes-No Task,5,0,5,0,8,-1,Correct Rejection,0.466533800005,False,-1,stimulus_MIJA04_Yes-No Task_2019_Jun_18_1400_456,-1,True,2019_Jun_18_1400,Yes-No Task,3,MIJA04,
Yes-No Task,6,0,6,0,4.9,-1,False Alarm,0.534103800019,False,-1,stimulus_MIJA04_Yes-No Task_2019_Jun_18_1400_457,-1,True,2019_Jun_18_1400,Yes-No Task,3,MIJA04,
Yes-No Task,7,0,7,0,11.5,-1,Hit,0.433780199965,True,-1,stimulus_MIJA04_Yes-No Task_2019_Jun_18_1400_458,-1,True,2019_Jun_18_1400,Yes-No Task,3,MIJA04,
Yes-No Task,8,0,8,0,1,-1,Miss,0.400287099998,True,-1,stimulus_MIJA04_Yes-No Task_2019_Jun_18_1400_459,-1,True,2019_Jun_18_1400,Yes-No Task,3,MIJA04,
Yes-No Task,9,0,9,0,4.9,-1,Miss,0.467072099971,True,-1,stimulus_MIJA04_Yes-No Task_2019_Jun_18_1400_460,-1,True,2019_Jun_18_1400,Yes-No Task,3,MIJA04,
Yes-No Task,10,0,10,0,4.9,-1,Correct Rejection,0.534535099985,False,-1,stimulus_MIJA04_Yes-No Task_2019_Jun_18_1400_461,-1,True,2019_Jun_18_1400,Yes-No Task,3,MIJA04,
Yes-No Task,11,0,11,0,11.5,-1,Correct Rejection,0.433777700004,False,-1,stimulus_MIJA04_Yes-No Task_2019_Jun_18_1400_462,-1,True,2019_Jun_18_1400,Yes-No Task,3,MIJA04,
Yes-No Task,12,0,12,0,6.6,-1,Correct Rejection,0.467306100007,False,-1,stimulus_MIJA04_Yes-No Task_2019_Jun_18_1400_463,-1,True,2019_Jun_18_1400,Yes-No Task,3,MIJA04,
Yes-No Task,13,0,13,0,8,-1,Hit,0.433402199997,True,-1,stimulus_MIJA04_Yes-No Task_2019_Jun_18_1400_464,-1,True,2019_Jun_18_1400,Yes-No Task,3,MIJA04,
Yes-No Task,14,0,14,0,6.6,-1,Hit,0.467153200007,True,-1,stimulus_MIJA04_Yes-No Task_2019_Jun_18_1400_465,-1,True,2019_Jun_18_1400,Yes-No Task,3,MIJA04,
Yes-No Task,15,0,15,0,1,-1,Miss,0.467074299988,True,-1,stimulus_MIJA04_Yes-No Task_2019_Jun_18_1400_466,-1,True,2019_Jun_18_1400,Yes-No Task,3,MIJA04,
Yes-No Task,16,0,16,0,1,-1,Miss,0.467076300003,True,-1,stimulus_MIJA04_Yes-No Task_2019_Jun_18_1400_467,-1,True,2019_Jun_18_1400,Yes-No Task,3,MIJA04,
Yes-No Task,17,0,17,0,11.5,-1,Hit,0.400416299992,True,-1,stimulus_MIJA04_Yes-No Task_2019_Jun_18_1400_468,-1,True,2019_Jun_18_1400,Yes-No Task,3,MIJA04,
Yes-No Task,18,0,18,0,8,-1,Miss,0.568033299991,True,-1,stimulus_MIJA04_Yes-No Task_2019_Jun_18_1400_469,-1,True,2019_Jun_18_1400,Yes-No Task,3,MIJA04,
Yes-No Task,19,0,19,0,11.5,-1,Hit,0.500510600046,True,-1,stimulus_MIJA04_Yes-No Task_2019_Jun_18_1400_470,-1,True,2019_Jun_18_1400,Yes-No Task,3,MIJA04,
Yes-No Task,20,0,20,0,1,-1,Correct Rejection,0.500364599982,False,-1,stimulus_MIJA04_Yes-No Task_2019_Jun_18_1400_471,-1,True,2019_Jun_18_1400,Yes-No Task,3,MIJA04,
Yes-No Task,21,0,21,0,1.7,-1,Miss,0.4685054,True,-1,stimulus_MIJA04_Yes-No Task_2019_Jun_18_1400_472,-1,True,2019_Jun_18_1400,Yes-No Task,3,MIJA04,
Yes-No Task,22,0,22,0,11.5,-1,Hit,0.367054199975,True,-1,stimulus_MIJA04_Yes-No Task_2019_Jun_18_1400_473,-1,True,2019_Jun_18_1400,Yes-No Task,3,MIJA04,
Yes-No Task,23,0,23,0,9.6,-1,Hit,0.401391699968,True,-1,stimulus_MIJA04_Yes-No Task_2019_Jun_18_1400_474,-1,True,2019_Jun_18_1400,Yes-No Task,3,MIJA04,
Yes-No Task,24,0,24,0,8,-1,Hit,0.40081229998,True,-1,stimulus_MIJA04_Yes-No Task_2019_Jun_18_1400_475,-1,True,2019_Jun_18_1400,Yes-No Task,3,MIJA04,
Yes-No Task,25,0,25,0,1.7,-1,Miss,0.43356819998,True,-1,stimulus_MIJA04_Yes-No Task_2019_Jun_18_1400_476,-1,True,2019_Jun_18_1400,Yes-No Task,3,MIJA04,
Yes-No Task,26,0,26,0,4.9,-1,Miss,0.433869300003,True,-1,stimulus_MIJA04_Yes-No Task_2019_Jun_18_1400_477,-1,True,2019_Jun_18_1400,Yes-No Task,3,MIJA04,
Yes-No Task,27,0,27,0,3.3,-1,Correct Rejection,0.434527400008,False,-1,stimulus_MIJA04_Yes-No Task_2019_Jun_18_1400_478,-1,True,2019_Jun_18_1400,Yes-No Task,3,MIJA04,
Yes-No Task,28,0,28,0,11.5,-1,Hit,0.400290999969,True,-1,stimulus_MIJA04_Yes-No Task_2019_Jun_18_1400_479,-1,True,2019_Jun_18_1400,Yes-No Task,3,MIJA04,
Yes-No Task,29,0,29,0,4.9,-1,Correct Rejection,0.567403899971,False,-1,stimulus_MIJA04_Yes-No Task_2019_Jun_18_1400_480,-1,True,2019_Jun_18_1400,Yes-No Task,3,MIJA04,
Yes-No Task,30,0,30,0,1,-1,Correct Rejection,0.401202599984,False,-1,stimulus_MIJA04_Yes-No Task_2019_Jun_18_1400_481,-1,True,2019_Jun_18_1400,Yes-No Task,3,MIJA04,
Yes-No Task,31,0,31,0,9.6,-1,Correct Rejection,0.367229100026,False,-1,stimulus_MIJA04_Yes-No Task_2019_Jun_18_1400_482,-1,True,2019_Jun_18_1400,Yes-No Task,3,MIJA04,
Yes-No Task,32,0,32,0,11.5,-1,Correct Rejection,0.333297099976,False,-1,stimulus_MIJA04_Yes-No Task_2019_Jun_18_1400_483,-1,True,2019_Jun_18_1400,Yes-No Task,3,MIJA04,
Yes-No Task,33,0,33,0,9.6,-1,Miss,0.333074400027,True,-1,stimulus_MIJA04_Yes-No Task_2019_Jun_18_1400_484,-1,True,2019_Jun_18_1400,Yes-No Task,3,MIJA04,
Yes-No Task,34,0,34,0,1,-1,Correct Rejection,0.400896699983,False,-1,stimulus_MIJA04_Yes-No Task_2019_Jun_18_1400_485,-1,True,2019_Jun_18_1400,Yes-No Task,3,MIJA04,
Yes-No Task,35,0,35,0,6.6,-1,Miss,0.502252500039,True,-1,stimulus_MIJA04_Yes-No Task_2019_Jun_18_1400_486,-1,True,2019_Jun_18_1400,Yes-No Task,3,MIJA04,
Yes-No Task,36,0,36,0,1.7,-1,Hit,0.434635800018,True,-1,stimulus_MIJA04_Yes-No Task_2019_Jun_18_1400_487,-1,True,2019_Jun_18_1400,Yes-No Task,3,MIJA04,
Yes-No Task,37,0,37,0,8,-1,Correct Rejection,0.434930799995,False,-1,stimulus_MIJA04_Yes-No Task_2019_Jun_18_1400_488,-1,True,2019_Jun_18_1400,Yes-No Task,3,MIJA04,
Yes-No Task,38,0,38,0,6.6,-1,Correct Rejection,0.433955599961,False,-1,stimulus_MIJA04_Yes-No Task_2019_Jun_18_1400_489,-1,True,2019_Jun_18_1400,Yes-No Task,3,MIJA04,
Yes-No Task,39,0,39,0,8,-1,Correct Rejection,0.467099000001,False,-1,stimulus_MIJA04_Yes-No Task_2019_Jun_18_1400_490,-1,True,2019_Jun_18_1400,Yes-No Task,3,MIJA04,
Yes-No Task,40,0,40,0,8,-1,Correct Rejection,0.400555900007,False,-1,stimulus_MIJA04_Yes-No Task_2019_Jun_18_1400_491,-1,True,2019_Jun_18_1400,Yes-No Task,3,MIJA04,
Yes-No Task,41,0,41,0,1.7,-1,Miss,0.432428999979,True,-1,stimulus_MIJA04_Yes-No Task_2019_Jun_18_1400_492,-1,True,2019_Jun_18_1400,Yes-No Task,3,MIJA04,
Yes-No Task,42,0,42,0,4.9,-1,Correct Rejection,0.467240999977,False,-1,stimulus_MIJA04_Yes-No Task_2019_Jun_18_1400_493,-1,True,2019_Jun_18_1400,Yes-No Task,3,MIJA04,
Yes-No Task,43,0,43,0,1.7,-1,False Alarm,0.533985199989,False,-1,stimulus_MIJA04_Yes-No Task_2019_Jun_18_1400_494,-1,True,2019_Jun_18_1400,Yes-No Task,3,MIJA04,
Yes-No Task,44,0,44,0,1,-1,Hit,0.335318099998,True,-1,stimulus_MIJA04_Yes-No Task_2019_Jun_18_1400_495,-1,True,2019_Jun_18_1400,Yes-No Task,3,MIJA04,
Yes-No Task,45,0,45,0,4.9,-1,Hit,0.465991800011,True,-1,stimulus_MIJA04_Yes-No Task_2019_Jun_18_1400_496,-1,True,2019_Jun_18_1400,Yes-No Task,3,MIJA04,
Yes-No Task,46,0,46,0,3.3,-1,Miss,0.434156700037,True,-1,stimulus_MIJA04_Yes-No Task_2019_Jun_18_1400_497,-1,True,2019_Jun_18_1400,Yes-No Task,3,MIJA04,
Yes-No Task,47,0,47,0,6.6,-1,False Alarm,0.368008300022,False,-1,stimulus_MIJA04_Yes-No Task_2019_Jun_18_1400_498,-1,True,2019_Jun_18_1400,Yes-No Task,3,MIJA04,
Yes-No Task,48,0,48,0,3.3,-1,False Alarm,0.367033199989,False,-1,stimulus_MIJA04_Yes-No Task_2019_Jun_18_1400_499,-1,True,2019_Jun_18_1400,Yes-No Task,3,MIJA04,
Yes-No Task,49,0,49,0,1,-1,Miss,0.433396799956,True,-1,stimulus_MIJA04_Yes-No Task_2019_Jun_18_1400_500,-1,True,2019_Jun_18_1400,Yes-No Task,3,MIJA04,
Yes-No Task,50,0,50,0,4.9,-1,Hit,0.433588900021,True,-1,stimulus_MIJA04_Yes-No Task_2019_Jun_18_1400_501,-1,True,2019_Jun_18_1400,Yes-No Task,3,MIJA04,
Yes-No Task,51,0,51,0,11.5,-1,Hit,0.433740699955,True,-1,stimulus_MIJA04_Yes-No Task_2019_Jun_18_1400_502,-1,True,2019_Jun_18_1400,Yes-No Task,3,MIJA04,
Yes-No Task,52,0,52,0,8,-1,Hit,0.434221000003,True,-1,stimulus_MIJA04_Yes-No Task_2019_Jun_18_1400_503,-1,True,2019_Jun_18_1400,Yes-No Task,3,MIJA04,
Yes-No Task,53,0,53,0,6.6,-1,Miss,0.467520300008,True,-1,stimulus_MIJA04_Yes-No Task_2019_Jun_18_1400_504,-1,True,2019_Jun_18_1400,Yes-No Task,3,MIJA04,
Yes-No Task,54,0,54,0,4.9,-1,False Alarm,0.335308400041,False,-1,stimulus_MIJA04_Yes-No Task_2019_Jun_18_1400_505,-1,True,2019_Jun_18_1400,Yes-No Task,3,MIJA04,
Yes-No Task,55,0,55,0,9.6,-1,Hit,0.500576800026,True,-1,stimulus_MIJA04_Yes-No Task_2019_Jun_18_1400_506,-1,True,2019_Jun_18_1400,Yes-No Task,3,MIJA04,
Yes-No Task,56,0,56,0,8,-1,Correct Rejection,0.600447400007,False,-1,stimulus_MIJA04_Yes-No Task_2019_Jun_18_1400_507,-1,True,2019_Jun_18_1400,Yes-No Task,3,MIJA04,
Yes-No Task,57,0,57,0,9.6,-1,Hit,0.400926499977,True,-1,stimulus_MIJA04_Yes-No Task_2019_Jun_18_1400_508,-1,True,2019_Jun_18_1400,Yes-No Task,3,MIJA04,
Yes-No Task,58,0,58,0,3.3,-1,Correct Rejection,0.433928399987,False,-1,stimulus_MIJA04_Yes-No Task_2019_Jun_18_1400_509,-1,True,2019_Jun_18_1400,Yes-No Task,3,MIJA04,
Yes-No Task,59,0,59,0,9.6,-1,Correct Rejection,0.467229000002,False,-1,stimulus_MIJA04_Yes-No Task_2019_Jun_18_1400_510,-1,True,2019_Jun_18_1400,Yes-No Task,3,MIJA04,
Yes-No Task,60,0,60,0,9.6,-1,Correct Rejection,0.466846099996,False,-1,stimulus_MIJA04_Yes-No Task_2019_Jun_18_1400_511,-1,True,2019_Jun_18_1400,Yes-No Task,3,MIJA04,
Yes-No Task,61,0,61,0,8,-1,Miss,0.39975729998,True,-1,stimulus_MIJA04_Yes-No Task_2019_Jun_18_1400_512,-1,True,2019_Jun_18_1400,Yes-No Task,3,MIJA04,
Yes-No Task,62,0,62,0,8,-1,Correct Rejection,0.466906699992,False,-1,stimulus_MIJA04_Yes-No Task_2019_Jun_18_1400_513,-1,True,2019_Jun_18_1400,Yes-No Task,3,MIJA04,
Yes-No Task,63,0,63,0,1.7,-1,Miss,0.500802099996,True,-1,stimulus_MIJA04_Yes-No Task_2019_Jun_18_1400_514,-1,True,2019_Jun_18_1400,Yes-No Task,3,MIJA04,
Yes-No Task,64,0,64,0,8,-1,Correct Rejection,0.533392200014,False,-1,stimulus_MIJA04_Yes-No Task_2019_Jun_18_1400_515,-1,True,2019_Jun_18_1400,Yes-No Task,3,MIJA04,
Yes-No Task,65,0,65,0,4.9,-1,Miss,0.434103700041,True,-1,stimulus_MIJA04_Yes-No Task_2019_Jun_18_1400_516,-1,True,2019_Jun_18_1400,Yes-No Task,3,MIJA04,
Yes-No Task,66,0,66,0,1.7,-1,Correct Rejection,0.433291200025,False,-1,stimulus_MIJA04_Yes-No Task_2019_Jun_18_1400_517,-1,True,2019_Jun_18_1400,Yes-No Task,3,MIJA04,
Yes-No Task,67,0,67,0,3.3,-1,Miss,0.432750499982,True,-1,stimulus_MIJA04_Yes-No Task_2019_Jun_18_1400_518,-1,True,2019_Jun_18_1400,Yes-No Task,3,MIJA04,
Yes-No Task,68,0,68,0,1.7,-1,Correct Rejection,0.433845799998,False,-1,stimulus_MIJA04_Yes-No Task_2019_Jun_18_1400_519,-1,True,2019_Jun_18_1400,Yes-No Task,3,MIJA04,
Yes-No Task,69,0,69,0,3.3,-1,Miss,0.601400099986,True,-1,stimulus_MIJA04_Yes-No Task_2019_Jun_18_1400_520,-1,True,2019_Jun_18_1400,Yes-No Task,3,MIJA04,
Yes-No Task,70,0,70,0,1.7,-1,Correct Rejection,0.669684800028,False,-1,stimulus_MIJA04_Yes-No Task_2019_Jun_18_1400_521,-1,True,2019_Jun_18_1400,Yes-No Task,3,MIJA04,
Yes-No Task,71,0,71,0,3.3,-1,False Alarm,0.468060299987,False,-1,stimulus_MIJA04_Yes-No Task_2019_Jun_18_1400_522,-1,True,2019_Jun_18_1400,Yes-No Task,3,MIJA04,
Yes-No Task,72,0,72,0,6.6,-1,Correct Rejection,0.433428199962,False,-1,stimulus_MIJA04_Yes-No Task_2019_Jun_18_1400_523,-1,True,2019_Jun_18_1400,Yes-No Task,3,MIJA04,
Yes-No Task,73,0,73,0,6.6,-1,Hit,0.434257199988,True,-1,stimulus_MIJA04_Yes-No Task_2019_Jun_18_1400_524,-1,True,2019_Jun_18_1400,Yes-No Task,3,MIJA04,
Yes-No Task,74,0,74,0,4.9,-1,Correct Rejection,0.466627700021,False,-1,stimulus_MIJA04_Yes-No Task_2019_Jun_18_1400_525,-1,True,2019_Jun_18_1400,Yes-No Task,3,MIJA04,
Yes-No Task,0,0,0,0,1.7,-1,Correct Rejection,0.433956000023,False,-1,stimulus_MIJA04_Yes-No Task_2019_Jun_18_1400_526,-1,True,2019_Jun_18_1400,Yes-No Task,3,MIJA04,
Yes-No Task,1,0,1,0,6.6,-1,Miss,0.366251399973,True,-1,stimulus_MIJA04_Yes-No Task_2019_Jun_18_1400_527,-1,True,2019_Jun_18_1400,Yes-No Task,3,MIJA04,
Yes-No Task,2,0,2,0,4.9,-1,Miss,0.333604599989,True,-1,stimulus_MIJA04_Yes-No Task_2019_Jun_18_1400_528,-1,True,2019_Jun_18_1400,Yes-No Task,3,MIJA04,
Yes-No Task,3,0,3,0,1.7,-1,Miss,0.500386999978,True,-1,stimulus_MIJA04_Yes-No Task_2019_Jun_18_1400_529,-1,True,2019_Jun_18_1400,Yes-No Task,3,MIJA04,
Yes-No Task,4,0,4,0,1.7,-1,False Alarm,0.434041400033,False,-1,stimulus_MIJA04_Yes-No Task_2019_Jun_18_1400_530,-1,True,2019_Jun_18_1400,Yes-No Task,3,MIJA04,
Yes-No Task,5,0,5,0,3.3,-1,False Alarm,0.469270800008,False,-1,stimulus_MIJA04_Yes-No Task_2019_Jun_18_1400_531,-1,True,2019_Jun_18_1400,Yes-No Task,3,MIJA04,
Yes-No Task,6,0,6,0,9.6,-1,Hit,0.433351200016,True,-1,stimulus_MIJA04_Yes-No Task_2019_Jun_18_1400_532,-1,True,2019_Jun_18_1400,Yes-No Task,3,MIJA04,
Yes-No Task,7,0,7,0,1.7,-1,Correct Rejection,0.468181299977,False,-1,stimulus_MIJA04_Yes-No Task_2019_Jun_18_1400_533,-1,True,2019_Jun_18_1400,Yes-No Task,3,MIJA04,
Yes-No Task,8,0,8,0,9.6,-1,False Alarm,0.367575699987,False,-1,stimulus_MIJA04_Yes-No Task_2019_Jun_18_1400_534,-1,True,2019_Jun_18_1400,Yes-No Task,3,MIJA04,
Yes-No Task,9,0,9,0,1.7,-1,Hit,0.266762299987,True,-1,stimulus_MIJA04_Yes-No Task_2019_Jun_18_1400_535,-1,True,2019_Jun_18_1400,Yes-No Task,3,MIJA04,
Yes-No Task,10,0,10,0,1,-1,Miss,0.433550699963,True,-1,stimulus_MIJA04_Yes-No Task_2019_Jun_18_1400_536,-1,True,2019_Jun_18_1400,Yes-No Task,3,MIJA04,
Yes-No Task,11,0,11,0,11.5,-1,Hit,0.267004500027,True,-1,stimulus_MIJA04_Yes-No Task_2019_Jun_18_1400_537,-1,True,2019_Jun_18_1400,Yes-No Task,3,MIJA04,
Yes-No Task,12,0,12,0,1.7,-1,Hit,0.33324539999,True,-1,stimulus_MIJA04_Yes-No Task_2019_Jun_18_1400_538,-1,True,2019_Jun_18_1400,Yes-No Task,3,MIJA04,
Yes-No Task,13,0,13,0,4.9,-1,False Alarm,0.434492599976,False,-1,stimulus_MIJA04_Yes-No Task_2019_Jun_18_1400_539,-1,True,2019_Jun_18_1400,Yes-No Task,3,MIJA04,
Yes-No Task,14,0,14,0,4.9,-1,False Alarm,0.467407600023,False,-1,stimulus_MIJA04_Yes-No Task_2019_Jun_18_1400_540,-1,True,2019_Jun_18_1400,Yes-No Task,3,MIJA04,
Yes-No Task,15,0,15,0,1.7,-1,False Alarm,0.400389899965,False,-1,stimulus_MIJA04_Yes-No Task_2019_Jun_18_1400_541,-1,True,2019_Jun_18_1400,Yes-No Task,3,MIJA04,
Yes-No Task,16,0,16,0,1,-1,False Alarm,0.401186699979,False,-1,stimulus_MIJA04_Yes-No Task_2019_Jun_18_1400_542,-1,True,2019_Jun_18_1400,Yes-No Task,3,MIJA04,
Yes-No Task,17,0,17,0,8,-1,False Alarm,0.334058000008,False,-1,stimulus_MIJA04_Yes-No Task_2019_Jun_18_1400_543,-1,True,2019_Jun_18_1400,Yes-No Task,3,MIJA04,
Yes-No Task,18,0,18,0,1.7,-1,Hit,0.300985800044,True,-1,stimulus_MIJA04_Yes-No Task_2019_Jun_18_1400_544,-1,True,2019_Jun_18_1400,Yes-No Task,3,MIJA04,
Yes-No Task,19,0,19,0,11.5,-1,Correct Rejection,0.433676299988,False,-1,stimulus_MIJA04_Yes-No Task_2019_Jun_18_1400_545,-1,True,2019_Jun_18_1400,Yes-No Task,3,MIJA04,
Yes-No Task,20,0,20,0,3.3,-1,Hit,0.33419329999,True,-1,stimulus_MIJA04_Yes-No Task_2019_Jun_18_1400_546,-1,True,2019_Jun_18_1400,Yes-No Task,3,MIJA04,
Yes-No Task,21,0,21,0,8,-1,False Alarm,0.299567699956,False,-1,stimulus_MIJA04_Yes-No Task_2019_Jun_18_1400_547,-1,True,2019_Jun_18_1400,Yes-No Task,3,MIJA04,
Yes-No Task,22,0,22,0,1,-1,Hit,0.367948699975,True,-1,stimulus_MIJA04_Yes-No Task_2019_Jun_18_1400_548,-1,True,2019_Jun_18_1400,Yes-No Task,3,MIJA04,
Yes-No Task,23,0,23,0,11.5,-1,Hit,0.334537199989,True,-1,stimulus_MIJA04_Yes-No Task_2019_Jun_18_1400_549,-1,True,2019_Jun_18_1400,Yes-No Task,3,MIJA04,
Yes-No Task,24,0,24,0,1.7,-1,Hit,0.333479399967,True,-1,stimulus_MIJA04_Yes-No Task_2019_Jun_18_1400_550,-1,True,2019_Jun_18_1400,Yes-No Task,3,MIJA04,
Yes-No Task,25,0,25,0,6.6,-1,Correct Rejection,0.300083900045,False,-1,stimulus_MIJA04_Yes-No Task_2019_Jun_18_1400_551,-1,True,2019_Jun_18_1400,Yes-No Task,3,MIJA04,
Yes-No Task,26,0,26,0,4.9,-1,Correct Rejection,0.333828800009,False,-1,stimulus_MIJA04_Yes-No Task_2019_Jun_18_1400_552,-1,True,2019_Jun_18_1400,Yes-No Task,3,MIJA04,
Yes-No Task,27,0,27,0,11.5,-1,Hit,0.334349700017,True,-1,stimulus_MIJA04_Yes-No Task_2019_Jun_18_1400_553,-1,True,2019_Jun_18_1400,Yes-No Task,3,MIJA04,
Yes-No Task,28,0,28,0,6.6,-1,False Alarm,0.369268700015,False,-1,stimulus_MIJA04_Yes-No Task_2019_Jun_18_1400_554,-1,True,2019_Jun_18_1400,Yes-No Task,3,MIJA04,
Yes-No Task,29,0,29,0,1.7,-1,False Alarm,0.300299399998,False,-1,stimulus_MIJA04_Yes-No Task_2019_Jun_18_1400_555,-1,True,2019_Jun_18_1400,Yes-No Task,3,MIJA04,
Yes-No Task,30,0,30,0,4.9,-1,False Alarm,0.467361100018,False,-1,stimulus_MIJA04_Yes-No Task_2019_Jun_18_1400_556,-1,True,2019_Jun_18_1400,Yes-No Task,3,MIJA04,
Yes-No Task,31,0,31,0,1,-1,Correct Rejection,0.566464699979,False,-1,stimulus_MIJA04_Yes-No Task_2019_Jun_18_1400_557,-1,True,2019_Jun_18_1400,Yes-No Task,3,MIJA04,
Yes-No Task,32,0,32,0,1.7,-1,Miss,0.467085100012,True,-1,stimulus_MIJA04_Yes-No Task_2019_Jun_18_1400_558,-1,True,2019_Jun_18_1400,Yes-No Task,3,MIJA04,
Yes-No Task,33,0,33,0,11.5,-1,Hit,0.368777900003,True,-1,stimulus_MIJA04_Yes-No Task_2019_Jun_18_1400_559,-1,True,2019_Jun_18_1400,Yes-No Task,3,MIJA04,
Yes-No Task,34,0,34,0,9.6,-1,Hit,0.398455700022,True,-1,stimulus_MIJA04_Yes-No Task_2019_Jun_18_1400_560,-1,True,2019_Jun_18_1400,Yes-No Task,3,MIJA04,
Yes-No Task,35,0,35,0,1.7,-1,False Alarm,0.405258300016,False,-1,stimulus_MIJA04_Yes-No Task_2019_Jun_18_1400_561,-1,True,2019_Jun_18_1400,Yes-No Task,3,MIJA04,
Yes-No Task,36,0,36,0,6.6,-1,False Alarm,0.467618399998,False,-1,stimulus_MIJA04_Yes-No Task_2019_Jun_18_1400_562,-1,True,2019_Jun_18_1400,Yes-No Task,3,MIJA04,
Yes-No Task,37,0,37,0,6.6,-1,Correct Rejection,0.434077500016,False,-1,stimulus_MIJA04_Yes-No Task_2019_Jun_18_1400_563,-1,True,2019_Jun_18_1400,Yes-No Task,3,MIJA04,
Yes-No Task,38,0,38,0,8,-1,Correct Rejection,0.467513900017,False,-1,stimulus_MIJA04_Yes-No Task_2019_Jun_18_1400_564,-1,True,2019_Jun_18_1400,Yes-No Task,3,MIJA04,
Yes-No Task,39,0,39,0,9.6,-1,False Alarm,0.534391900001,False,-1,stimulus_MIJA04_Yes-No Task_2019_Jun_18_1400_565,-1,True,2019_Jun_18_1400,Yes-No Task,3,MIJA04,
Yes-No Task,40,0,40,0,1.7,-1,Correct Rejection,0.466540599999,False,-1,stimulus_MIJA04_Yes-No Task_2019_Jun_18_1400_566,-1,True,2019_Jun_18_1400,Yes-No Task,3,MIJA04,
Yes-No Task,41,0,41,0,3.3,-1,False Alarm,0.400234000001,False,-1,stimulus_MIJA04_Yes-No Task_2019_Jun_18_1400_567,-1,True,2019_Jun_18_1400,Yes-No Task,3,MIJA04,
Yes-No Task,42,0,42,0,8,-1,False Alarm,0.4013194,False,-1,stimulus_MIJA04_Yes-No Task_2019_Jun_18_1400_568,-1,True,2019_Jun_18_1400,Yes-No Task,3,MIJA04,
Yes-No Task,43,0,43,0,1.7,-1,Miss,0.468265699979,True,-1,stimulus_MIJA04_Yes-No Task_2019_Jun_18_1400_569,-1,True,2019_Jun_18_1400,Yes-No Task,3,MIJA04,
Yes-No Task,44,0,44,0,8,-1,False Alarm,0.365897300013,False,-1,stimulus_MIJA04_Yes-No Task_2019_Jun_18_1400_570,-1,True,2019_Jun_18_1400,Yes-No Task,3,MIJA04,
Yes-No Task,45,0,45,0,9.6,-1,False Alarm,0.466565900017,False,-1,stimulus_MIJA04_Yes-No Task_2019_Jun_18_1400_571,-1,True,2019_Jun_18_1400,Yes-No Task,3,MIJA04,
Yes-No Task,46,0,46,0,1,-1,Correct Rejection,0.3014616,False,-1,stimulus_MIJA04_Yes-No Task_2019_Jun_18_1400_572,-1,True,2019_Jun_18_1400,Yes-No Task,3,MIJA04,
Yes-No Task,47,0,47,0,1.7,-1,False Alarm,0.29965880001,False,-1,stimulus_MIJA04_Yes-No Task_2019_Jun_18_1400_573,-1,True,2019_Jun_18_1400,Yes-No Task,3,MIJA04,
Yes-No Task,48,0,48,0,6.6,-1,Miss,0.233709000051,True,-1,stimulus_MIJA04_Yes-No Task_2019_Jun_18_1400_574,-1,True,2019_Jun_18_1400,Yes-No Task,3,MIJA04,
Yes-No Task,49,0,49,0,8,-1,False Alarm,0.500089599984,False,-1,stimulus_MIJA04_Yes-No Task_2019_Jun_18_1400_575,-1,True,2019_Jun_18_1400,Yes-No Task,3,MIJA04,
Yes-No Task,50,0,50,0,11.5,-1,Correct Rejection,0.434048300027,False,-1,stimulus_MIJA04_Yes-No Task_2019_Jun_18_1400_576,-1,True,2019_Jun_18_1400,Yes-No Task,3,MIJA04,
Yes-No Task,51,0,51,0,11.5,-1,Hit,0.30122969998,True,-1,stimulus_MIJA04_Yes-No Task_2019_Jun_18_1400_577,-1,True,2019_Jun_18_1400,Yes-No Task,3,MIJA04,
Yes-No Task,52,0,52,0,11.5,-1,Hit,0.334143200016,True,-1,stimulus_MIJA04_Yes-No Task_2019_Jun_18_1400_578,-1,True,2019_Jun_18_1400,Yes-No Task,3,MIJA04,
Yes-No Task,53,0,53,0,1.7,-1,Hit,0.334511399968,True,-1,stimulus_MIJA04_Yes-No Task_2019_Jun_18_1400_579,-1,True,2019_Jun_18_1400,Yes-No Task,3,MIJA04,
Yes-No Task,54,0,54,0,9.6,-1,Correct Rejection,0.300356599968,False,-1,stimulus_MIJA04_Yes-No Task_2019_Jun_18_1400_580,-1,True,2019_Jun_18_1400,Yes-No Task,3,MIJA04,
Yes-No Task,55,0,55,0,4.9,-1,Hit,0.300438800012,True,-1,stimulus_MIJA04_Yes-No Task_2019_Jun_18_1400_581,-1,True,2019_Jun_18_1400,Yes-No Task,3,MIJA04,
Yes-No Task,56,0,56,0,1,-1,Correct Rejection,0.368610599951,False,-1,stimulus_MIJA04_Yes-No Task_2019_Jun_18_1400_582,-1,True,2019_Jun_18_1400,Yes-No Task,3,MIJA04,
Yes-No Task,57,0,57,0,11.5,-1,Hit,0.235604999994,True,-1,stimulus_MIJA04_Yes-No Task_2019_Jun_18_1400_583,-1,True,2019_Jun_18_1400,Yes-No Task,3,MIJA04,
Yes-No Task,58,0,58,0,4.9,-1,Correct Rejection,0.466893000004,False,-1,stimulus_MIJA04_Yes-No Task_2019_Jun_18_1400_584,-1,True,2019_Jun_18_1400,Yes-No Task,3,MIJA04,
Yes-No Task,59,0,59,0,6.6,-1,Hit,0.333874999953,True,-1,stimulus_MIJA04_Yes-No Task_2019_Jun_18_1400_585,-1,True,2019_Jun_18_1400,Yes-No Task,3,MIJA04,
Yes-No Task,60,0,60,0,4.9,-1,Correct Rejection,0.433581899968,False,-1,stimulus_MIJA04_Yes-No Task_2019_Jun_18_1400_586,-1,True,2019_Jun_18_1400,Yes-No Task,3,MIJA04,
Yes-No Task,61,0,61,0,6.6,-1,Correct Rejection,0.399857300043,False,-1,stimulus_MIJA04_Yes-No Task_2019_Jun_18_1400_587,-1,True,2019_Jun_18_1400,Yes-No Task,3,MIJA04,
Yes-No Task,62,0,62,0,11.5,-1,Correct Rejection,0.40007839998,False,-1,stimulus_MIJA04_Yes-No Task_2019_Jun_18_1400_588,-1,True,2019_Jun_18_1400,Yes-No Task,3,MIJA04,
Yes-No Task,63,0,63,0,1.7,-1,Miss,0.400436900032,True,-1,stimulus_MIJA04_Yes-No Task_2019_Jun_18_1400_589,-1,True,2019_Jun_18_1400,Yes-No Task,3,MIJA04,
Yes-No Task,64,0,64,0,3.3,-1,False Alarm,0.400578100001,False,-1,stimulus_MIJA04_Yes-No Task_2019_Jun_18_1400_590,-1,True,2019_Jun_18_1400,Yes-No Task,3,MIJA04,
Yes-No Task,65,0,65,0,6.6,-1,Correct Rejection,0.43363720004,False,-1,stimulus_MIJA04_Yes-No Task_2019_Jun_18_1400_591,-1,True,2019_Jun_18_1400,Yes-No Task,3,MIJA04,
Yes-No Task,66,0,66,0,1.7,-1,Correct Rejection,0.400676499994,False,-1,stimulus_MIJA04_Yes-No Task_2019_Jun_18_1400_592,-1,True,2019_Jun_18_1400,Yes-No Task,3,MIJA04,
Yes-No Task,67,0,67,0,1.7,-1,False Alarm,0.433379499998,False,-1,stimulus_MIJA04_Yes-No Task_2019_Jun_18_1400_593,-1,True,2019_Jun_18_1400,Yes-No Task,3,MIJA04,
Yes-No Task,68,0,68,0,3.3,-1,Correct Rejection,0.433491700038,False,-1,stimulus_MIJA04_Yes-No Task_2019_Jun_18_1400_594,-1,True,2019_Jun_18_1400,Yes-No Task,3,MIJA04,
Yes-No Task,69,0,69,0,9.6,-1,Correct Rejection,0.50079369999,False,-1,stimulus_MIJA04_Yes-No Task_2019_Jun_18_1400_595,-1,True,2019_Jun_18_1400,Yes-No Task,3,MIJA04,
Yes-No Task,70,0,70,0,1.7,-1,Hit,0.500673499948,True,-1,stimulus_MIJA04_Yes-No Task_2019_Jun_18_1400_596,-1,True,2019_Jun_18_1400,Yes-No Task,3,MIJA04,
Yes-No Task,71,0,71,0,3.3,-1,Miss,0.433798300044,True,-1,stimulus_MIJA04_Yes-No Task_2019_Jun_18_1400_597,-1,True,2019_Jun_18_1400,Yes-No Task,3,MIJA04,
Yes-No Task,72,0,72,0,4.9,-1,Correct Rejection,0.500590100011,False,-1,stimulus_MIJA04_Yes-No Task_2019_Jun_18_1400_598,-1,True,2019_Jun_18_1400,Yes-No Task,3,MIJA04,
Yes-No Task,73,0,73,0,8,-1,Hit,0.401444899966,True,-1,stimulus_MIJA04_Yes-No Task_2019_Jun_18_1400_599,-1,True,2019_Jun_18_1400,Yes-No Task,3,MIJA04,
Yes-No Task,74,0,74,0,8,-1,Hit,0.468489699997,True,-1,stimulus_MIJA04_Yes-No Task_2019_Jun_18_1400_600,-1,True,2019_Jun_18_1400,Yes-No Task,3,MIJA04,
