Task,trials.thisRepN,trials.thisTrialN,trials.thisN,trials.thisIndex,time_response_second,response_2IFCnew,response_key2Interval_2IFCnew,signal_intensity,constant Value,response,time_response,signal_on_stimuluspos1,signal_on_stimuluspos2,stimulus_name_pos1,stimulus_name_pos2,random_intensity,date,expName,session,participant,
2IFCnew,0,0,0,0,0.4990062,2,Yes,11.5,-1,Correct Rejection,0.467369699996,False,True,stimulusMIJA04_2IFCnew_2019_Jun_17_1309_1,stimulusMIJA04_2IFCnew_2019_Jun_17_1309_2,False,2019_Jun_17_1309,2IFCnew,2,MIJA04,
2IFCnew,1,0,1,0,0.333481999987,1,No,11.5,-1,Hit,0.633413499978,True,False,stimulusMIJA04_2IFCnew_2019_Jun_17_1309_3,stimulusMIJA04_2IFCnew_2019_Jun_17_1309_4,False,2019_Jun_17_1309,2IFCnew,2,MIJA04,
2IFCnew,2,0,2,0,0.266900100018,1,No,11.5,-1,Hit,0.634163400013,True,False,stimulusMIJA04_2IFCnew_2019_Jun_17_1309_5,stimulusMIJA04_2IFCnew_2019_Jun_17_1309_6,False,2019_Jun_17_1309,2IFCnew,2,MIJA04,
2IFCnew,3,0,3,0,0.23387299999,1,No,11.5,-1,Hit,0.633925700007,True,False,stimulusMIJA04_2IFCnew_2019_Jun_17_1309_7,stimulusMIJA04_2IFCnew_2019_Jun_17_1309_8,False,2019_Jun_17_1309,2IFCnew,2,MIJA04,
2IFCnew,4,0,4,0,0.567952499987,1,No,11.5,-1,Hit,0.467453499994,True,False,stimulusMIJA04_2IFCnew_2019_Jun_17_1309_9,stimulusMIJA04_2IFCnew_2019_Jun_17_1309_10,False,2019_Jun_17_1309,2IFCnew,2,MIJA04,
2IFCnew,5,0,5,0,0.298350899975,2,Yes,11.5,-1,Correct Rejection,0.531440199993,False,True,stimulusMIJA04_2IFCnew_2019_Jun_17_1309_11,stimulusMIJA04_2IFCnew_2019_Jun_17_1309_12,False,2019_Jun_17_1309,2IFCnew,2,MIJA04,
2IFCnew,6,0,6,0,0.3665721,1,No,11.5,-1,Hit,0.6344255,True,False,stimulusMIJA04_2IFCnew_2019_Jun_17_1309_13,stimulusMIJA04_2IFCnew_2019_Jun_17_1309_14,False,2019_Jun_17_1309,2IFCnew,2,MIJA04,
2IFCnew,7,0,7,0,0.266626600001,1,No,11.5,-1,Hit,0.40057659999,True,False,stimulusMIJA04_2IFCnew_2019_Jun_17_1309_15,stimulusMIJA04_2IFCnew_2019_Jun_17_1309_16,False,2019_Jun_17_1309,2IFCnew,2,MIJA04,
2IFCnew,8,0,8,0,0.201355600002,1,No,11.5,-1,Hit,0.535036000016,True,False,stimulusMIJA04_2IFCnew_2019_Jun_17_1309_17,stimulusMIJA04_2IFCnew_2019_Jun_17_1309_18,False,2019_Jun_17_1309,2IFCnew,2,MIJA04,
2IFCnew,9,0,9,0,0.300185900007,2,Yes,11.5,-1,Correct Rejection,0.567422499997,False,True,stimulusMIJA04_2IFCnew_2019_Jun_17_1309_19,stimulusMIJA04_2IFCnew_2019_Jun_17_1309_20,False,2019_Jun_17_1309,2IFCnew,2,MIJA04,
2IFCnew,10,0,10,0,0.233595199999,1,No,11.5,-1,Hit,0.50059879999,True,False,stimulusMIJA04_2IFCnew_2019_Jun_17_1309_21,stimulusMIJA04_2IFCnew_2019_Jun_17_1309_22,False,2019_Jun_17_1309,2IFCnew,2,MIJA04,
2IFCnew,11,0,11,0,0.302414700011,2,Yes,11.5,-1,Correct Rejection,0.46730660001,False,True,stimulusMIJA04_2IFCnew_2019_Jun_17_1309_23,stimulusMIJA04_2IFCnew_2019_Jun_17_1309_24,False,2019_Jun_17_1309,2IFCnew,2,MIJA04,
2IFCnew,12,0,12,0,0.133417200006,1,No,11.5,-1,Hit,0.471110700018,True,False,stimulusMIJA04_2IFCnew_2019_Jun_17_1309_25,stimulusMIJA04_2IFCnew_2019_Jun_17_1309_26,False,2019_Jun_17_1309,2IFCnew,2,MIJA04,
2IFCnew,13,0,13,0,0.267149899999,2,Yes,11.5,-1,Correct Rejection,0.534168899991,False,True,stimulusMIJA04_2IFCnew_2019_Jun_17_1309_27,stimulusMIJA04_2IFCnew_2019_Jun_17_1309_28,False,2019_Jun_17_1309,2IFCnew,2,MIJA04,
2IFCnew,14,0,14,0,0.366646699986,2,Yes,11.5,-1,Correct Rejection,0.70168160001,False,True,stimulusMIJA04_2IFCnew_2019_Jun_17_1309_29,stimulusMIJA04_2IFCnew_2019_Jun_17_1309_30,False,2019_Jun_17_1309,2IFCnew,2,MIJA04,
2IFCnew,15,0,15,0,0.267345100001,1,No,11.5,-1,Hit,0.601382499997,True,False,stimulusMIJA04_2IFCnew_2019_Jun_17_1309_31,stimulusMIJA04_2IFCnew_2019_Jun_17_1309_32,False,2019_Jun_17_1309,2IFCnew,2,MIJA04,
2IFCnew,16,0,16,0,0.167030500015,1,No,11.5,-1,Hit,0.434255400003,True,False,stimulusMIJA04_2IFCnew_2019_Jun_17_1309_33,stimulusMIJA04_2IFCnew_2019_Jun_17_1309_34,False,2019_Jun_17_1309,2IFCnew,2,MIJA04,
2IFCnew,17,0,17,0,0.200709099998,2,Yes,11.5,-1,Correct Rejection,0.467452799989,False,True,stimulusMIJA04_2IFCnew_2019_Jun_17_1309_35,stimulusMIJA04_2IFCnew_2019_Jun_17_1309_36,False,2019_Jun_17_1309,2IFCnew,2,MIJA04,
2IFCnew,18,0,18,0,0.300387700001,1,No,11.5,-1,Hit,0.534180800023,True,False,stimulusMIJA04_2IFCnew_2019_Jun_17_1309_37,stimulusMIJA04_2IFCnew_2019_Jun_17_1309_38,False,2019_Jun_17_1309,2IFCnew,2,MIJA04,
2IFCnew,19,0,19,0,0.299800200009,1,No,11.5,-1,Hit,0.600375200011,True,False,stimulusMIJA04_2IFCnew_2019_Jun_17_1309_39,stimulusMIJA04_2IFCnew_2019_Jun_17_1309_40,False,2019_Jun_17_1309,2IFCnew,2,MIJA04,
2IFCnew,20,0,20,0,0.26668239999,2,Yes,11.5,-1,Correct Rejection,0.534499400004,False,True,stimulusMIJA04_2IFCnew_2019_Jun_17_1309_41,stimulusMIJA04_2IFCnew_2019_Jun_17_1309_42,False,2019_Jun_17_1309,2IFCnew,2,MIJA04,
2IFCnew,21,0,21,0,0.232883599994,2,Yes,11.5,-1,Correct Rejection,0.533518600016,False,True,stimulusMIJA04_2IFCnew_2019_Jun_17_1309_43,stimulusMIJA04_2IFCnew_2019_Jun_17_1309_44,False,2019_Jun_17_1309,2IFCnew,2,MIJA04,
2IFCnew,22,0,22,0,0.233642200008,1,No,11.5,-1,Hit,0.534391699999,True,False,stimulusMIJA04_2IFCnew_2019_Jun_17_1309_45,stimulusMIJA04_2IFCnew_2019_Jun_17_1309_46,False,2019_Jun_17_1309,2IFCnew,2,MIJA04,
2IFCnew,23,0,23,0,0.2667678,2,Yes,11.5,-1,Correct Rejection,0.467361399991,False,True,stimulusMIJA04_2IFCnew_2019_Jun_17_1309_47,stimulusMIJA04_2IFCnew_2019_Jun_17_1309_48,False,2019_Jun_17_1309,2IFCnew,2,MIJA04,
2IFCnew,24,0,24,0,0.200169699994,1,No,11.5,-1,Hit,0.5008562,True,False,stimulusMIJA04_2IFCnew_2019_Jun_17_1309_49,stimulusMIJA04_2IFCnew_2019_Jun_17_1309_50,False,2019_Jun_17_1309,2IFCnew,2,MIJA04,
2IFCnew,25,0,25,0,0.200318900024,2,Yes,11.5,-1,Correct Rejection,0.433390199993,False,True,stimulusMIJA04_2IFCnew_2019_Jun_17_1309_51,stimulusMIJA04_2IFCnew_2019_Jun_17_1309_52,False,2019_Jun_17_1309,2IFCnew,2,MIJA04,
2IFCnew,26,0,26,0,0.267528800003,3,No,11.5,-1,False Alarm,0.46938200001,False,True,stimulusMIJA04_2IFCnew_2019_Jun_17_1309_53,stimulusMIJA04_2IFCnew_2019_Jun_17_1309_54,False,2019_Jun_17_1309,2IFCnew,2,MIJA04,
2IFCnew,27,0,27,0,0.40095879999,1,No,11.5,-1,Hit,0.566784899973,True,False,stimulusMIJA04_2IFCnew_2019_Jun_17_1309_55,stimulusMIJA04_2IFCnew_2019_Jun_17_1309_56,False,2019_Jun_17_1309,2IFCnew,2,MIJA04,
2IFCnew,28,0,28,0,0.267146700004,2,Yes,11.5,-1,Correct Rejection,0.502133300004,False,True,stimulusMIJA04_2IFCnew_2019_Jun_17_1309_57,stimulusMIJA04_2IFCnew_2019_Jun_17_1309_58,False,2019_Jun_17_1309,2IFCnew,2,MIJA04,
2IFCnew,29,0,29,0,0.43245740002,2,Yes,11.5,-1,Correct Rejection,0.56734910002,False,True,stimulusMIJA04_2IFCnew_2019_Jun_17_1309_59,stimulusMIJA04_2IFCnew_2019_Jun_17_1309_60,False,2019_Jun_17_1309,2IFCnew,2,MIJA04,
2IFCnew,30,0,30,0,0.334353899991,1,No,11.5,-1,Hit,0.600225300004,True,False,stimulusMIJA04_2IFCnew_2019_Jun_17_1309_61,stimulusMIJA04_2IFCnew_2019_Jun_17_1309_62,False,2019_Jun_17_1309,2IFCnew,2,MIJA04,
2IFCnew,31,0,31,0,0.133620700013,1,No,11.5,-1,Hit,0.400542599993,True,False,stimulusMIJA04_2IFCnew_2019_Jun_17_1309_63,stimulusMIJA04_2IFCnew_2019_Jun_17_1309_64,False,2019_Jun_17_1309,2IFCnew,2,MIJA04,
2IFCnew,32,0,32,0,0.200347199978,1,No,11.5,-1,Hit,0.500274499995,True,False,stimulusMIJA04_2IFCnew_2019_Jun_17_1309_65,stimulusMIJA04_2IFCnew_2019_Jun_17_1309_66,False,2019_Jun_17_1309,2IFCnew,2,MIJA04,
2IFCnew,33,0,33,0,0.19931940001,1,No,11.5,-1,Hit,0.333757000015,True,False,stimulusMIJA04_2IFCnew_2019_Jun_17_1309_67,stimulusMIJA04_2IFCnew_2019_Jun_17_1309_68,False,2019_Jun_17_1309,2IFCnew,2,MIJA04,
2IFCnew,34,0,34,0,0.30062319999,2,Yes,11.5,-1,Correct Rejection,0.431733500009,False,True,stimulusMIJA04_2IFCnew_2019_Jun_17_1309_69,stimulusMIJA04_2IFCnew_2019_Jun_17_1309_70,False,2019_Jun_17_1309,2IFCnew,2,MIJA04,
2IFCnew,35,0,35,0,0.300692299992,1,No,11.5,-1,Hit,0.568470600003,True,False,stimulusMIJA04_2IFCnew_2019_Jun_17_1309_71,stimulusMIJA04_2IFCnew_2019_Jun_17_1309_72,False,2019_Jun_17_1309,2IFCnew,2,MIJA04,
2IFCnew,36,0,36,0,0.26698070002,1,No,11.5,-1,Hit,0.567730499984,True,False,stimulusMIJA04_2IFCnew_2019_Jun_17_1309_73,stimulusMIJA04_2IFCnew_2019_Jun_17_1309_74,False,2019_Jun_17_1309,2IFCnew,2,MIJA04,
2IFCnew,37,0,37,0,0.266961899993,1,No,11.5,-1,Hit,0.434114300006,True,False,stimulusMIJA04_2IFCnew_2019_Jun_17_1309_75,stimulusMIJA04_2IFCnew_2019_Jun_17_1309_76,False,2019_Jun_17_1309,2IFCnew,2,MIJA04,
2IFCnew,38,0,38,0,0.233570800017,1,No,11.5,-1,Hit,0.401493700017,True,False,stimulusMIJA04_2IFCnew_2019_Jun_17_1309_77,stimulusMIJA04_2IFCnew_2019_Jun_17_1309_78,False,2019_Jun_17_1309,2IFCnew,2,MIJA04,
2IFCnew,39,0,39,0,0.167038399988,2,Yes,11.5,-1,Correct Rejection,0.433968500001,False,True,stimulusMIJA04_2IFCnew_2019_Jun_17_1309_79,stimulusMIJA04_2IFCnew_2019_Jun_17_1309_80,False,2019_Jun_17_1309,2IFCnew,2,MIJA04,
2IFCnew,40,0,40,0,0.233242200018,2,Yes,11.5,-1,Correct Rejection,0.501803599996,False,True,stimulusMIJA04_2IFCnew_2019_Jun_17_1309_81,stimulusMIJA04_2IFCnew_2019_Jun_17_1309_82,False,2019_Jun_17_1309,2IFCnew,2,MIJA04,
2IFCnew,41,0,41,0,0.301913700008,2,Yes,11.5,-1,Correct Rejection,0.4999579,False,True,stimulusMIJA04_2IFCnew_2019_Jun_17_1309_83,stimulusMIJA04_2IFCnew_2019_Jun_17_1309_84,False,2019_Jun_17_1309,2IFCnew,2,MIJA04,
2IFCnew,42,0,42,0,0.3665415,1,No,11.5,-1,Hit,0.533689300006,True,False,stimulusMIJA04_2IFCnew_2019_Jun_17_1309_85,stimulusMIJA04_2IFCnew_2019_Jun_17_1309_86,False,2019_Jun_17_1309,2IFCnew,2,MIJA04,
2IFCnew,43,0,43,0,0.333790200006,1,No,11.5,-1,Hit,0.568463299976,True,False,stimulusMIJA04_2IFCnew_2019_Jun_17_1309_87,stimulusMIJA04_2IFCnew_2019_Jun_17_1309_88,False,2019_Jun_17_1309,2IFCnew,2,MIJA04,
2IFCnew,44,0,44,0,0.266148099996,2,Yes,11.5,-1,Correct Rejection,0.500820400019,False,True,stimulusMIJA04_2IFCnew_2019_Jun_17_1309_89,stimulusMIJA04_2IFCnew_2019_Jun_17_1309_90,False,2019_Jun_17_1309,2IFCnew,2,MIJA04,
2IFCnew,45,0,45,0,0.433990699996,1,No,11.5,-1,Hit,0.467313600006,True,False,stimulusMIJA04_2IFCnew_2019_Jun_17_1309_91,stimulusMIJA04_2IFCnew_2019_Jun_17_1309_92,False,2019_Jun_17_1309,2IFCnew,2,MIJA04,
2IFCnew,46,0,46,0,0.300703399989,1,No,11.5,-1,Hit,0.468114999996,True,False,stimulusMIJA04_2IFCnew_2019_Jun_17_1309_93,stimulusMIJA04_2IFCnew_2019_Jun_17_1309_94,False,2019_Jun_17_1309,2IFCnew,2,MIJA04,
2IFCnew,47,0,47,0,0.433582600002,1,No,11.5,-1,Hit,0.502152300003,True,False,stimulusMIJA04_2IFCnew_2019_Jun_17_1309_95,stimulusMIJA04_2IFCnew_2019_Jun_17_1309_96,False,2019_Jun_17_1309,2IFCnew,2,MIJA04,
2IFCnew,48,0,48,0,0.298562999989,1,No,11.5,-1,Hit,0.500505899981,True,False,stimulusMIJA04_2IFCnew_2019_Jun_17_1309_97,stimulusMIJA04_2IFCnew_2019_Jun_17_1309_98,False,2019_Jun_17_1309,2IFCnew,2,MIJA04,
2IFCnew,49,0,49,0,0.433695899992,1,No,11.5,-1,Hit,0.466191499989,True,False,stimulusMIJA04_2IFCnew_2019_Jun_17_1309_99,stimulusMIJA04_2IFCnew_2019_Jun_17_1309_100,False,2019_Jun_17_1309,2IFCnew,2,MIJA04,
2IFCnew,50,0,50,0,0.2336029,2,Yes,11.5,-1,Correct Rejection,0.46772310001,False,True,stimulusMIJA04_2IFCnew_2019_Jun_17_1309_101,stimulusMIJA04_2IFCnew_2019_Jun_17_1309_102,False,2019_Jun_17_1309,2IFCnew,2,MIJA04,
2IFCnew,51,0,51,0,0.33378830002,1,No,11.5,-1,Hit,0.46634839999,True,False,stimulusMIJA04_2IFCnew_2019_Jun_17_1309_103,stimulusMIJA04_2IFCnew_2019_Jun_17_1309_104,False,2019_Jun_17_1309,2IFCnew,2,MIJA04,
2IFCnew,52,0,52,0,0.26706719998,1,No,11.5,-1,Hit,0.400655799982,True,False,stimulusMIJA04_2IFCnew_2019_Jun_17_1309_105,stimulusMIJA04_2IFCnew_2019_Jun_17_1309_106,False,2019_Jun_17_1309,2IFCnew,2,MIJA04,
2IFCnew,53,0,53,0,0.233495099994,1,No,11.5,-1,Hit,0.367118200025,True,False,stimulusMIJA04_2IFCnew_2019_Jun_17_1309_107,stimulusMIJA04_2IFCnew_2019_Jun_17_1309_108,False,2019_Jun_17_1309,2IFCnew,2,MIJA04,
2IFCnew,54,0,54,0,0.467560300021,1,No,11.5,-1,Hit,0.500531600002,True,False,stimulusMIJA04_2IFCnew_2019_Jun_17_1309_109,stimulusMIJA04_2IFCnew_2019_Jun_17_1309_110,False,2019_Jun_17_1309,2IFCnew,2,MIJA04,
2IFCnew,55,0,55,0,0.29843569998,2,Yes,11.5,-1,Correct Rejection,0.499898599985,False,True,stimulusMIJA04_2IFCnew_2019_Jun_17_1309_111,stimulusMIJA04_2IFCnew_2019_Jun_17_1309_112,False,2019_Jun_17_1309,2IFCnew,2,MIJA04,
2IFCnew,56,0,56,0,0.267360999977,1,No,11.5,-1,Hit,0.5334401,True,False,stimulusMIJA04_2IFCnew_2019_Jun_17_1309_113,stimulusMIJA04_2IFCnew_2019_Jun_17_1309_114,False,2019_Jun_17_1309,2IFCnew,2,MIJA04,
2IFCnew,57,0,57,0,0.234778100014,1,No,11.5,-1,Hit,0.467012700014,True,False,stimulusMIJA04_2IFCnew_2019_Jun_17_1309_115,stimulusMIJA04_2IFCnew_2019_Jun_17_1309_116,False,2019_Jun_17_1309,2IFCnew,2,MIJA04,
2IFCnew,58,0,58,0,0.233770899998,2,Yes,11.5,-1,Correct Rejection,0.467369499995,False,True,stimulusMIJA04_2IFCnew_2019_Jun_17_1309_117,stimulusMIJA04_2IFCnew_2019_Jun_17_1309_118,False,2019_Jun_17_1309,2IFCnew,2,MIJA04,
2IFCnew,59,0,59,0,0.233786199999,1,No,11.5,-1,Hit,0.467257600016,True,False,stimulusMIJA04_2IFCnew_2019_Jun_17_1309_119,stimulusMIJA04_2IFCnew_2019_Jun_17_1309_120,False,2019_Jun_17_1309,2IFCnew,2,MIJA04,
2IFCnew,60,0,60,0,0.366411700001,1,No,11.5,-1,Hit,0.634507500014,True,False,stimulusMIJA04_2IFCnew_2019_Jun_17_1309_121,stimulusMIJA04_2IFCnew_2019_Jun_17_1309_122,False,2019_Jun_17_1309,2IFCnew,2,MIJA04,
2IFCnew,61,0,61,0,0.300411300006,2,Yes,11.5,-1,Correct Rejection,0.533506100008,False,True,stimulusMIJA04_2IFCnew_2019_Jun_17_1309_123,stimulusMIJA04_2IFCnew_2019_Jun_17_1309_124,False,2019_Jun_17_1309,2IFCnew,2,MIJA04,
2IFCnew,62,0,62,0,0.200191900018,1,No,11.5,-1,Hit,0.435863399995,True,False,stimulusMIJA04_2IFCnew_2019_Jun_17_1309_125,stimulusMIJA04_2IFCnew_2019_Jun_17_1309_126,False,2019_Jun_17_1309,2IFCnew,2,MIJA04,
2IFCnew,63,0,63,0,0.233393500006,1,No,11.5,-1,Hit,0.533565899997,True,False,stimulusMIJA04_2IFCnew_2019_Jun_17_1309_127,stimulusMIJA04_2IFCnew_2019_Jun_17_1309_128,False,2019_Jun_17_1309,2IFCnew,2,MIJA04,
2IFCnew,64,0,64,0,0.267201800016,2,Yes,11.5,-1,Correct Rejection,0.467348500009,False,True,stimulusMIJA04_2IFCnew_2019_Jun_17_1309_129,stimulusMIJA04_2IFCnew_2019_Jun_17_1309_130,False,2019_Jun_17_1309,2IFCnew,2,MIJA04,
2IFCnew,65,0,65,0,0.300886200013,2,Yes,11.5,-1,Correct Rejection,0.532711999986,False,True,stimulusMIJA04_2IFCnew_2019_Jun_17_1309_131,stimulusMIJA04_2IFCnew_2019_Jun_17_1309_132,False,2019_Jun_17_1309,2IFCnew,2,MIJA04,
2IFCnew,66,0,66,0,0.300536099996,2,Yes,11.5,-1,Correct Rejection,0.533448900009,False,True,stimulusMIJA04_2IFCnew_2019_Jun_17_1309_133,stimulusMIJA04_2IFCnew_2019_Jun_17_1309_134,False,2019_Jun_17_1309,2IFCnew,2,MIJA04,
2IFCnew,67,0,67,0,0.232953700004,2,Yes,11.5,-1,Correct Rejection,0.466521599999,False,True,stimulusMIJA04_2IFCnew_2019_Jun_17_1309_135,stimulusMIJA04_2IFCnew_2019_Jun_17_1309_136,False,2019_Jun_17_1309,2IFCnew,2,MIJA04,
2IFCnew,68,0,68,0,0.2001972,1,No,11.5,-1,Hit,0.433294399991,True,False,stimulusMIJA04_2IFCnew_2019_Jun_17_1309_137,stimulusMIJA04_2IFCnew_2019_Jun_17_1309_138,False,2019_Jun_17_1309,2IFCnew,2,MIJA04,
2IFCnew,69,0,69,0,0.167864000017,2,Yes,11.5,-1,Correct Rejection,0.400819699978,False,True,stimulusMIJA04_2IFCnew_2019_Jun_17_1309_139,stimulusMIJA04_2IFCnew_2019_Jun_17_1309_140,False,2019_Jun_17_1309,2IFCnew,2,MIJA04,
2IFCnew,70,0,70,0,0.467330100015,2,Yes,11.5,-1,Correct Rejection,0.666653199994,False,True,stimulusMIJA04_2IFCnew_2019_Jun_17_1309_141,stimulusMIJA04_2IFCnew_2019_Jun_17_1309_142,False,2019_Jun_17_1309,2IFCnew,2,MIJA04,
2IFCnew,71,0,71,0,0.200216600002,1,No,11.5,-1,Hit,0.468574099999,True,False,stimulusMIJA04_2IFCnew_2019_Jun_17_1309_143,stimulusMIJA04_2IFCnew_2019_Jun_17_1309_144,False,2019_Jun_17_1309,2IFCnew,2,MIJA04,
2IFCnew,72,0,72,0,0.233178399998,1,No,11.5,-1,Hit,0.534259899985,True,False,stimulusMIJA04_2IFCnew_2019_Jun_17_1309_145,stimulusMIJA04_2IFCnew_2019_Jun_17_1309_146,False,2019_Jun_17_1309,2IFCnew,2,MIJA04,
2IFCnew,73,0,73,0,0.233966500004,2,Yes,11.5,-1,Correct Rejection,0.467366700002,False,True,stimulusMIJA04_2IFCnew_2019_Jun_17_1309_147,stimulusMIJA04_2IFCnew_2019_Jun_17_1309_148,False,2019_Jun_17_1309,2IFCnew,2,MIJA04,
2IFCnew,74,0,74,0,0.433757499995,2,Yes,11.5,-1,Correct Rejection,0.634246600006,False,True,stimulusMIJA04_2IFCnew_2019_Jun_17_1309_149,stimulusMIJA04_2IFCnew_2019_Jun_17_1309_150,False,2019_Jun_17_1309,2IFCnew,2,MIJA04,
2IFCnew,0,0,0,0,0.466584999987,1,No,9.6,-1,Hit,0.8345118,True,False,stimulusMIJA04_2IFCnew_2019_Jun_17_1309_151,stimulusMIJA04_2IFCnew_2019_Jun_17_1309_152,False,2019_Jun_17_1309,2IFCnew,2,MIJA04,
2IFCnew,1,0,1,0,0.400504500023,1,No,9.6,-1,Hit,0.502937600017,True,False,stimulusMIJA04_2IFCnew_2019_Jun_17_1309_153,stimulusMIJA04_2IFCnew_2019_Jun_17_1309_154,False,2019_Jun_17_1309,2IFCnew,2,MIJA04,
2IFCnew,2,0,2,0,0.200458100007,2,Yes,9.6,-1,Correct Rejection,0.467533599993,False,True,stimulusMIJA04_2IFCnew_2019_Jun_17_1309_155,stimulusMIJA04_2IFCnew_2019_Jun_17_1309_156,False,2019_Jun_17_1309,2IFCnew,2,MIJA04,
2IFCnew,3,0,3,0,0.300445500005,2,Yes,9.6,-1,Correct Rejection,0.500148599996,False,True,stimulusMIJA04_2IFCnew_2019_Jun_17_1309_157,stimulusMIJA04_2IFCnew_2019_Jun_17_1309_158,False,2019_Jun_17_1309,2IFCnew,2,MIJA04,
2IFCnew,4,0,4,0,0.567496800009,4,Yes,9.6,-1,Miss,0.700404699979,True,False,stimulusMIJA04_2IFCnew_2019_Jun_17_1309_159,stimulusMIJA04_2IFCnew_2019_Jun_17_1309_160,False,2019_Jun_17_1309,2IFCnew,2,MIJA04,
2IFCnew,5,0,5,0,0.333893300005,2,Yes,9.6,-1,Correct Rejection,0.563459900004,False,True,stimulusMIJA04_2IFCnew_2019_Jun_17_1309_161,stimulusMIJA04_2IFCnew_2019_Jun_17_1309_162,False,2019_Jun_17_1309,2IFCnew,2,MIJA04,
2IFCnew,6,0,6,0,0.534225200012,2,Yes,9.6,-1,Correct Rejection,0.63390429999,False,True,stimulusMIJA04_2IFCnew_2019_Jun_17_1309_163,stimulusMIJA04_2IFCnew_2019_Jun_17_1309_164,False,2019_Jun_17_1309,2IFCnew,2,MIJA04,
2IFCnew,7,0,7,0,0.366979599989,2,Yes,9.6,-1,Correct Rejection,0.467085699987,False,True,stimulusMIJA04_2IFCnew_2019_Jun_17_1309_165,stimulusMIJA04_2IFCnew_2019_Jun_17_1309_166,False,2019_Jun_17_1309,2IFCnew,2,MIJA04,
2IFCnew,8,0,8,0,0.300466699991,2,Yes,9.6,-1,Correct Rejection,0.533690100012,False,True,stimulusMIJA04_2IFCnew_2019_Jun_17_1309_167,stimulusMIJA04_2IFCnew_2019_Jun_17_1309_168,False,2019_Jun_17_1309,2IFCnew,2,MIJA04,
2IFCnew,9,0,9,0,0.502048399998,1,No,9.6,-1,Hit,0.634542100015,True,False,stimulusMIJA04_2IFCnew_2019_Jun_17_1309_169,stimulusMIJA04_2IFCnew_2019_Jun_17_1309_170,False,2019_Jun_17_1309,2IFCnew,2,MIJA04,
2IFCnew,10,0,10,0,0.433494599973,1,No,9.6,-1,Hit,0.5009479,True,False,stimulusMIJA04_2IFCnew_2019_Jun_17_1309_171,stimulusMIJA04_2IFCnew_2019_Jun_17_1309_172,False,2019_Jun_17_1309,2IFCnew,2,MIJA04,
2IFCnew,11,0,11,0,0.500538199994,1,No,9.6,-1,Hit,0.801912099996,True,False,stimulusMIJA04_2IFCnew_2019_Jun_17_1309_173,stimulusMIJA04_2IFCnew_2019_Jun_17_1309_174,False,2019_Jun_17_1309,2IFCnew,2,MIJA04,
2IFCnew,12,0,12,0,0.366942199995,2,Yes,9.6,-1,Correct Rejection,0.633734699979,False,True,stimulusMIJA04_2IFCnew_2019_Jun_17_1309_175,stimulusMIJA04_2IFCnew_2019_Jun_17_1309_176,False,2019_Jun_17_1309,2IFCnew,2,MIJA04,
2IFCnew,13,0,13,0,0.333940600016,1,No,9.6,-1,Hit,0.467275300005,True,False,stimulusMIJA04_2IFCnew_2019_Jun_17_1309_177,stimulusMIJA04_2IFCnew_2019_Jun_17_1309_178,False,2019_Jun_17_1309,2IFCnew,2,MIJA04,
2IFCnew,14,0,14,0,0.501118000015,2,Yes,9.6,-1,Correct Rejection,0.666869599983,False,True,stimulusMIJA04_2IFCnew_2019_Jun_17_1309_179,stimulusMIJA04_2IFCnew_2019_Jun_17_1309_180,False,2019_Jun_17_1309,2IFCnew,2,MIJA04,
2IFCnew,15,0,15,0,0.533635500004,4,Yes,9.6,-1,Miss,0.600121900003,True,False,stimulusMIJA04_2IFCnew_2019_Jun_17_1309_181,stimulusMIJA04_2IFCnew_2019_Jun_17_1309_182,False,2019_Jun_17_1309,2IFCnew,2,MIJA04,
2IFCnew,16,0,16,0,0.500365500018,1,No,9.6,-1,Hit,0.634508399991,True,False,stimulusMIJA04_2IFCnew_2019_Jun_17_1309_183,stimulusMIJA04_2IFCnew_2019_Jun_17_1309_184,False,2019_Jun_17_1309,2IFCnew,2,MIJA04,
2IFCnew,17,0,17,0,0.300597699999,2,Yes,9.6,-1,Correct Rejection,0.534022500011,False,True,stimulusMIJA04_2IFCnew_2019_Jun_17_1309_185,stimulusMIJA04_2IFCnew_2019_Jun_17_1309_186,False,2019_Jun_17_1309,2IFCnew,2,MIJA04,
2IFCnew,18,0,18,0,0.265940500016,1,No,9.6,-1,Hit,0.533924500021,True,False,stimulusMIJA04_2IFCnew_2019_Jun_17_1309_187,stimulusMIJA04_2IFCnew_2019_Jun_17_1309_188,False,2019_Jun_17_1309,2IFCnew,2,MIJA04,
2IFCnew,19,0,19,0,0.300505299994,1,No,9.6,-1,Hit,0.534053700016,True,False,stimulusMIJA04_2IFCnew_2019_Jun_17_1309_189,stimulusMIJA04_2IFCnew_2019_Jun_17_1309_190,False,2019_Jun_17_1309,2IFCnew,2,MIJA04,
2IFCnew,20,0,20,0,0.267113099981,1,No,9.6,-1,Hit,0.501044600009,True,False,stimulusMIJA04_2IFCnew_2019_Jun_17_1309_191,stimulusMIJA04_2IFCnew_2019_Jun_17_1309_192,False,2019_Jun_17_1309,2IFCnew,2,MIJA04,
2IFCnew,21,0,21,0,0.534053400013,1,No,9.6,-1,Hit,0.834283500008,True,False,stimulusMIJA04_2IFCnew_2019_Jun_17_1309_193,stimulusMIJA04_2IFCnew_2019_Jun_17_1309_194,False,2019_Jun_17_1309,2IFCnew,2,MIJA04,
2IFCnew,22,0,22,0,0.400278299989,2,Yes,9.6,-1,Correct Rejection,0.600570500013,False,True,stimulusMIJA04_2IFCnew_2019_Jun_17_1309_195,stimulusMIJA04_2IFCnew_2019_Jun_17_1309_196,False,2019_Jun_17_1309,2IFCnew,2,MIJA04,
2IFCnew,23,0,23,0,0.500755899993,1,No,9.6,-1,Hit,0.501055000001,True,False,stimulusMIJA04_2IFCnew_2019_Jun_17_1309_197,stimulusMIJA04_2IFCnew_2019_Jun_17_1309_198,False,2019_Jun_17_1309,2IFCnew,2,MIJA04,
2IFCnew,24,0,24,0,0.267344699998,2,Yes,9.6,-1,Correct Rejection,0.567974200007,False,True,stimulusMIJA04_2IFCnew_2019_Jun_17_1309_199,stimulusMIJA04_2IFCnew_2019_Jun_17_1309_200,False,2019_Jun_17_1309,2IFCnew,2,MIJA04,
2IFCnew,25,0,25,0,0.300197000004,1,No,9.6,-1,Hit,0.532885399996,True,False,stimulusMIJA04_2IFCnew_2019_Jun_17_1309_201,stimulusMIJA04_2IFCnew_2019_Jun_17_1309_202,False,2019_Jun_17_1309,2IFCnew,2,MIJA04,
2IFCnew,26,0,26,0,0.600214100006,8,No,9.6,-1,Correct Rejection,0.567532699992,False,True,stimulusMIJA04_2IFCnew_2019_Jun_17_1309_203,stimulusMIJA04_2IFCnew_2019_Jun_17_1309_204,False,2019_Jun_17_1309,2IFCnew,2,MIJA04,
2IFCnew,27,0,27,0,0.534146699996,1,No,9.6,-1,Hit,0.601023800002,True,False,stimulusMIJA04_2IFCnew_2019_Jun_17_1309_205,stimulusMIJA04_2IFCnew_2019_Jun_17_1309_206,False,2019_Jun_17_1309,2IFCnew,2,MIJA04,
2IFCnew,28,0,28,0,0.367074600013,1,No,9.6,-1,Hit,0.43353390001,True,False,stimulusMIJA04_2IFCnew_2019_Jun_17_1309_207,stimulusMIJA04_2IFCnew_2019_Jun_17_1309_208,False,2019_Jun_17_1309,2IFCnew,2,MIJA04,
2IFCnew,29,0,29,0,0.233749300009,2,Yes,9.6,-1,Correct Rejection,0.534447500017,False,True,stimulusMIJA04_2IFCnew_2019_Jun_17_1309_209,stimulusMIJA04_2IFCnew_2019_Jun_17_1309_210,False,2019_Jun_17_1309,2IFCnew,2,MIJA04,
2IFCnew,30,0,30,0,0.400569700025,2,Yes,9.6,-1,Correct Rejection,0.600761799986,False,True,stimulusMIJA04_2IFCnew_2019_Jun_17_1309_211,stimulusMIJA04_2IFCnew_2019_Jun_17_1309_212,False,2019_Jun_17_1309,2IFCnew,2,MIJA04,
2IFCnew,31,0,31,0,0.434495399997,1,No,9.6,-1,Hit,0.533963199996,True,False,stimulusMIJA04_2IFCnew_2019_Jun_17_1309_213,stimulusMIJA04_2IFCnew_2019_Jun_17_1309_214,False,2019_Jun_17_1309,2IFCnew,2,MIJA04,
2IFCnew,32,0,32,0,0.467525000015,2,Yes,9.6,-1,Correct Rejection,0.633821399999,False,True,stimulusMIJA04_2IFCnew_2019_Jun_17_1309_215,stimulusMIJA04_2IFCnew_2019_Jun_17_1309_216,False,2019_Jun_17_1309,2IFCnew,2,MIJA04,
2IFCnew,33,0,33,0,0.466717500007,6,No,9.6,-1,Miss,0.434026000003,True,False,stimulusMIJA04_2IFCnew_2019_Jun_17_1309_217,stimulusMIJA04_2IFCnew_2019_Jun_17_1309_218,False,2019_Jun_17_1309,2IFCnew,2,MIJA04,
2IFCnew,34,0,34,0,0.333856199984,4,Yes,9.6,-1,Miss,0.500686499989,True,False,stimulusMIJA04_2IFCnew_2019_Jun_17_1309_219,stimulusMIJA04_2IFCnew_2019_Jun_17_1309_220,False,2019_Jun_17_1309,2IFCnew,2,MIJA04,
2IFCnew,35,0,35,0,-1,0,Yes,9.6,-1,No Answer,-1,False,True,stimulusMIJA04_2IFCnew_2019_Jun_17_1309_221,stimulusMIJA04_2IFCnew_2019_Jun_17_1309_222,False,2019_Jun_17_1309,2IFCnew,2,MIJA04,
2IFCnew,36,0,36,0,0.266549699998,1,No,9.6,-1,Hit,0.533712999983,True,False,stimulusMIJA04_2IFCnew_2019_Jun_17_1309_223,stimulusMIJA04_2IFCnew_2019_Jun_17_1309_224,False,2019_Jun_17_1309,2IFCnew,2,MIJA04,
2IFCnew,37,0,37,0,0.334071500023,1,No,9.6,-1,Hit,0.533350199985,True,False,stimulusMIJA04_2IFCnew_2019_Jun_17_1309_225,stimulusMIJA04_2IFCnew_2019_Jun_17_1309_226,False,2019_Jun_17_1309,2IFCnew,2,MIJA04,
2IFCnew,38,0,38,0,0.300913899991,1,No,9.6,-1,Hit,0.500135299983,True,False,stimulusMIJA04_2IFCnew_2019_Jun_17_1309_227,stimulusMIJA04_2IFCnew_2019_Jun_17_1309_228,False,2019_Jun_17_1309,2IFCnew,2,MIJA04,
2IFCnew,39,0,39,0,0.367855199991,1,No,9.6,-1,Hit,0.46615729999,True,False,stimulusMIJA04_2IFCnew_2019_Jun_17_1309_229,stimulusMIJA04_2IFCnew_2019_Jun_17_1309_230,False,2019_Jun_17_1309,2IFCnew,2,MIJA04,
2IFCnew,40,0,40,0,0.500702699996,2,Yes,9.6,-1,Correct Rejection,0.500255399995,False,True,stimulusMIJA04_2IFCnew_2019_Jun_17_1309_231,stimulusMIJA04_2IFCnew_2019_Jun_17_1309_232,False,2019_Jun_17_1309,2IFCnew,2,MIJA04,
2IFCnew,41,0,41,0,0.567615500011,2,Yes,9.6,-1,Correct Rejection,0.533839200012,False,True,stimulusMIJA04_2IFCnew_2019_Jun_17_1309_233,stimulusMIJA04_2IFCnew_2019_Jun_17_1309_234,False,2019_Jun_17_1309,2IFCnew,2,MIJA04,
2IFCnew,42,0,42,0,0.300885200006,2,Yes,9.6,-1,Correct Rejection,0.434257700021,False,True,stimulusMIJA04_2IFCnew_2019_Jun_17_1309_235,stimulusMIJA04_2IFCnew_2019_Jun_17_1309_236,False,2019_Jun_17_1309,2IFCnew,2,MIJA04,
2IFCnew,43,0,43,0,0.233698700002,1,No,9.6,-1,Hit,0.433903199999,True,False,stimulusMIJA04_2IFCnew_2019_Jun_17_1309_237,stimulusMIJA04_2IFCnew_2019_Jun_17_1309_238,False,2019_Jun_17_1309,2IFCnew,2,MIJA04,
2IFCnew,44,0,44,0,0.301789300021,2,Yes,9.6,-1,Correct Rejection,0.533255399991,False,True,stimulusMIJA04_2IFCnew_2019_Jun_17_1309_239,stimulusMIJA04_2IFCnew_2019_Jun_17_1309_240,False,2019_Jun_17_1309,2IFCnew,2,MIJA04,
2IFCnew,45,0,45,0,0.333403499972,1,No,9.6,-1,Hit,0.600083400001,True,False,stimulusMIJA04_2IFCnew_2019_Jun_17_1309_241,stimulusMIJA04_2IFCnew_2019_Jun_17_1309_242,False,2019_Jun_17_1309,2IFCnew,2,MIJA04,
2IFCnew,46,0,46,0,0.36716340002,2,Yes,9.6,-1,Correct Rejection,0.500537799991,False,True,stimulusMIJA04_2IFCnew_2019_Jun_17_1309_243,stimulusMIJA04_2IFCnew_2019_Jun_17_1309_244,False,2019_Jun_17_1309,2IFCnew,2,MIJA04,
2IFCnew,47,0,47,0,0.232734699995,1,No,9.6,-1,Hit,0.467210900009,True,False,stimulusMIJA04_2IFCnew_2019_Jun_17_1309_245,stimulusMIJA04_2IFCnew_2019_Jun_17_1309_246,False,2019_Jun_17_1309,2IFCnew,2,MIJA04,
2IFCnew,48,0,48,0,0.167130899994,2,Yes,9.6,-1,Correct Rejection,0.434095700009,False,True,stimulusMIJA04_2IFCnew_2019_Jun_17_1309_247,stimulusMIJA04_2IFCnew_2019_Jun_17_1309_248,False,2019_Jun_17_1309,2IFCnew,2,MIJA04,
2IFCnew,49,0,49,0,0.533900999988,6,No,9.6,-1,Miss,0.533846400009,True,False,stimulusMIJA04_2IFCnew_2019_Jun_17_1309_249,stimulusMIJA04_2IFCnew_2019_Jun_17_1309_250,False,2019_Jun_17_1309,2IFCnew,2,MIJA04,
2IFCnew,50,0,50,0,0.300489099987,1,No,9.6,-1,Hit,0.501068900019,True,False,stimulusMIJA04_2IFCnew_2019_Jun_17_1309_251,stimulusMIJA04_2IFCnew_2019_Jun_17_1309_252,False,2019_Jun_17_1309,2IFCnew,2,MIJA04,
2IFCnew,51,0,51,0,0.434567600023,2,Yes,9.6,-1,Correct Rejection,0.533840799995,False,True,stimulusMIJA04_2IFCnew_2019_Jun_17_1309_253,stimulusMIJA04_2IFCnew_2019_Jun_17_1309_254,False,2019_Jun_17_1309,2IFCnew,2,MIJA04,
2IFCnew,52,0,52,0,0.297546899994,2,Yes,9.6,-1,Correct Rejection,0.467333399982,False,True,stimulusMIJA04_2IFCnew_2019_Jun_17_1309_255,stimulusMIJA04_2IFCnew_2019_Jun_17_1309_256,False,2019_Jun_17_1309,2IFCnew,2,MIJA04,
2IFCnew,53,0,53,0,0.300961800007,1,No,9.6,-1,Hit,0.47155419999,True,False,stimulusMIJA04_2IFCnew_2019_Jun_17_1309_257,stimulusMIJA04_2IFCnew_2019_Jun_17_1309_258,False,2019_Jun_17_1309,2IFCnew,2,MIJA04,
2IFCnew,54,0,54,0,0.267169900006,2,Yes,9.6,-1,Correct Rejection,0.500465800025,False,True,stimulusMIJA04_2IFCnew_2019_Jun_17_1309_259,stimulusMIJA04_2IFCnew_2019_Jun_17_1309_260,False,2019_Jun_17_1309,2IFCnew,2,MIJA04,
2IFCnew,55,0,55,0,0.301145899983,1,No,9.6,-1,Hit,0.49940260002,True,False,stimulusMIJA04_2IFCnew_2019_Jun_17_1309_261,stimulusMIJA04_2IFCnew_2019_Jun_17_1309_262,False,2019_Jun_17_1309,2IFCnew,2,MIJA04,
2IFCnew,56,0,56,0,0.500611700001,2,Yes,9.6,-1,Correct Rejection,0.56750070001,False,True,stimulusMIJA04_2IFCnew_2019_Jun_17_1309_263,stimulusMIJA04_2IFCnew_2019_Jun_17_1309_264,False,2019_Jun_17_1309,2IFCnew,2,MIJA04,
2IFCnew,57,0,57,0,0.367443499999,2,Yes,9.6,-1,Correct Rejection,0.467243899999,False,True,stimulusMIJA04_2IFCnew_2019_Jun_17_1309_265,stimulusMIJA04_2IFCnew_2019_Jun_17_1309_266,False,2019_Jun_17_1309,2IFCnew,2,MIJA04,
2IFCnew,58,0,58,0,0.267222099996,2,Yes,9.6,-1,Correct Rejection,0.500683299993,False,True,stimulusMIJA04_2IFCnew_2019_Jun_17_1309_267,stimulusMIJA04_2IFCnew_2019_Jun_17_1309_268,False,2019_Jun_17_1309,2IFCnew,2,MIJA04,
2IFCnew,59,0,59,0,0.2660646,1,No,9.6,-1,Hit,0.500524000003,True,False,stimulusMIJA04_2IFCnew_2019_Jun_17_1309_269,stimulusMIJA04_2IFCnew_2019_Jun_17_1309_270,False,2019_Jun_17_1309,2IFCnew,2,MIJA04,
2IFCnew,60,0,60,0,0.267740799987,1,No,9.6,-1,Hit,0.432846799988,True,False,stimulusMIJA04_2IFCnew_2019_Jun_17_1309_271,stimulusMIJA04_2IFCnew_2019_Jun_17_1309_272,False,2019_Jun_17_1309,2IFCnew,2,MIJA04,
2IFCnew,61,0,61,0,0.401212600002,2,Yes,9.6,-1,Correct Rejection,0.499560099997,False,True,stimulusMIJA04_2IFCnew_2019_Jun_17_1309_273,stimulusMIJA04_2IFCnew_2019_Jun_17_1309_274,False,2019_Jun_17_1309,2IFCnew,2,MIJA04,
2IFCnew,62,0,62,0,0.267200600007,1,No,9.6,-1,Hit,0.50059739998,True,False,stimulusMIJA04_2IFCnew_2019_Jun_17_1309_275,stimulusMIJA04_2IFCnew_2019_Jun_17_1309_276,False,2019_Jun_17_1309,2IFCnew,2,MIJA04,
2IFCnew,63,0,63,0,0.300744499982,2,Yes,9.6,-1,Correct Rejection,0.500617600017,False,True,stimulusMIJA04_2IFCnew_2019_Jun_17_1309_277,stimulusMIJA04_2IFCnew_2019_Jun_17_1309_278,False,2019_Jun_17_1309,2IFCnew,2,MIJA04,
2IFCnew,64,0,64,0,0.333809100004,6,No,9.6,-1,Miss,0.599279799993,True,False,stimulusMIJA04_2IFCnew_2019_Jun_17_1309_279,stimulusMIJA04_2IFCnew_2019_Jun_17_1309_280,False,2019_Jun_17_1309,2IFCnew,2,MIJA04,
2IFCnew,65,0,65,0,0.233232300001,2,Yes,9.6,-1,Correct Rejection,0.500805899996,False,True,stimulusMIJA04_2IFCnew_2019_Jun_17_1309_281,stimulusMIJA04_2IFCnew_2019_Jun_17_1309_282,False,2019_Jun_17_1309,2IFCnew,2,MIJA04,
2IFCnew,66,0,66,0,0.297907300002,1,No,9.6,-1,Hit,0.500556299987,True,False,stimulusMIJA04_2IFCnew_2019_Jun_17_1309_283,stimulusMIJA04_2IFCnew_2019_Jun_17_1309_284,False,2019_Jun_17_1309,2IFCnew,2,MIJA04,
2IFCnew,67,0,67,0,0.200560500001,2,Yes,9.6,-1,Correct Rejection,0.501541100006,False,True,stimulusMIJA04_2IFCnew_2019_Jun_17_1309_285,stimulusMIJA04_2IFCnew_2019_Jun_17_1309_286,False,2019_Jun_17_1309,2IFCnew,2,MIJA04,
2IFCnew,68,0,68,0,0.466976900003,3,No,9.6,-1,False Alarm,0.567320700007,False,True,stimulusMIJA04_2IFCnew_2019_Jun_17_1309_287,stimulusMIJA04_2IFCnew_2019_Jun_17_1309_288,False,2019_Jun_17_1309,2IFCnew,2,MIJA04,
2IFCnew,69,0,69,0,0.200345399993,1,No,9.6,-1,Hit,0.499754999997,True,False,stimulusMIJA04_2IFCnew_2019_Jun_17_1309_289,stimulusMIJA04_2IFCnew_2019_Jun_17_1309_290,False,2019_Jun_17_1309,2IFCnew,2,MIJA04,
2IFCnew,70,0,70,0,0.267164000019,2,Yes,9.6,-1,Correct Rejection,0.533901200019,False,True,stimulusMIJA04_2IFCnew_2019_Jun_17_1309_291,stimulusMIJA04_2IFCnew_2019_Jun_17_1309_292,False,2019_Jun_17_1309,2IFCnew,2,MIJA04,
2IFCnew,71,0,71,0,0.433516799996,2,Yes,9.6,-1,Correct Rejection,0.600548999995,False,True,stimulusMIJA04_2IFCnew_2019_Jun_17_1309_293,stimulusMIJA04_2IFCnew_2019_Jun_17_1309_294,False,2019_Jun_17_1309,2IFCnew,2,MIJA04,
2IFCnew,72,0,72,0,0.233636000019,1,No,9.6,-1,Hit,0.46701600001,True,False,stimulusMIJA04_2IFCnew_2019_Jun_17_1309_295,stimulusMIJA04_2IFCnew_2019_Jun_17_1309_296,False,2019_Jun_17_1309,2IFCnew,2,MIJA04,
2IFCnew,73,0,73,0,0.166801100015,2,Yes,9.6,-1,Correct Rejection,0.535114099999,False,True,stimulusMIJA04_2IFCnew_2019_Jun_17_1309_297,stimulusMIJA04_2IFCnew_2019_Jun_17_1309_298,False,2019_Jun_17_1309,2IFCnew,2,MIJA04,
2IFCnew,74,0,74,0,0.300746199995,1,No,9.6,-1,Hit,0.600523399975,True,False,stimulusMIJA04_2IFCnew_2019_Jun_17_1309_299,stimulusMIJA04_2IFCnew_2019_Jun_17_1309_300,False,2019_Jun_17_1309,2IFCnew,2,MIJA04,
2IFCnew,0,0,0,0,0.300915200001,2,Yes,4.9,-1,Correct Rejection,0.533803499973,False,True,stimulusMIJA04_2IFCnew_2019_Jun_17_1309_301,stimulusMIJA04_2IFCnew_2019_Jun_17_1309_302,False,2019_Jun_17_1309,2IFCnew,2,MIJA04,
2IFCnew,1,0,1,0,0.166935000016,2,Yes,4.9,-1,Correct Rejection,0.533923699986,False,True,stimulusMIJA04_2IFCnew_2019_Jun_17_1309_303,stimulusMIJA04_2IFCnew_2019_Jun_17_1309_304,False,2019_Jun_17_1309,2IFCnew,2,MIJA04,
2IFCnew,2,0,2,0,0.40040459999,1,No,4.9,-1,Hit,0.467475800018,True,False,stimulusMIJA04_2IFCnew_2019_Jun_17_1309_305,stimulusMIJA04_2IFCnew_2019_Jun_17_1309_306,False,2019_Jun_17_1309,2IFCnew,2,MIJA04,
2IFCnew,3,0,3,0,0.233361799998,3,No,4.9,-1,False Alarm,0.467747100018,False,True,stimulusMIJA04_2IFCnew_2019_Jun_17_1309_307,stimulusMIJA04_2IFCnew_2019_Jun_17_1309_308,False,2019_Jun_17_1309,2IFCnew,2,MIJA04,
2IFCnew,4,0,4,0,0.133259299997,2,Yes,4.9,-1,Correct Rejection,0.366275100008,False,True,stimulusMIJA04_2IFCnew_2019_Jun_17_1309_309,stimulusMIJA04_2IFCnew_2019_Jun_17_1309_310,False,2019_Jun_17_1309,2IFCnew,2,MIJA04,
2IFCnew,5,0,5,0,0.400527599995,6,No,4.9,-1,Miss,0.566014299984,True,False,stimulusMIJA04_2IFCnew_2019_Jun_17_1309_311,stimulusMIJA04_2IFCnew_2019_Jun_17_1309_312,False,2019_Jun_17_1309,2IFCnew,2,MIJA04,
2IFCnew,6,0,6,0,0.499708599993,8,No,4.9,-1,Correct Rejection,0.467270599998,False,True,stimulusMIJA04_2IFCnew_2019_Jun_17_1309_313,stimulusMIJA04_2IFCnew_2019_Jun_17_1309_314,False,2019_Jun_17_1309,2IFCnew,2,MIJA04,
2IFCnew,7,0,7,0,0.534136300004,1,No,4.9,-1,Hit,0.700466000009,True,False,stimulusMIJA04_2IFCnew_2019_Jun_17_1309_315,stimulusMIJA04_2IFCnew_2019_Jun_17_1309_316,False,2019_Jun_17_1309,2IFCnew,2,MIJA04,
2IFCnew,8,0,8,0,0.267801899987,3,No,4.9,-1,False Alarm,0.500728399988,False,True,stimulusMIJA04_2IFCnew_2019_Jun_17_1309_317,stimulusMIJA04_2IFCnew_2019_Jun_17_1309_318,False,2019_Jun_17_1309,2IFCnew,2,MIJA04,
2IFCnew,9,0,9,0,0.400427199987,1,No,4.9,-1,Hit,0.667098100006,True,False,stimulusMIJA04_2IFCnew_2019_Jun_17_1309_319,stimulusMIJA04_2IFCnew_2019_Jun_17_1309_320,False,2019_Jun_17_1309,2IFCnew,2,MIJA04,
2IFCnew,10,0,10,0,0.236324099998,3,No,4.9,-1,False Alarm,0.533858300012,False,True,stimulusMIJA04_2IFCnew_2019_Jun_17_1309_321,stimulusMIJA04_2IFCnew_2019_Jun_17_1309_322,False,2019_Jun_17_1309,2IFCnew,2,MIJA04,
2IFCnew,11,0,11,0,0.234094600019,4,Yes,4.9,-1,Miss,0.432963300002,True,False,stimulusMIJA04_2IFCnew_2019_Jun_17_1309_323,stimulusMIJA04_2IFCnew_2019_Jun_17_1309_324,False,2019_Jun_17_1309,2IFCnew,2,MIJA04,
2IFCnew,12,0,12,0,0.367223300011,2,Yes,4.9,-1,Correct Rejection,0.667438600009,False,True,stimulusMIJA04_2IFCnew_2019_Jun_17_1309_325,stimulusMIJA04_2IFCnew_2019_Jun_17_1309_326,False,2019_Jun_17_1309,2IFCnew,2,MIJA04,
2IFCnew,13,0,13,0,0.267013500008,3,No,4.9,-1,False Alarm,0.5338032,False,True,stimulusMIJA04_2IFCnew_2019_Jun_17_1309_327,stimulusMIJA04_2IFCnew_2019_Jun_17_1309_328,False,2019_Jun_17_1309,2IFCnew,2,MIJA04,
2IFCnew,14,0,14,0,0.333853499993,1,No,4.9,-1,Hit,0.63401530002,True,False,stimulusMIJA04_2IFCnew_2019_Jun_17_1309_329,stimulusMIJA04_2IFCnew_2019_Jun_17_1309_330,False,2019_Jun_17_1309,2IFCnew,2,MIJA04,
2IFCnew,15,0,15,0,0.233621899999,3,No,4.9,-1,False Alarm,0.6005878,False,True,stimulusMIJA04_2IFCnew_2019_Jun_17_1309_331,stimulusMIJA04_2IFCnew_2019_Jun_17_1309_332,False,2019_Jun_17_1309,2IFCnew,2,MIJA04,
2IFCnew,16,0,16,0,0.299961399985,3,No,4.9,-1,False Alarm,0.600837000005,False,True,stimulusMIJA04_2IFCnew_2019_Jun_17_1309_333,stimulusMIJA04_2IFCnew_2019_Jun_17_1309_334,False,2019_Jun_17_1309,2IFCnew,2,MIJA04,
2IFCnew,17,0,17,0,0.0999123999791,1,No,4.9,-1,Hit,0.635275600012,True,False,stimulusMIJA04_2IFCnew_2019_Jun_17_1309_335,stimulusMIJA04_2IFCnew_2019_Jun_17_1309_336,False,2019_Jun_17_1309,2IFCnew,2,MIJA04,
2IFCnew,18,0,18,0,0.233981799975,1,No,4.9,-1,Hit,0.666499599989,True,False,stimulusMIJA04_2IFCnew_2019_Jun_17_1309_337,stimulusMIJA04_2IFCnew_2019_Jun_17_1309_338,False,2019_Jun_17_1309,2IFCnew,2,MIJA04,
2IFCnew,19,0,19,0,0.633734999981,5,Yes,4.9,-1,False Alarm,0.534150499996,False,True,stimulusMIJA04_2IFCnew_2019_Jun_17_1309_339,stimulusMIJA04_2IFCnew_2019_Jun_17_1309_340,False,2019_Jun_17_1309,2IFCnew,2,MIJA04,
2IFCnew,20,0,20,0,0.667377400008,8,No,4.9,-1,Correct Rejection,0.800344299991,False,True,stimulusMIJA04_2IFCnew_2019_Jun_17_1309_341,stimulusMIJA04_2IFCnew_2019_Jun_17_1309_342,False,2019_Jun_17_1309,2IFCnew,2,MIJA04,
2IFCnew,21,0,21,0,0.367009199981,1,No,4.9,-1,Hit,0.565678200015,True,False,stimulusMIJA04_2IFCnew_2019_Jun_17_1309_343,stimulusMIJA04_2IFCnew_2019_Jun_17_1309_344,False,2019_Jun_17_1309,2IFCnew,2,MIJA04,
2IFCnew,22,0,22,0,0.200463899993,1,No,4.9,-1,Hit,0.467832299997,True,False,stimulusMIJA04_2IFCnew_2019_Jun_17_1309_345,stimulusMIJA04_2IFCnew_2019_Jun_17_1309_346,False,2019_Jun_17_1309,2IFCnew,2,MIJA04,
2IFCnew,23,0,23,0,0.167031999998,3,No,4.9,-1,False Alarm,0.500699900003,False,True,stimulusMIJA04_2IFCnew_2019_Jun_17_1309_347,stimulusMIJA04_2IFCnew_2019_Jun_17_1309_348,False,2019_Jun_17_1309,2IFCnew,2,MIJA04,
2IFCnew,24,0,24,0,0.267144599988,3,No,4.9,-1,False Alarm,0.566719800001,False,True,stimulusMIJA04_2IFCnew_2019_Jun_17_1309_349,stimulusMIJA04_2IFCnew_2019_Jun_17_1309_350,False,2019_Jun_17_1309,2IFCnew,2,MIJA04,
2IFCnew,25,0,25,0,0.134343999991,2,Yes,4.9,-1,Correct Rejection,0.334632000013,False,True,stimulusMIJA04_2IFCnew_2019_Jun_17_1309_351,stimulusMIJA04_2IFCnew_2019_Jun_17_1309_352,False,2019_Jun_17_1309,2IFCnew,2,MIJA04,
2IFCnew,26,0,26,0,0.233769499988,1,No,4.9,-1,Hit,0.466768099985,True,False,stimulusMIJA04_2IFCnew_2019_Jun_17_1309_353,stimulusMIJA04_2IFCnew_2019_Jun_17_1309_354,False,2019_Jun_17_1309,2IFCnew,2,MIJA04,
2IFCnew,27,0,27,0,0.267066,3,No,4.9,-1,False Alarm,0.467435099999,False,True,stimulusMIJA04_2IFCnew_2019_Jun_17_1309_355,stimulusMIJA04_2IFCnew_2019_Jun_17_1309_356,False,2019_Jun_17_1309,2IFCnew,2,MIJA04,
2IFCnew,28,0,28,0,0.433471900003,8,No,4.9,-1,Correct Rejection,0.401289600006,False,True,stimulusMIJA04_2IFCnew_2019_Jun_17_1309_357,stimulusMIJA04_2IFCnew_2019_Jun_17_1309_358,False,2019_Jun_17_1309,2IFCnew,2,MIJA04,
2IFCnew,29,0,29,0,0.267012900003,2,Yes,4.9,-1,Correct Rejection,0.532590799994,False,True,stimulusMIJA04_2IFCnew_2019_Jun_17_1309_359,stimulusMIJA04_2IFCnew_2019_Jun_17_1309_360,False,2019_Jun_17_1309,2IFCnew,2,MIJA04,
2IFCnew,30,0,30,0,0.200224,1,No,4.9,-1,Hit,0.533524900005,True,False,stimulusMIJA04_2IFCnew_2019_Jun_17_1309_361,stimulusMIJA04_2IFCnew_2019_Jun_17_1309_362,False,2019_Jun_17_1309,2IFCnew,2,MIJA04,
2IFCnew,31,0,31,0,0.665717900003,2,Yes,4.9,-1,Correct Rejection,0.899776599981,False,True,stimulusMIJA04_2IFCnew_2019_Jun_17_1309_363,stimulusMIJA04_2IFCnew_2019_Jun_17_1309_364,False,2019_Jun_17_1309,2IFCnew,2,MIJA04,
2IFCnew,32,0,32,0,0.400642299996,1,No,4.9,-1,Hit,0.667599500011,True,False,stimulusMIJA04_2IFCnew_2019_Jun_17_1309_365,stimulusMIJA04_2IFCnew_2019_Jun_17_1309_366,False,2019_Jun_17_1309,2IFCnew,2,MIJA04,
2IFCnew,33,0,33,0,0.367547300004,2,Yes,4.9,-1,Correct Rejection,0.568209999998,False,True,stimulusMIJA04_2IFCnew_2019_Jun_17_1309_367,stimulusMIJA04_2IFCnew_2019_Jun_17_1309_368,False,2019_Jun_17_1309,2IFCnew,2,MIJA04,
2IFCnew,34,0,34,0,0.333829400013,1,No,4.9,-1,Hit,0.567188100016,True,False,stimulusMIJA04_2IFCnew_2019_Jun_17_1309_369,stimulusMIJA04_2IFCnew_2019_Jun_17_1309_370,False,2019_Jun_17_1309,2IFCnew,2,MIJA04,
2IFCnew,35,0,35,0,0.300821400015,2,Yes,4.9,-1,Correct Rejection,0.600643799989,False,True,stimulusMIJA04_2IFCnew_2019_Jun_17_1309_371,stimulusMIJA04_2IFCnew_2019_Jun_17_1309_372,False,2019_Jun_17_1309,2IFCnew,2,MIJA04,
2IFCnew,36,0,36,0,0.166986600001,1,No,4.9,-1,Hit,0.433985999989,True,False,stimulusMIJA04_2IFCnew_2019_Jun_17_1309_373,stimulusMIJA04_2IFCnew_2019_Jun_17_1309_374,False,2019_Jun_17_1309,2IFCnew,2,MIJA04,
2IFCnew,37,0,37,0,0.167021000001,1,No,4.9,-1,Hit,0.467386100005,True,False,stimulusMIJA04_2IFCnew_2019_Jun_17_1309_375,stimulusMIJA04_2IFCnew_2019_Jun_17_1309_376,False,2019_Jun_17_1309,2IFCnew,2,MIJA04,
2IFCnew,38,0,38,0,0.300844100013,1,No,4.9,-1,Hit,0.566054900002,True,False,stimulusMIJA04_2IFCnew_2019_Jun_17_1309_377,stimulusMIJA04_2IFCnew_2019_Jun_17_1309_378,False,2019_Jun_17_1309,2IFCnew,2,MIJA04,
2IFCnew,39,0,39,0,0.266963900009,3,No,4.9,-1,False Alarm,0.533928499994,False,True,stimulusMIJA04_2IFCnew_2019_Jun_17_1309_379,stimulusMIJA04_2IFCnew_2019_Jun_17_1309_380,False,2019_Jun_17_1309,2IFCnew,2,MIJA04,
2IFCnew,40,0,40,0,0.366119999991,1,No,4.9,-1,Hit,0.734690499987,True,False,stimulusMIJA04_2IFCnew_2019_Jun_17_1309_381,stimulusMIJA04_2IFCnew_2019_Jun_17_1309_382,False,2019_Jun_17_1309,2IFCnew,2,MIJA04,
2IFCnew,41,0,41,0,0.233600899985,2,Yes,4.9,-1,Correct Rejection,0.568405400001,False,True,stimulusMIJA04_2IFCnew_2019_Jun_17_1309_383,stimulusMIJA04_2IFCnew_2019_Jun_17_1309_384,False,2019_Jun_17_1309,2IFCnew,2,MIJA04,
2IFCnew,42,0,42,0,0.233660099999,1,No,4.9,-1,Hit,0.500720000011,True,False,stimulusMIJA04_2IFCnew_2019_Jun_17_1309_385,stimulusMIJA04_2IFCnew_2019_Jun_17_1309_386,False,2019_Jun_17_1309,2IFCnew,2,MIJA04,
2IFCnew,43,0,43,0,0.301317500009,1,No,4.9,-1,Hit,0.500843999995,True,False,stimulusMIJA04_2IFCnew_2019_Jun_17_1309_387,stimulusMIJA04_2IFCnew_2019_Jun_17_1309_388,False,2019_Jun_17_1309,2IFCnew,2,MIJA04,
2IFCnew,44,0,44,0,0.300394799997,1,No,4.9,-1,Hit,0.433550999995,True,False,stimulusMIJA04_2IFCnew_2019_Jun_17_1309_389,stimulusMIJA04_2IFCnew_2019_Jun_17_1309_390,False,2019_Jun_17_1309,2IFCnew,2,MIJA04,
2IFCnew,45,0,45,0,0.300143499975,1,No,4.9,-1,Hit,0.636746199976,True,False,stimulusMIJA04_2IFCnew_2019_Jun_17_1309_391,stimulusMIJA04_2IFCnew_2019_Jun_17_1309_392,False,2019_Jun_17_1309,2IFCnew,2,MIJA04,
2IFCnew,46,0,46,0,0.367276400008,1,No,4.9,-1,Hit,0.500479299983,True,False,stimulusMIJA04_2IFCnew_2019_Jun_17_1309_393,stimulusMIJA04_2IFCnew_2019_Jun_17_1309_394,False,2019_Jun_17_1309,2IFCnew,2,MIJA04,
2IFCnew,47,0,47,0,0.267043100001,1,No,4.9,-1,Hit,0.498895099998,True,False,stimulusMIJA04_2IFCnew_2019_Jun_17_1309_395,stimulusMIJA04_2IFCnew_2019_Jun_17_1309_396,False,2019_Jun_17_1309,2IFCnew,2,MIJA04,
2IFCnew,48,0,48,0,0.234750000003,3,No,4.9,-1,False Alarm,0.501524699997,False,True,stimulusMIJA04_2IFCnew_2019_Jun_17_1309_397,stimulusMIJA04_2IFCnew_2019_Jun_17_1309_398,False,2019_Jun_17_1309,2IFCnew,2,MIJA04,
2IFCnew,49,0,49,0,0.567297100002,3,No,4.9,-1,False Alarm,0.834023000003,False,True,stimulusMIJA04_2IFCnew_2019_Jun_17_1309_399,stimulusMIJA04_2IFCnew_2019_Jun_17_1309_400,False,2019_Jun_17_1309,2IFCnew,2,MIJA04,
2IFCnew,50,0,50,0,0.366964399989,4,Yes,4.9,-1,Miss,0.634784499998,True,False,stimulusMIJA04_2IFCnew_2019_Jun_17_1309_401,stimulusMIJA04_2IFCnew_2019_Jun_17_1309_402,False,2019_Jun_17_1309,2IFCnew,2,MIJA04,
2IFCnew,51,0,51,0,0.334061600006,1,No,4.9,-1,Hit,0.56876200001,True,False,stimulusMIJA04_2IFCnew_2019_Jun_17_1309_403,stimulusMIJA04_2IFCnew_2019_Jun_17_1309_404,False,2019_Jun_17_1309,2IFCnew,2,MIJA04,
2IFCnew,52,0,52,0,0.400888199976,1,No,4.9,-1,Hit,0.501055100001,True,False,stimulusMIJA04_2IFCnew_2019_Jun_17_1309_405,stimulusMIJA04_2IFCnew_2019_Jun_17_1309_406,False,2019_Jun_17_1309,2IFCnew,2,MIJA04,
2IFCnew,53,0,53,0,0.300704699999,3,No,4.9,-1,False Alarm,0.634379099996,False,True,stimulusMIJA04_2IFCnew_2019_Jun_17_1309_407,stimulusMIJA04_2IFCnew_2019_Jun_17_1309_408,False,2019_Jun_17_1309,2IFCnew,2,MIJA04,
2IFCnew,54,0,54,0,0.200541999977,1,No,4.9,-1,Hit,0.567385100003,True,False,stimulusMIJA04_2IFCnew_2019_Jun_17_1309_409,stimulusMIJA04_2IFCnew_2019_Jun_17_1309_410,False,2019_Jun_17_1309,2IFCnew,2,MIJA04,
2IFCnew,55,0,55,0,0.233921099978,1,No,4.9,-1,Hit,0.53419570002,True,False,stimulusMIJA04_2IFCnew_2019_Jun_17_1309_411,stimulusMIJA04_2IFCnew_2019_Jun_17_1309_412,False,2019_Jun_17_1309,2IFCnew,2,MIJA04,
2IFCnew,56,0,56,0,0.234393399995,1,No,4.9,-1,Hit,0.568292199983,True,False,stimulusMIJA04_2IFCnew_2019_Jun_17_1309_413,stimulusMIJA04_2IFCnew_2019_Jun_17_1309_414,False,2019_Jun_17_1309,2IFCnew,2,MIJA04,
2IFCnew,57,0,57,0,0.333502499998,3,No,4.9,-1,False Alarm,0.433957399975,False,True,stimulusMIJA04_2IFCnew_2019_Jun_17_1309_415,stimulusMIJA04_2IFCnew_2019_Jun_17_1309_416,False,2019_Jun_17_1309,2IFCnew,2,MIJA04,
2IFCnew,58,0,58,0,0.300498099998,2,Yes,4.9,-1,Correct Rejection,0.533957500011,False,True,stimulusMIJA04_2IFCnew_2019_Jun_17_1309_417,stimulusMIJA04_2IFCnew_2019_Jun_17_1309_418,False,2019_Jun_17_1309,2IFCnew,2,MIJA04,
2IFCnew,59,0,59,0,0.234890299995,2,Yes,4.9,-1,Correct Rejection,0.500431399996,False,True,stimulusMIJA04_2IFCnew_2019_Jun_17_1309_419,stimulusMIJA04_2IFCnew_2019_Jun_17_1309_420,False,2019_Jun_17_1309,2IFCnew,2,MIJA04,
2IFCnew,60,0,60,0,0.567612100014,6,No,4.9,-1,Miss,0.500044299988,True,False,stimulusMIJA04_2IFCnew_2019_Jun_17_1309_421,stimulusMIJA04_2IFCnew_2019_Jun_17_1309_422,False,2019_Jun_17_1309,2IFCnew,2,MIJA04,
2IFCnew,61,0,61,0,0.400630000018,4,Yes,4.9,-1,Miss,0.601075499988,True,False,stimulusMIJA04_2IFCnew_2019_Jun_17_1309_423,stimulusMIJA04_2IFCnew_2019_Jun_17_1309_424,False,2019_Jun_17_1309,2IFCnew,2,MIJA04,
2IFCnew,62,0,62,0,0.336234200018,1,No,4.9,-1,Hit,0.5672166,True,False,stimulusMIJA04_2IFCnew_2019_Jun_17_1309_425,stimulusMIJA04_2IFCnew_2019_Jun_17_1309_426,False,2019_Jun_17_1309,2IFCnew,2,MIJA04,
2IFCnew,63,0,63,0,0.23372660001,1,No,4.9,-1,Hit,0.501458599989,True,False,stimulusMIJA04_2IFCnew_2019_Jun_17_1309_427,stimulusMIJA04_2IFCnew_2019_Jun_17_1309_428,False,2019_Jun_17_1309,2IFCnew,2,MIJA04,
2IFCnew,64,0,64,0,0.267526100011,2,Yes,4.9,-1,Correct Rejection,0.567162000021,False,True,stimulusMIJA04_2IFCnew_2019_Jun_17_1309_429,stimulusMIJA04_2IFCnew_2019_Jun_17_1309_430,False,2019_Jun_17_1309,2IFCnew,2,MIJA04,
2IFCnew,65,0,65,0,0.300355600019,1,No,4.9,-1,Hit,0.634116800007,True,False,stimulusMIJA04_2IFCnew_2019_Jun_17_1309_431,stimulusMIJA04_2IFCnew_2019_Jun_17_1309_432,False,2019_Jun_17_1309,2IFCnew,2,MIJA04,
2IFCnew,66,0,66,0,0.167145400017,4,Yes,4.9,-1,Miss,0.500054600008,True,False,stimulusMIJA04_2IFCnew_2019_Jun_17_1309_433,stimulusMIJA04_2IFCnew_2019_Jun_17_1309_434,False,2019_Jun_17_1309,2IFCnew,2,MIJA04,
2IFCnew,67,0,67,0,0.167972700001,1,No,4.9,-1,Hit,0.337189100013,True,False,stimulusMIJA04_2IFCnew_2019_Jun_17_1309_435,stimulusMIJA04_2IFCnew_2019_Jun_17_1309_436,False,2019_Jun_17_1309,2IFCnew,2,MIJA04,
2IFCnew,68,0,68,0,0.233671900001,3,No,4.9,-1,False Alarm,0.468163600017,False,True,stimulusMIJA04_2IFCnew_2019_Jun_17_1309_437,stimulusMIJA04_2IFCnew_2019_Jun_17_1309_438,False,2019_Jun_17_1309,2IFCnew,2,MIJA04,
2IFCnew,69,0,69,0,0.266908199992,3,No,4.9,-1,False Alarm,0.535570800013,False,True,stimulusMIJA04_2IFCnew_2019_Jun_17_1309_439,stimulusMIJA04_2IFCnew_2019_Jun_17_1309_440,False,2019_Jun_17_1309,2IFCnew,2,MIJA04,
2IFCnew,70,0,70,0,0.233792599989,2,Yes,4.9,-1,Correct Rejection,0.43464610001,False,True,stimulusMIJA04_2IFCnew_2019_Jun_17_1309_441,stimulusMIJA04_2IFCnew_2019_Jun_17_1309_442,False,2019_Jun_17_1309,2IFCnew,2,MIJA04,
2IFCnew,71,0,71,0,0.3338086,1,No,4.9,-1,Hit,0.567606500001,True,False,stimulusMIJA04_2IFCnew_2019_Jun_17_1309_443,stimulusMIJA04_2IFCnew_2019_Jun_17_1309_444,False,2019_Jun_17_1309,2IFCnew,2,MIJA04,
2IFCnew,72,0,72,0,0.234779699997,1,No,4.9,-1,Hit,0.434581199981,True,False,stimulusMIJA04_2IFCnew_2019_Jun_17_1309_445,stimulusMIJA04_2IFCnew_2019_Jun_17_1309_446,False,2019_Jun_17_1309,2IFCnew,2,MIJA04,
2IFCnew,73,0,73,0,0.166996799991,3,No,4.9,-1,False Alarm,0.367410200008,False,True,stimulusMIJA04_2IFCnew_2019_Jun_17_1309_447,stimulusMIJA04_2IFCnew_2019_Jun_17_1309_448,False,2019_Jun_17_1309,2IFCnew,2,MIJA04,
2IFCnew,74,0,74,0,0.331904299994,6,No,4.9,-1,Miss,0.33364289999,True,False,stimulusMIJA04_2IFCnew_2019_Jun_17_1309_449,stimulusMIJA04_2IFCnew_2019_Jun_17_1309_450,False,2019_Jun_17_1309,2IFCnew,2,MIJA04,
2IFCnew,0,0,0,0,0.534206799988,2,Yes,1,-1,Correct Rejection,0.533876300004,False,True,stimulusMIJA04_2IFCnew_2019_Jun_17_1309_451,stimulusMIJA04_2IFCnew_2019_Jun_17_1309_452,False,2019_Jun_17_1309,2IFCnew,2,MIJA04,
2IFCnew,1,0,1,0,0.133632799989,3,No,1,-1,False Alarm,0.40086329999,False,True,stimulusMIJA04_2IFCnew_2019_Jun_17_1309_453,stimulusMIJA04_2IFCnew_2019_Jun_17_1309_454,False,2019_Jun_17_1309,2IFCnew,2,MIJA04,
2IFCnew,2,0,2,0,0.666881699988,5,Yes,1,-1,False Alarm,0.533217599994,False,True,stimulusMIJA04_2IFCnew_2019_Jun_17_1309_455,stimulusMIJA04_2IFCnew_2019_Jun_17_1309_456,False,2019_Jun_17_1309,2IFCnew,2,MIJA04,
2IFCnew,3,0,3,0,0.267513800005,2,Yes,1,-1,Correct Rejection,0.433904200007,False,True,stimulusMIJA04_2IFCnew_2019_Jun_17_1309_457,stimulusMIJA04_2IFCnew_2019_Jun_17_1309_458,False,2019_Jun_17_1309,2IFCnew,2,MIJA04,
2IFCnew,4,0,4,0,0.300647700002,3,No,1,-1,False Alarm,0.565951999975,False,True,stimulusMIJA04_2IFCnew_2019_Jun_17_1309_459,stimulusMIJA04_2IFCnew_2019_Jun_17_1309_460,False,2019_Jun_17_1309,2IFCnew,2,MIJA04,
2IFCnew,5,0,5,0,0.300547499995,1,No,1,-1,Hit,0.400689200003,True,False,stimulusMIJA04_2IFCnew_2019_Jun_17_1309_461,stimulusMIJA04_2IFCnew_2019_Jun_17_1309_462,False,2019_Jun_17_1309,2IFCnew,2,MIJA04,
2IFCnew,6,0,6,0,0.366940499982,1,No,1,-1,Hit,0.567066799995,True,False,stimulusMIJA04_2IFCnew_2019_Jun_17_1309_463,stimulusMIJA04_2IFCnew_2019_Jun_17_1309_464,False,2019_Jun_17_1309,2IFCnew,2,MIJA04,
2IFCnew,7,0,7,0,0.3006781,3,No,1,-1,False Alarm,0.633187800006,False,True,stimulusMIJA04_2IFCnew_2019_Jun_17_1309_465,stimulusMIJA04_2IFCnew_2019_Jun_17_1309_466,False,2019_Jun_17_1309,2IFCnew,2,MIJA04,
2IFCnew,8,0,8,0,0.200270000001,3,No,1,-1,False Alarm,0.500847699994,False,True,stimulusMIJA04_2IFCnew_2019_Jun_17_1309_467,stimulusMIJA04_2IFCnew_2019_Jun_17_1309_468,False,2019_Jun_17_1309,2IFCnew,2,MIJA04,
2IFCnew,9,0,9,0,0.300379199994,1,No,1,-1,Hit,0.763642000005,True,False,stimulusMIJA04_2IFCnew_2019_Jun_17_1309_469,stimulusMIJA04_2IFCnew_2019_Jun_17_1309_470,False,2019_Jun_17_1309,2IFCnew,2,MIJA04,
2IFCnew,10,0,10,0,0.166379100003,1,No,1,-1,Hit,0.533027600002,True,False,stimulusMIJA04_2IFCnew_2019_Jun_17_1309_471,stimulusMIJA04_2IFCnew_2019_Jun_17_1309_472,False,2019_Jun_17_1309,2IFCnew,2,MIJA04,
2IFCnew,11,0,11,0,0.266689200012,1,No,1,-1,Hit,0.500274799997,True,False,stimulusMIJA04_2IFCnew_2019_Jun_17_1309_473,stimulusMIJA04_2IFCnew_2019_Jun_17_1309_474,False,2019_Jun_17_1309,2IFCnew,2,MIJA04,
2IFCnew,12,0,12,0,0.300499500008,1,No,1,-1,Hit,0.700961900002,True,False,stimulusMIJA04_2IFCnew_2019_Jun_17_1309_475,stimulusMIJA04_2IFCnew_2019_Jun_17_1309_476,False,2019_Jun_17_1309,2IFCnew,2,MIJA04,
2IFCnew,13,0,13,0,0.467107400007,4,Yes,1,-1,Miss,0.666912900022,True,False,stimulusMIJA04_2IFCnew_2019_Jun_17_1309_477,stimulusMIJA04_2IFCnew_2019_Jun_17_1309_478,False,2019_Jun_17_1309,2IFCnew,2,MIJA04,
2IFCnew,14,0,14,0,0.300436099991,1,No,1,-1,Hit,0.633712899988,True,False,stimulusMIJA04_2IFCnew_2019_Jun_17_1309_479,stimulusMIJA04_2IFCnew_2019_Jun_17_1309_480,False,2019_Jun_17_1309,2IFCnew,2,MIJA04,
2IFCnew,15,0,15,0,0.200586399995,1,No,1,-1,Hit,0.467184500012,True,False,stimulusMIJA04_2IFCnew_2019_Jun_17_1309_481,stimulusMIJA04_2IFCnew_2019_Jun_17_1309_482,False,2019_Jun_17_1309,2IFCnew,2,MIJA04,
2IFCnew,16,0,16,0,0.235121900012,1,No,1,-1,Hit,0.600768399978,True,False,stimulusMIJA04_2IFCnew_2019_Jun_17_1309_483,stimulusMIJA04_2IFCnew_2019_Jun_17_1309_484,False,2019_Jun_17_1309,2IFCnew,2,MIJA04,
2IFCnew,17,0,17,0,0.365866900014,2,Yes,1,-1,Correct Rejection,0.601405099995,False,True,stimulusMIJA04_2IFCnew_2019_Jun_17_1309_485,stimulusMIJA04_2IFCnew_2019_Jun_17_1309_486,False,2019_Jun_17_1309,2IFCnew,2,MIJA04,
2IFCnew,18,0,18,0,0.367350999994,2,Yes,1,-1,Correct Rejection,0.667002400005,False,True,stimulusMIJA04_2IFCnew_2019_Jun_17_1309_487,stimulusMIJA04_2IFCnew_2019_Jun_17_1309_488,False,2019_Jun_17_1309,2IFCnew,2,MIJA04,
2IFCnew,19,0,19,0,0.198752299999,1,No,1,-1,Hit,0.567445399996,True,False,stimulusMIJA04_2IFCnew_2019_Jun_17_1309_489,stimulusMIJA04_2IFCnew_2019_Jun_17_1309_490,False,2019_Jun_17_1309,2IFCnew,2,MIJA04,
2IFCnew,20,0,20,0,0.200559299992,1,No,1,-1,Hit,0.402164300001,True,False,stimulusMIJA04_2IFCnew_2019_Jun_17_1309_491,stimulusMIJA04_2IFCnew_2019_Jun_17_1309_492,False,2019_Jun_17_1309,2IFCnew,2,MIJA04,
2IFCnew,21,0,21,0,0.10011270002,1,No,1,-1,Hit,0.400660500018,True,False,stimulusMIJA04_2IFCnew_2019_Jun_17_1309_493,stimulusMIJA04_2IFCnew_2019_Jun_17_1309_494,False,2019_Jun_17_1309,2IFCnew,2,MIJA04,
2IFCnew,22,0,22,0,0.230234600022,1,No,1,-1,Hit,0.432566200005,True,False,stimulusMIJA04_2IFCnew_2019_Jun_17_1309_495,stimulusMIJA04_2IFCnew_2019_Jun_17_1309_496,False,2019_Jun_17_1309,2IFCnew,2,MIJA04,
2IFCnew,23,0,23,0,0.200419800007,3,No,1,-1,False Alarm,0.533229299996,False,True,stimulusMIJA04_2IFCnew_2019_Jun_17_1309_497,stimulusMIJA04_2IFCnew_2019_Jun_17_1309_498,False,2019_Jun_17_1309,2IFCnew,2,MIJA04,
2IFCnew,24,0,24,0,0.267326200003,4,Yes,1,-1,Miss,0.367022700026,True,False,stimulusMIJA04_2IFCnew_2019_Jun_17_1309_499,stimulusMIJA04_2IFCnew_2019_Jun_17_1309_500,False,2019_Jun_17_1309,2IFCnew,2,MIJA04,
2IFCnew,25,0,25,0,0.633958599996,3,No,1,-1,False Alarm,0.634358399984,False,True,stimulusMIJA04_2IFCnew_2019_Jun_17_1309_501,stimulusMIJA04_2IFCnew_2019_Jun_17_1309_502,False,2019_Jun_17_1309,2IFCnew,2,MIJA04,
2IFCnew,26,0,26,0,0.767280900007,3,No,1,-1,False Alarm,0.733503900003,False,True,stimulusMIJA04_2IFCnew_2019_Jun_17_1309_503,stimulusMIJA04_2IFCnew_2019_Jun_17_1309_504,False,2019_Jun_17_1309,2IFCnew,2,MIJA04,
2IFCnew,27,0,27,0,0.334621200018,4,Yes,1,-1,Miss,0.634001600003,True,False,stimulusMIJA04_2IFCnew_2019_Jun_17_1309_505,stimulusMIJA04_2IFCnew_2019_Jun_17_1309_506,False,2019_Jun_17_1309,2IFCnew,2,MIJA04,
2IFCnew,28,0,28,0,0.367419100017,2,Yes,1,-1,Correct Rejection,0.666268200002,False,True,stimulusMIJA04_2IFCnew_2019_Jun_17_1309_507,stimulusMIJA04_2IFCnew_2019_Jun_17_1309_508,False,2019_Jun_17_1309,2IFCnew,2,MIJA04,
2IFCnew,29,0,29,0,0.467220799997,4,Yes,1,-1,Miss,0.833880799997,True,False,stimulusMIJA04_2IFCnew_2019_Jun_17_1309_509,stimulusMIJA04_2IFCnew_2019_Jun_17_1309_510,False,2019_Jun_17_1309,2IFCnew,2,MIJA04,
2IFCnew,30,0,30,0,0.703325899987,3,No,1,-1,False Alarm,0.267955500021,False,True,stimulusMIJA04_2IFCnew_2019_Jun_17_1309_511,stimulusMIJA04_2IFCnew_2019_Jun_17_1309_512,False,2019_Jun_17_1309,2IFCnew,2,MIJA04,
2IFCnew,31,0,31,0,0.333776499989,4,Yes,1,-1,Miss,0.667333099991,True,False,stimulusMIJA04_2IFCnew_2019_Jun_17_1309_513,stimulusMIJA04_2IFCnew_2019_Jun_17_1309_514,False,2019_Jun_17_1309,2IFCnew,2,MIJA04,
2IFCnew,32,0,32,0,0.0330791999877,3,No,1,-1,False Alarm,0.367131900013,False,True,stimulusMIJA04_2IFCnew_2019_Jun_17_1309_515,stimulusMIJA04_2IFCnew_2019_Jun_17_1309_516,False,2019_Jun_17_1309,2IFCnew,2,MIJA04,
2IFCnew,33,0,33,0,0.0666362000047,2,Yes,1,-1,Correct Rejection,0.300362000009,False,True,stimulusMIJA04_2IFCnew_2019_Jun_17_1309_517,stimulusMIJA04_2IFCnew_2019_Jun_17_1309_518,False,2019_Jun_17_1309,2IFCnew,2,MIJA04,
2IFCnew,34,0,34,0,0.100944800011,3,No,1,-1,False Alarm,0.433934700006,False,True,stimulusMIJA04_2IFCnew_2019_Jun_17_1309_519,stimulusMIJA04_2IFCnew_2019_Jun_17_1309_520,False,2019_Jun_17_1309,2IFCnew,2,MIJA04,
2IFCnew,35,0,35,0,0.234320399992,4,Yes,1,-1,Miss,0.466176899994,True,False,stimulusMIJA04_2IFCnew_2019_Jun_17_1309_521,stimulusMIJA04_2IFCnew_2019_Jun_17_1309_522,False,2019_Jun_17_1309,2IFCnew,2,MIJA04,
2IFCnew,36,0,36,0,0.166906300001,1,No,1,-1,Hit,0.33423800001,True,False,stimulusMIJA04_2IFCnew_2019_Jun_17_1309_523,stimulusMIJA04_2IFCnew_2019_Jun_17_1309_524,False,2019_Jun_17_1309,2IFCnew,2,MIJA04,
2IFCnew,37,0,37,0,0.200770900003,1,No,1,-1,Hit,0.499654000014,True,False,stimulusMIJA04_2IFCnew_2019_Jun_17_1309_525,stimulusMIJA04_2IFCnew_2019_Jun_17_1309_526,False,2019_Jun_17_1309,2IFCnew,2,MIJA04,
2IFCnew,38,0,38,0,0.233616500016,3,No,1,-1,False Alarm,0.401610199973,False,True,stimulusMIJA04_2IFCnew_2019_Jun_17_1309_527,stimulusMIJA04_2IFCnew_2019_Jun_17_1309_528,False,2019_Jun_17_1309,2IFCnew,2,MIJA04,
2IFCnew,39,0,39,0,0.300631900027,2,Yes,1,-1,Correct Rejection,0.500691599998,False,True,stimulusMIJA04_2IFCnew_2019_Jun_17_1309_529,stimulusMIJA04_2IFCnew_2019_Jun_17_1309_530,False,2019_Jun_17_1309,2IFCnew,2,MIJA04,
2IFCnew,40,0,40,0,0.267708200001,1,No,1,-1,Hit,0.602529199998,True,False,stimulusMIJA04_2IFCnew_2019_Jun_17_1309_531,stimulusMIJA04_2IFCnew_2019_Jun_17_1309_532,False,2019_Jun_17_1309,2IFCnew,2,MIJA04,
2IFCnew,41,0,41,0,0.300547100022,1,No,1,-1,Hit,0.600618199998,True,False,stimulusMIJA04_2IFCnew_2019_Jun_17_1309_533,stimulusMIJA04_2IFCnew_2019_Jun_17_1309_534,False,2019_Jun_17_1309,2IFCnew,2,MIJA04,
2IFCnew,42,0,42,0,0.167093900003,3,No,1,-1,False Alarm,0.400519699993,False,True,stimulusMIJA04_2IFCnew_2019_Jun_17_1309_535,stimulusMIJA04_2IFCnew_2019_Jun_17_1309_536,False,2019_Jun_17_1309,2IFCnew,2,MIJA04,
2IFCnew,43,0,43,0,0.29981669999,2,Yes,1,-1,Correct Rejection,0.500584299996,False,True,stimulusMIJA04_2IFCnew_2019_Jun_17_1309_537,stimulusMIJA04_2IFCnew_2019_Jun_17_1309_538,False,2019_Jun_17_1309,2IFCnew,2,MIJA04,
2IFCnew,44,0,44,0,0.667152300011,2,Yes,1,-1,Correct Rejection,0.600108899991,False,True,stimulusMIJA04_2IFCnew_2019_Jun_17_1309_539,stimulusMIJA04_2IFCnew_2019_Jun_17_1309_540,False,2019_Jun_17_1309,2IFCnew,2,MIJA04,
2IFCnew,45,0,45,0,0.200161699991,1,No,1,-1,Hit,0.435544599983,True,False,stimulusMIJA04_2IFCnew_2019_Jun_17_1309_541,stimulusMIJA04_2IFCnew_2019_Jun_17_1309_542,False,2019_Jun_17_1309,2IFCnew,2,MIJA04,
2IFCnew,46,0,46,0,0.233647199988,1,No,1,-1,Hit,0.500559200009,True,False,stimulusMIJA04_2IFCnew_2019_Jun_17_1309_543,stimulusMIJA04_2IFCnew_2019_Jun_17_1309_544,False,2019_Jun_17_1309,2IFCnew,2,MIJA04,
2IFCnew,47,0,47,0,0.434435000003,3,No,1,-1,False Alarm,0.467621899996,False,True,stimulusMIJA04_2IFCnew_2019_Jun_17_1309_545,stimulusMIJA04_2IFCnew_2019_Jun_17_1309_546,False,2019_Jun_17_1309,2IFCnew,2,MIJA04,
2IFCnew,48,0,48,0,0.434035299986,3,No,1,-1,False Alarm,0.534602800006,False,True,stimulusMIJA04_2IFCnew_2019_Jun_17_1309_547,stimulusMIJA04_2IFCnew_2019_Jun_17_1309_548,False,2019_Jun_17_1309,2IFCnew,2,MIJA04,
2IFCnew,49,0,49,0,0.532884699991,5,Yes,1,-1,False Alarm,0.500148199993,False,True,stimulusMIJA04_2IFCnew_2019_Jun_17_1309_549,stimulusMIJA04_2IFCnew_2019_Jun_17_1309_550,False,2019_Jun_17_1309,2IFCnew,2,MIJA04,
2IFCnew,50,0,50,0,0.467341800017,7,Yes,1,-1,Hit,0.667499299976,True,False,stimulusMIJA04_2IFCnew_2019_Jun_17_1309_551,stimulusMIJA04_2IFCnew_2019_Jun_17_1309_552,False,2019_Jun_17_1309,2IFCnew,2,MIJA04,
2IFCnew,51,0,51,0,0.836035900022,5,Yes,1,-1,False Alarm,0.500632699986,False,True,stimulusMIJA04_2IFCnew_2019_Jun_17_1309_553,stimulusMIJA04_2IFCnew_2019_Jun_17_1309_554,False,2019_Jun_17_1309,2IFCnew,2,MIJA04,
2IFCnew,52,0,52,0,0.367412699998,2,Yes,1,-1,Correct Rejection,0.468789499981,False,True,stimulusMIJA04_2IFCnew_2019_Jun_17_1309_555,stimulusMIJA04_2IFCnew_2019_Jun_17_1309_556,False,2019_Jun_17_1309,2IFCnew,2,MIJA04,
2IFCnew,53,0,53,0,0.300958600012,1,No,1,-1,Hit,0.600756899978,True,False,stimulusMIJA04_2IFCnew_2019_Jun_17_1309_557,stimulusMIJA04_2IFCnew_2019_Jun_17_1309_558,False,2019_Jun_17_1309,2IFCnew,2,MIJA04,
2IFCnew,54,0,54,0,0.398528799997,1,No,1,-1,Hit,0.700635099987,True,False,stimulusMIJA04_2IFCnew_2019_Jun_17_1309_559,stimulusMIJA04_2IFCnew_2019_Jun_17_1309_560,False,2019_Jun_17_1309,2IFCnew,2,MIJA04,
2IFCnew,55,0,55,0,0.333883999992,3,No,1,-1,False Alarm,0.534297000006,False,True,stimulusMIJA04_2IFCnew_2019_Jun_17_1309_561,stimulusMIJA04_2IFCnew_2019_Jun_17_1309_562,False,2019_Jun_17_1309,2IFCnew,2,MIJA04,
2IFCnew,56,0,56,0,0.300918599998,4,Yes,1,-1,Miss,0.567353599996,True,False,stimulusMIJA04_2IFCnew_2019_Jun_17_1309_563,stimulusMIJA04_2IFCnew_2019_Jun_17_1309_564,False,2019_Jun_17_1309,2IFCnew,2,MIJA04,
2IFCnew,57,0,57,0,0.201178100018,3,No,1,-1,False Alarm,0.433459499996,False,True,stimulusMIJA04_2IFCnew_2019_Jun_17_1309_565,stimulusMIJA04_2IFCnew_2019_Jun_17_1309_566,False,2019_Jun_17_1309,2IFCnew,2,MIJA04,
2IFCnew,58,0,58,0,0.334293599997,4,Yes,1,-1,Miss,0.667027599993,True,False,stimulusMIJA04_2IFCnew_2019_Jun_17_1309_567,stimulusMIJA04_2IFCnew_2019_Jun_17_1309_568,False,2019_Jun_17_1309,2IFCnew,2,MIJA04,
2IFCnew,59,0,59,0,0.333833499986,1,No,1,-1,Hit,0.63394249999,True,False,stimulusMIJA04_2IFCnew_2019_Jun_17_1309_569,stimulusMIJA04_2IFCnew_2019_Jun_17_1309_570,False,2019_Jun_17_1309,2IFCnew,2,MIJA04,
2IFCnew,60,0,60,0,0.567256600014,2,Yes,1,-1,Correct Rejection,0.6670591,False,True,stimulusMIJA04_2IFCnew_2019_Jun_17_1309_571,stimulusMIJA04_2IFCnew_2019_Jun_17_1309_572,False,2019_Jun_17_1309,2IFCnew,2,MIJA04,
2IFCnew,61,0,61,0,0.233995399991,3,No,1,-1,False Alarm,0.568137599999,False,True,stimulusMIJA04_2IFCnew_2019_Jun_17_1309_573,stimulusMIJA04_2IFCnew_2019_Jun_17_1309_574,False,2019_Jun_17_1309,2IFCnew,2,MIJA04,
2IFCnew,62,0,62,0,0.200507600006,3,No,1,-1,False Alarm,0.599582900002,False,True,stimulusMIJA04_2IFCnew_2019_Jun_17_1309_575,stimulusMIJA04_2IFCnew_2019_Jun_17_1309_576,False,2019_Jun_17_1309,2IFCnew,2,MIJA04,
2IFCnew,63,0,63,0,0.0670753000013,2,Yes,1,-1,Correct Rejection,0.400323400012,False,True,stimulusMIJA04_2IFCnew_2019_Jun_17_1309_577,stimulusMIJA04_2IFCnew_2019_Jun_17_1309_578,False,2019_Jun_17_1309,2IFCnew,2,MIJA04,
2IFCnew,64,0,64,0,0.2341762,2,Yes,1,-1,Correct Rejection,0.467231100018,False,True,stimulusMIJA04_2IFCnew_2019_Jun_17_1309_579,stimulusMIJA04_2IFCnew_2019_Jun_17_1309_580,False,2019_Jun_17_1309,2IFCnew,2,MIJA04,
2IFCnew,65,0,65,0,0.133733800001,4,Yes,1,-1,Miss,0.333463099989,True,False,stimulusMIJA04_2IFCnew_2019_Jun_17_1309_581,stimulusMIJA04_2IFCnew_2019_Jun_17_1309_582,False,2019_Jun_17_1309,2IFCnew,2,MIJA04,
2IFCnew,66,0,66,0,0.500408399996,5,Yes,1,-1,False Alarm,0.267095899995,False,True,stimulusMIJA04_2IFCnew_2019_Jun_17_1309_583,stimulusMIJA04_2IFCnew_2019_Jun_17_1309_584,False,2019_Jun_17_1309,2IFCnew,2,MIJA04,
2IFCnew,67,0,67,0,0.501557300013,7,Yes,1,-1,Hit,0.634875499993,True,False,stimulusMIJA04_2IFCnew_2019_Jun_17_1309_585,stimulusMIJA04_2IFCnew_2019_Jun_17_1309_586,False,2019_Jun_17_1309,2IFCnew,2,MIJA04,
2IFCnew,68,0,68,0,0.367329900007,3,No,1,-1,False Alarm,0.433842500002,False,True,stimulusMIJA04_2IFCnew_2019_Jun_17_1309_587,stimulusMIJA04_2IFCnew_2019_Jun_17_1309_588,False,2019_Jun_17_1309,2IFCnew,2,MIJA04,
2IFCnew,69,0,69,0,0.767236499989,5,Yes,1,-1,False Alarm,0.634529700008,False,True,stimulusMIJA04_2IFCnew_2019_Jun_17_1309_589,stimulusMIJA04_2IFCnew_2019_Jun_17_1309_590,False,2019_Jun_17_1309,2IFCnew,2,MIJA04,
2IFCnew,70,0,70,0,0.733991399989,4,Yes,1,-1,Miss,0.632880899997,True,False,stimulusMIJA04_2IFCnew_2019_Jun_17_1309_591,stimulusMIJA04_2IFCnew_2019_Jun_17_1309_592,False,2019_Jun_17_1309,2IFCnew,2,MIJA04,
2IFCnew,71,0,71,0,0.266553299996,3,No,1,-1,False Alarm,0.5003325,False,True,stimulusMIJA04_2IFCnew_2019_Jun_17_1309_593,stimulusMIJA04_2IFCnew_2019_Jun_17_1309_594,False,2019_Jun_17_1309,2IFCnew,2,MIJA04,
2IFCnew,72,0,72,0,0.1665278,2,Yes,1,-1,Correct Rejection,0.435282999999,False,True,stimulusMIJA04_2IFCnew_2019_Jun_17_1309_595,stimulusMIJA04_2IFCnew_2019_Jun_17_1309_596,False,2019_Jun_17_1309,2IFCnew,2,MIJA04,
2IFCnew,73,0,73,0,0.333152300009,1,No,1,-1,Hit,0.634162100003,True,False,stimulusMIJA04_2IFCnew_2019_Jun_17_1309_597,stimulusMIJA04_2IFCnew_2019_Jun_17_1309_598,False,2019_Jun_17_1309,2IFCnew,2,MIJA04,
2IFCnew,74,0,74,0,0.268428800016,3,No,1,-1,False Alarm,0.501697600004,False,True,stimulusMIJA04_2IFCnew_2019_Jun_17_1309_599,stimulusMIJA04_2IFCnew_2019_Jun_17_1309_600,False,2019_Jun_17_1309,2IFCnew,2,MIJA04,
2IFCnew,0,0,0,0,0.434097199992,2,Yes,1.7,-1,Correct Rejection,0.634107299993,False,True,stimulusMIJA04_2IFCnew_2019_Jun_17_1309_601,stimulusMIJA04_2IFCnew_2019_Jun_17_1309_602,False,2019_Jun_17_1309,2IFCnew,2,MIJA04,
2IFCnew,1,0,1,0,0.200242499996,1,No,1.7,-1,Hit,0.400710299989,True,False,stimulusMIJA04_2IFCnew_2019_Jun_17_1309_603,stimulusMIJA04_2IFCnew_2019_Jun_17_1309_604,False,2019_Jun_17_1309,2IFCnew,2,MIJA04,
2IFCnew,2,0,2,0,0.2333163,2,Yes,1.7,-1,Correct Rejection,0.500589499978,False,True,stimulusMIJA04_2IFCnew_2019_Jun_17_1309_605,stimulusMIJA04_2IFCnew_2019_Jun_17_1309_606,False,2019_Jun_17_1309,2IFCnew,2,MIJA04,
2IFCnew,3,0,3,0,0.236784499983,1,No,1.7,-1,Hit,0.437025699997,True,False,stimulusMIJA04_2IFCnew_2019_Jun_17_1309_607,stimulusMIJA04_2IFCnew_2019_Jun_17_1309_608,False,2019_Jun_17_1309,2IFCnew,2,MIJA04,
2IFCnew,4,0,4,0,0.200230899994,3,No,1.7,-1,False Alarm,0.333628499997,False,True,stimulusMIJA04_2IFCnew_2019_Jun_17_1309_609,stimulusMIJA04_2IFCnew_2019_Jun_17_1309_610,False,2019_Jun_17_1309,2IFCnew,2,MIJA04,
2IFCnew,5,0,5,0,0.30103100001,3,No,1.7,-1,False Alarm,0.501551199995,False,True,stimulusMIJA04_2IFCnew_2019_Jun_17_1309_611,stimulusMIJA04_2IFCnew_2019_Jun_17_1309_612,False,2019_Jun_17_1309,2IFCnew,2,MIJA04,
2IFCnew,6,0,6,0,0.167112900002,1,No,1.7,-1,Hit,0.532667699998,True,False,stimulusMIJA04_2IFCnew_2019_Jun_17_1309_613,stimulusMIJA04_2IFCnew_2019_Jun_17_1309_614,False,2019_Jun_17_1309,2IFCnew,2,MIJA04,
2IFCnew,7,0,7,0,0.30005640001,3,No,1.7,-1,False Alarm,0.601424599998,False,True,stimulusMIJA04_2IFCnew_2019_Jun_17_1309_615,stimulusMIJA04_2IFCnew_2019_Jun_17_1309_616,False,2019_Jun_17_1309,2IFCnew,2,MIJA04,
2IFCnew,8,0,8,0,0.266761900013,1,No,1.7,-1,Hit,0.533890899998,True,False,stimulusMIJA04_2IFCnew_2019_Jun_17_1309_617,stimulusMIJA04_2IFCnew_2019_Jun_17_1309_618,False,2019_Jun_17_1309,2IFCnew,2,MIJA04,
2IFCnew,9,0,9,0,0.233826300013,3,No,1.7,-1,False Alarm,0.500427799998,False,True,stimulusMIJA04_2IFCnew_2019_Jun_17_1309_619,stimulusMIJA04_2IFCnew_2019_Jun_17_1309_620,False,2019_Jun_17_1309,2IFCnew,2,MIJA04,
2IFCnew,10,0,10,0,0.13357830001,3,No,1.7,-1,False Alarm,0.500789000012,False,True,stimulusMIJA04_2IFCnew_2019_Jun_17_1309_621,stimulusMIJA04_2IFCnew_2019_Jun_17_1309_622,False,2019_Jun_17_1309,2IFCnew,2,MIJA04,
2IFCnew,11,0,11,0,0.634219800006,1,No,1.7,-1,Hit,0.733285199996,True,False,stimulusMIJA04_2IFCnew_2019_Jun_17_1309_623,stimulusMIJA04_2IFCnew_2019_Jun_17_1309_624,False,2019_Jun_17_1309,2IFCnew,2,MIJA04,
2IFCnew,12,0,12,0,0.600357400021,3,No,1.7,-1,False Alarm,0.566118199989,False,True,stimulusMIJA04_2IFCnew_2019_Jun_17_1309_625,stimulusMIJA04_2IFCnew_2019_Jun_17_1309_626,False,2019_Jun_17_1309,2IFCnew,2,MIJA04,
2IFCnew,13,0,13,0,0.866924800008,1,No,1.7,-1,Hit,0.800411300006,True,False,stimulusMIJA04_2IFCnew_2019_Jun_17_1309_627,stimulusMIJA04_2IFCnew_2019_Jun_17_1309_628,False,2019_Jun_17_1309,2IFCnew,2,MIJA04,
2IFCnew,14,0,14,0,-1,2,No,1.7,-1,False Alarm,0.600672400004,False,True,stimulusMIJA04_2IFCnew_2019_Jun_17_1309_629,stimulusMIJA04_2IFCnew_2019_Jun_17_1309_630,False,2019_Jun_17_1309,2IFCnew,2,MIJA04,
2IFCnew,15,0,15,0,0.833920100005,6,No,1.7,-1,Miss,0.768359399983,True,False,stimulusMIJA04_2IFCnew_2019_Jun_17_1309_631,stimulusMIJA04_2IFCnew_2019_Jun_17_1309_632,False,2019_Jun_17_1309,2IFCnew,2,MIJA04,
2IFCnew,16,0,16,0,0.534206800017,2,Yes,1.7,-1,Correct Rejection,0.667445499974,False,True,stimulusMIJA04_2IFCnew_2019_Jun_17_1309_633,stimulusMIJA04_2IFCnew_2019_Jun_17_1309_634,False,2019_Jun_17_1309,2IFCnew,2,MIJA04,
2IFCnew,17,0,17,0,0.433487100003,1,No,1.7,-1,Hit,0.533744000015,True,False,stimulusMIJA04_2IFCnew_2019_Jun_17_1309_635,stimulusMIJA04_2IFCnew_2019_Jun_17_1309_636,False,2019_Jun_17_1309,2IFCnew,2,MIJA04,
2IFCnew,18,0,18,0,0.567276000016,3,No,1.7,-1,False Alarm,0.700622799981,False,True,stimulusMIJA04_2IFCnew_2019_Jun_17_1309_637,stimulusMIJA04_2IFCnew_2019_Jun_17_1309_638,False,2019_Jun_17_1309,2IFCnew,2,MIJA04,
2IFCnew,19,0,19,0,0.564630800014,7,Yes,1.7,-1,Hit,0.700546000007,True,False,stimulusMIJA04_2IFCnew_2019_Jun_17_1309_639,stimulusMIJA04_2IFCnew_2019_Jun_17_1309_640,False,2019_Jun_17_1309,2IFCnew,2,MIJA04,
2IFCnew,20,0,20,0,0.334328299999,1,No,1.7,-1,Hit,0.667505199992,True,False,stimulusMIJA04_2IFCnew_2019_Jun_17_1309_641,stimulusMIJA04_2IFCnew_2019_Jun_17_1309_642,False,2019_Jun_17_1309,2IFCnew,2,MIJA04,
2IFCnew,21,0,21,0,0.334541900025,1,No,1.7,-1,Hit,0.533824899991,True,False,stimulusMIJA04_2IFCnew_2019_Jun_17_1309_643,stimulusMIJA04_2IFCnew_2019_Jun_17_1309_644,False,2019_Jun_17_1309,2IFCnew,2,MIJA04,
2IFCnew,22,0,22,0,0.634530899988,6,No,1.7,-1,Miss,0.834357699991,True,False,stimulusMIJA04_2IFCnew_2019_Jun_17_1309_645,stimulusMIJA04_2IFCnew_2019_Jun_17_1309_646,False,2019_Jun_17_1309,2IFCnew,2,MIJA04,
2IFCnew,23,0,23,0,0.366902699985,1,No,1.7,-1,Hit,0.500713700021,True,False,stimulusMIJA04_2IFCnew_2019_Jun_17_1309_647,stimulusMIJA04_2IFCnew_2019_Jun_17_1309_648,False,2019_Jun_17_1309,2IFCnew,2,MIJA04,
2IFCnew,24,0,24,0,0.333925300016,3,No,1.7,-1,False Alarm,0.533812999987,False,True,stimulusMIJA04_2IFCnew_2019_Jun_17_1309_649,stimulusMIJA04_2IFCnew_2019_Jun_17_1309_650,False,2019_Jun_17_1309,2IFCnew,2,MIJA04,
2IFCnew,25,0,25,0,0.700475899997,1,No,1.7,-1,Hit,0.434119999991,True,False,stimulusMIJA04_2IFCnew_2019_Jun_17_1309_651,stimulusMIJA04_2IFCnew_2019_Jun_17_1309_652,False,2019_Jun_17_1309,2IFCnew,2,MIJA04,
2IFCnew,26,0,26,0,0.233746199985,3,No,1.7,-1,False Alarm,0.467682599992,False,True,stimulusMIJA04_2IFCnew_2019_Jun_17_1309_653,stimulusMIJA04_2IFCnew_2019_Jun_17_1309_654,False,2019_Jun_17_1309,2IFCnew,2,MIJA04,
2IFCnew,27,0,27,0,0.734303900012,3,No,1.7,-1,False Alarm,0.567155700002,False,True,stimulusMIJA04_2IFCnew_2019_Jun_17_1309_655,stimulusMIJA04_2IFCnew_2019_Jun_17_1309_656,False,2019_Jun_17_1309,2IFCnew,2,MIJA04,
2IFCnew,28,0,28,0,0.267101000005,4,Yes,1.7,-1,Miss,0.600452199986,True,False,stimulusMIJA04_2IFCnew_2019_Jun_17_1309_657,stimulusMIJA04_2IFCnew_2019_Jun_17_1309_658,False,2019_Jun_17_1309,2IFCnew,2,MIJA04,
2IFCnew,29,0,29,0,0.333891600021,1,No,1.7,-1,Hit,0.535039799986,True,False,stimulusMIJA04_2IFCnew_2019_Jun_17_1309_659,stimulusMIJA04_2IFCnew_2019_Jun_17_1309_660,False,2019_Jun_17_1309,2IFCnew,2,MIJA04,
2IFCnew,30,0,30,0,0.400229799998,3,No,1.7,-1,False Alarm,0.700465200003,False,True,stimulusMIJA04_2IFCnew_2019_Jun_17_1309_661,stimulusMIJA04_2IFCnew_2019_Jun_17_1309_662,False,2019_Jun_17_1309,2IFCnew,2,MIJA04,
2IFCnew,31,0,31,0,0.232808000001,3,No,1.7,-1,False Alarm,0.567424999987,False,True,stimulusMIJA04_2IFCnew_2019_Jun_17_1309_663,stimulusMIJA04_2IFCnew_2019_Jun_17_1309_664,False,2019_Jun_17_1309,2IFCnew,2,MIJA04,
2IFCnew,32,0,32,0,0.533971800003,7,Yes,1.7,-1,Hit,0.535487699992,True,False,stimulusMIJA04_2IFCnew_2019_Jun_17_1309_665,stimulusMIJA04_2IFCnew_2019_Jun_17_1309_666,False,2019_Jun_17_1309,2IFCnew,2,MIJA04,
2IFCnew,33,0,33,0,0.633680600004,7,Yes,1.7,-1,Hit,0.600099500007,True,False,stimulusMIJA04_2IFCnew_2019_Jun_17_1309_667,stimulusMIJA04_2IFCnew_2019_Jun_17_1309_668,False,2019_Jun_17_1309,2IFCnew,2,MIJA04,
2IFCnew,34,0,34,0,-1,0,Yes,1.7,-1,No Answer,-1,False,True,stimulusMIJA04_2IFCnew_2019_Jun_17_1309_669,stimulusMIJA04_2IFCnew_2019_Jun_17_1309_670,False,2019_Jun_17_1309,2IFCnew,2,MIJA04,
2IFCnew,35,0,35,0,-1,4,Yes,1.7,-1,Miss,0.633833,True,False,stimulusMIJA04_2IFCnew_2019_Jun_17_1309_671,stimulusMIJA04_2IFCnew_2019_Jun_17_1309_672,False,2019_Jun_17_1309,2IFCnew,2,MIJA04,
2IFCnew,36,0,36,0,0.467123199982,7,Yes,1.7,-1,Hit,0.533904700016,True,False,stimulusMIJA04_2IFCnew_2019_Jun_17_1309_673,stimulusMIJA04_2IFCnew_2019_Jun_17_1309_674,False,2019_Jun_17_1309,2IFCnew,2,MIJA04,
2IFCnew,37,0,37,0,0.40081609998,2,Yes,1.7,-1,Correct Rejection,0.53435870001,False,True,stimulusMIJA04_2IFCnew_2019_Jun_17_1309_675,stimulusMIJA04_2IFCnew_2019_Jun_17_1309_676,False,2019_Jun_17_1309,2IFCnew,2,MIJA04,
2IFCnew,38,0,38,0,0.399680500006,2,Yes,1.7,-1,Correct Rejection,0.633232599997,False,True,stimulusMIJA04_2IFCnew_2019_Jun_17_1309_677,stimulusMIJA04_2IFCnew_2019_Jun_17_1309_678,False,2019_Jun_17_1309,2IFCnew,2,MIJA04,
2IFCnew,39,0,39,0,0.267056099983,3,No,1.7,-1,False Alarm,0.534180899995,False,True,stimulusMIJA04_2IFCnew_2019_Jun_17_1309_679,stimulusMIJA04_2IFCnew_2019_Jun_17_1309_680,False,2019_Jun_17_1309,2IFCnew,2,MIJA04,
2IFCnew,40,0,40,0,0.333765000018,1,No,1.7,-1,Hit,0.701517599984,True,False,stimulusMIJA04_2IFCnew_2019_Jun_17_1309_681,stimulusMIJA04_2IFCnew_2019_Jun_17_1309_682,False,2019_Jun_17_1309,2IFCnew,2,MIJA04,
2IFCnew,41,0,41,0,0.268227499997,1,No,1.7,-1,Hit,0.533829699998,True,False,stimulusMIJA04_2IFCnew_2019_Jun_17_1309_683,stimulusMIJA04_2IFCnew_2019_Jun_17_1309_684,False,2019_Jun_17_1309,2IFCnew,2,MIJA04,
2IFCnew,42,0,42,0,0.234532399976,4,Yes,1.7,-1,Miss,0.534237799991,True,False,stimulusMIJA04_2IFCnew_2019_Jun_17_1309_685,stimulusMIJA04_2IFCnew_2019_Jun_17_1309_686,False,2019_Jun_17_1309,2IFCnew,2,MIJA04,
2IFCnew,43,0,43,0,0.133337899984,1,No,1.7,-1,Hit,0.300576499983,True,False,stimulusMIJA04_2IFCnew_2019_Jun_17_1309_687,stimulusMIJA04_2IFCnew_2019_Jun_17_1309_688,False,2019_Jun_17_1309,2IFCnew,2,MIJA04,
2IFCnew,44,0,44,0,-1,3,No,1.7,-1,Correct Rejection,0.500313200027,False,True,stimulusMIJA04_2IFCnew_2019_Jun_17_1309_689,stimulusMIJA04_2IFCnew_2019_Jun_17_1309_690,False,2019_Jun_17_1309,2IFCnew,2,MIJA04,
2IFCnew,45,0,45,0,0.630453400023,1,No,1.7,-1,Hit,0.668586899992,True,False,stimulusMIJA04_2IFCnew_2019_Jun_17_1309_691,stimulusMIJA04_2IFCnew_2019_Jun_17_1309_692,False,2019_Jun_17_1309,2IFCnew,2,MIJA04,
2IFCnew,46,0,46,0,-1,1,No,1.7,-1,Hit,0.600958299998,True,False,stimulusMIJA04_2IFCnew_2019_Jun_17_1309_693,stimulusMIJA04_2IFCnew_2019_Jun_17_1309_694,False,2019_Jun_17_1309,2IFCnew,2,MIJA04,
2IFCnew,47,0,47,0,0.367184299976,1,No,1.7,-1,Hit,0.567586099991,True,False,stimulusMIJA04_2IFCnew_2019_Jun_17_1309_695,stimulusMIJA04_2IFCnew_2019_Jun_17_1309_696,False,2019_Jun_17_1309,2IFCnew,2,MIJA04,
2IFCnew,48,0,48,0,0.300776199991,4,Yes,1.7,-1,Miss,0.567394999991,True,False,stimulusMIJA04_2IFCnew_2019_Jun_17_1309_697,stimulusMIJA04_2IFCnew_2019_Jun_17_1309_698,False,2019_Jun_17_1309,2IFCnew,2,MIJA04,
2IFCnew,49,0,49,0,0.167022199981,3,No,1.7,-1,False Alarm,0.43425999998,False,True,stimulusMIJA04_2IFCnew_2019_Jun_17_1309_699,stimulusMIJA04_2IFCnew_2019_Jun_17_1309_700,False,2019_Jun_17_1309,2IFCnew,2,MIJA04,
2IFCnew,50,0,50,0,0.199951100018,2,Yes,1.7,-1,Correct Rejection,0.400621100009,False,True,stimulusMIJA04_2IFCnew_2019_Jun_17_1309_701,stimulusMIJA04_2IFCnew_2019_Jun_17_1309_702,False,2019_Jun_17_1309,2IFCnew,2,MIJA04,
2IFCnew,51,0,51,0,0.10041319998,3,No,1.7,-1,False Alarm,0.434225399978,False,True,stimulusMIJA04_2IFCnew_2019_Jun_17_1309_703,stimulusMIJA04_2IFCnew_2019_Jun_17_1309_704,False,2019_Jun_17_1309,2IFCnew,2,MIJA04,
2IFCnew,52,0,52,0,0.101392699988,4,Yes,1.7,-1,Miss,0.300443100015,True,False,stimulusMIJA04_2IFCnew_2019_Jun_17_1309_705,stimulusMIJA04_2IFCnew_2019_Jun_17_1309_706,False,2019_Jun_17_1309,2IFCnew,2,MIJA04,
2IFCnew,53,0,53,0,0.200247600005,4,Yes,1.7,-1,Miss,0.332762799982,True,False,stimulusMIJA04_2IFCnew_2019_Jun_17_1309_707,stimulusMIJA04_2IFCnew_2019_Jun_17_1309_708,False,2019_Jun_17_1309,2IFCnew,2,MIJA04,
2IFCnew,54,0,54,0,-1,2,Yes,1.7,-1,False Alarm,0.400357900013,False,True,stimulusMIJA04_2IFCnew_2019_Jun_17_1309_709,stimulusMIJA04_2IFCnew_2019_Jun_17_1309_710,False,2019_Jun_17_1309,2IFCnew,2,MIJA04,
2IFCnew,55,0,55,0,0.434038599982,2,Yes,1.7,-1,Correct Rejection,0.633890800003,False,True,stimulusMIJA04_2IFCnew_2019_Jun_17_1309_711,stimulusMIJA04_2IFCnew_2019_Jun_17_1309_712,False,2019_Jun_17_1309,2IFCnew,2,MIJA04,
2IFCnew,56,0,56,0,0.30010990001,2,Yes,1.7,-1,Correct Rejection,0.500652499992,False,True,stimulusMIJA04_2IFCnew_2019_Jun_17_1309_713,stimulusMIJA04_2IFCnew_2019_Jun_17_1309_714,False,2019_Jun_17_1309,2IFCnew,2,MIJA04,
2IFCnew,57,0,57,0,0.367008300003,2,Yes,1.7,-1,Correct Rejection,0.599031899997,False,True,stimulusMIJA04_2IFCnew_2019_Jun_17_1309_715,stimulusMIJA04_2IFCnew_2019_Jun_17_1309_716,False,2019_Jun_17_1309,2IFCnew,2,MIJA04,
2IFCnew,58,0,58,0,0.602397300012,8,No,1.7,-1,Correct Rejection,0.60038009999,False,True,stimulusMIJA04_2IFCnew_2019_Jun_17_1309_717,stimulusMIJA04_2IFCnew_2019_Jun_17_1309_718,False,2019_Jun_17_1309,2IFCnew,2,MIJA04,
2IFCnew,59,0,59,0,0.333859900013,2,Yes,1.7,-1,Correct Rejection,0.566558299994,False,True,stimulusMIJA04_2IFCnew_2019_Jun_17_1309_719,stimulusMIJA04_2IFCnew_2019_Jun_17_1309_720,False,2019_Jun_17_1309,2IFCnew,2,MIJA04,
2IFCnew,60,0,60,0,0.433415499981,3,No,1.7,-1,False Alarm,0.467364200013,False,True,stimulusMIJA04_2IFCnew_2019_Jun_17_1309_721,stimulusMIJA04_2IFCnew_2019_Jun_17_1309_722,False,2019_Jun_17_1309,2IFCnew,2,MIJA04,
2IFCnew,61,0,61,0,0.233652900002,4,Yes,1.7,-1,Miss,0.367282899999,True,False,stimulusMIJA04_2IFCnew_2019_Jun_17_1309_723,stimulusMIJA04_2IFCnew_2019_Jun_17_1309_724,False,2019_Jun_17_1309,2IFCnew,2,MIJA04,
2IFCnew,62,0,62,0,-1,0,Yes,1.7,-1,No Answer,-1,True,False,stimulusMIJA04_2IFCnew_2019_Jun_17_1309_725,stimulusMIJA04_2IFCnew_2019_Jun_17_1309_726,False,2019_Jun_17_1309,2IFCnew,2,MIJA04,
2IFCnew,63,0,63,0,0.500250200013,4,Yes,1.7,-1,Miss,0.534026199981,True,False,stimulusMIJA04_2IFCnew_2019_Jun_17_1309_727,stimulusMIJA04_2IFCnew_2019_Jun_17_1309_728,False,2019_Jun_17_1309,2IFCnew,2,MIJA04,
2IFCnew,64,0,64,0,0.200335800007,3,No,1.7,-1,False Alarm,0.367106099991,False,True,stimulusMIJA04_2IFCnew_2019_Jun_17_1309_729,stimulusMIJA04_2IFCnew_2019_Jun_17_1309_730,False,2019_Jun_17_1309,2IFCnew,2,MIJA04,
2IFCnew,65,0,65,0,0.334023500007,2,Yes,1.7,-1,Correct Rejection,0.568622099992,False,True,stimulusMIJA04_2IFCnew_2019_Jun_17_1309_731,stimulusMIJA04_2IFCnew_2019_Jun_17_1309_732,False,2019_Jun_17_1309,2IFCnew,2,MIJA04,
2IFCnew,66,0,66,0,0.233504300006,1,No,1.7,-1,Hit,0.501137700019,True,False,stimulusMIJA04_2IFCnew_2019_Jun_17_1309_733,stimulusMIJA04_2IFCnew_2019_Jun_17_1309_734,False,2019_Jun_17_1309,2IFCnew,2,MIJA04,
2IFCnew,67,0,67,0,0.366190600005,1,No,1.7,-1,Hit,0.701036999992,True,False,stimulusMIJA04_2IFCnew_2019_Jun_17_1309_735,stimulusMIJA04_2IFCnew_2019_Jun_17_1309_736,False,2019_Jun_17_1309,2IFCnew,2,MIJA04,
2IFCnew,68,0,68,0,0.300159699982,2,Yes,1.7,-1,Correct Rejection,0.567398400017,False,True,stimulusMIJA04_2IFCnew_2019_Jun_17_1309_737,stimulusMIJA04_2IFCnew_2019_Jun_17_1309_738,False,2019_Jun_17_1309,2IFCnew,2,MIJA04,
2IFCnew,69,0,69,0,0.467638800008,2,Yes,1.7,-1,Correct Rejection,0.567427299975,False,True,stimulusMIJA04_2IFCnew_2019_Jun_17_1309_739,stimulusMIJA04_2IFCnew_2019_Jun_17_1309_740,False,2019_Jun_17_1309,2IFCnew,2,MIJA04,
2IFCnew,70,0,70,0,0.700556199998,1,No,1.7,-1,Hit,0.534154399997,True,False,stimulusMIJA04_2IFCnew_2019_Jun_17_1309_741,stimulusMIJA04_2IFCnew_2019_Jun_17_1309_742,False,2019_Jun_17_1309,2IFCnew,2,MIJA04,
2IFCnew,71,0,71,0,0.534003799985,4,Yes,1.7,-1,Miss,0.567404000001,True,False,stimulusMIJA04_2IFCnew_2019_Jun_17_1309_743,stimulusMIJA04_2IFCnew_2019_Jun_17_1309_744,False,2019_Jun_17_1309,2IFCnew,2,MIJA04,
2IFCnew,72,0,72,0,0.49901259999,3,No,1.7,-1,False Alarm,0.400672299991,False,True,stimulusMIJA04_2IFCnew_2019_Jun_17_1309_745,stimulusMIJA04_2IFCnew_2019_Jun_17_1309_746,False,2019_Jun_17_1309,2IFCnew,2,MIJA04,
2IFCnew,73,0,73,0,0.367470700003,2,Yes,1.7,-1,Correct Rejection,0.534041299979,False,True,stimulusMIJA04_2IFCnew_2019_Jun_17_1309_747,stimulusMIJA04_2IFCnew_2019_Jun_17_1309_748,False,2019_Jun_17_1309,2IFCnew,2,MIJA04,
2IFCnew,74,0,74,0,0.433762900007,4,Yes,1.7,-1,Miss,0.666983899981,True,False,stimulusMIJA04_2IFCnew_2019_Jun_17_1309_749,stimulusMIJA04_2IFCnew_2019_Jun_17_1309_750,False,2019_Jun_17_1309,2IFCnew,2,MIJA04,
2IFCnew,0,0,0,0,0.367300299986,2,Yes,8,-1,Correct Rejection,0.701804699987,False,True,stimulusMIJA04_2IFCnew_2019_Jun_17_1309_751,stimulusMIJA04_2IFCnew_2019_Jun_17_1309_752,False,2019_Jun_17_1309,2IFCnew,2,MIJA04,
2IFCnew,1,0,1,0,0.167057599989,1,No,8,-1,Hit,0.467425099981,True,False,stimulusMIJA04_2IFCnew_2019_Jun_17_1309_753,stimulusMIJA04_2IFCnew_2019_Jun_17_1309_754,False,2019_Jun_17_1309,2IFCnew,2,MIJA04,
2IFCnew,2,0,2,0,0.164621300006,1,No,8,-1,Hit,0.501674899977,True,False,stimulusMIJA04_2IFCnew_2019_Jun_17_1309_755,stimulusMIJA04_2IFCnew_2019_Jun_17_1309_756,False,2019_Jun_17_1309,2IFCnew,2,MIJA04,
2IFCnew,3,0,3,0,0.233728099993,1,No,8,-1,Hit,0.467075499997,True,False,stimulusMIJA04_2IFCnew_2019_Jun_17_1309_757,stimulusMIJA04_2IFCnew_2019_Jun_17_1309_758,False,2019_Jun_17_1309,2IFCnew,2,MIJA04,
2IFCnew,4,0,4,0,0.233691299974,1,No,8,-1,Hit,0.400816100009,True,False,stimulusMIJA04_2IFCnew_2019_Jun_17_1309_759,stimulusMIJA04_2IFCnew_2019_Jun_17_1309_760,False,2019_Jun_17_1309,2IFCnew,2,MIJA04,
2IFCnew,5,0,5,0,0.367179600027,2,Yes,8,-1,Correct Rejection,0.633953099983,False,True,stimulusMIJA04_2IFCnew_2019_Jun_17_1309_761,stimulusMIJA04_2IFCnew_2019_Jun_17_1309_762,False,2019_Jun_17_1309,2IFCnew,2,MIJA04,
2IFCnew,6,0,6,0,0.167138199991,1,No,8,-1,Hit,0.401195200015,True,False,stimulusMIJA04_2IFCnew_2019_Jun_17_1309_763,stimulusMIJA04_2IFCnew_2019_Jun_17_1309_764,False,2019_Jun_17_1309,2IFCnew,2,MIJA04,
2IFCnew,7,0,7,0,0.267247499985,1,No,8,-1,Hit,0.500805499993,True,False,stimulusMIJA04_2IFCnew_2019_Jun_17_1309_765,stimulusMIJA04_2IFCnew_2019_Jun_17_1309_766,False,2019_Jun_17_1309,2IFCnew,2,MIJA04,
2IFCnew,8,0,8,0,0.500988100015,5,Yes,8,-1,False Alarm,0.499330899998,False,True,stimulusMIJA04_2IFCnew_2019_Jun_17_1309_767,stimulusMIJA04_2IFCnew_2019_Jun_17_1309_768,False,2019_Jun_17_1309,2IFCnew,2,MIJA04,
2IFCnew,9,0,9,0,0.266973699996,1,No,8,-1,Hit,0.502062700019,True,False,stimulusMIJA04_2IFCnew_2019_Jun_17_1309_769,stimulusMIJA04_2IFCnew_2019_Jun_17_1309_770,False,2019_Jun_17_1309,2IFCnew,2,MIJA04,
2IFCnew,10,0,10,0,0.233710100001,1,No,8,-1,Hit,0.432306400005,True,False,stimulusMIJA04_2IFCnew_2019_Jun_17_1309_771,stimulusMIJA04_2IFCnew_2019_Jun_17_1309_772,False,2019_Jun_17_1309,2IFCnew,2,MIJA04,
2IFCnew,11,0,11,0,0.499618400005,3,No,8,-1,False Alarm,0.534152800014,False,True,stimulusMIJA04_2IFCnew_2019_Jun_17_1309_773,stimulusMIJA04_2IFCnew_2019_Jun_17_1309_774,False,2019_Jun_17_1309,2IFCnew,2,MIJA04,
2IFCnew,12,0,12,0,0.200707799988,1,No,8,-1,Hit,0.435016000003,True,False,stimulusMIJA04_2IFCnew_2019_Jun_17_1309_775,stimulusMIJA04_2IFCnew_2019_Jun_17_1309_776,False,2019_Jun_17_1309,2IFCnew,2,MIJA04,
2IFCnew,13,0,13,0,0.433987299999,7,Yes,8,-1,Hit,0.567501299985,True,False,stimulusMIJA04_2IFCnew_2019_Jun_17_1309_777,stimulusMIJA04_2IFCnew_2019_Jun_17_1309_778,False,2019_Jun_17_1309,2IFCnew,2,MIJA04,
2IFCnew,14,0,14,0,0.233345100016,1,No,8,-1,Hit,0.434772899986,True,False,stimulusMIJA04_2IFCnew_2019_Jun_17_1309_779,stimulusMIJA04_2IFCnew_2019_Jun_17_1309_780,False,2019_Jun_17_1309,2IFCnew,2,MIJA04,
2IFCnew,15,0,15,0,0.267835899984,2,Yes,8,-1,Correct Rejection,0.533702200017,False,True,stimulusMIJA04_2IFCnew_2019_Jun_17_1309_781,stimulusMIJA04_2IFCnew_2019_Jun_17_1309_782,False,2019_Jun_17_1309,2IFCnew,2,MIJA04,
2IFCnew,16,0,16,0,0.165838799992,1,No,8,-1,Hit,0.501724800008,True,False,stimulusMIJA04_2IFCnew_2019_Jun_17_1309_783,stimulusMIJA04_2IFCnew_2019_Jun_17_1309_784,False,2019_Jun_17_1309,2IFCnew,2,MIJA04,
2IFCnew,17,0,17,0,0.333743700001,2,Yes,8,-1,Correct Rejection,0.699488299986,False,True,stimulusMIJA04_2IFCnew_2019_Jun_17_1309_785,stimulusMIJA04_2IFCnew_2019_Jun_17_1309_786,False,2019_Jun_17_1309,2IFCnew,2,MIJA04,
2IFCnew,18,0,18,0,0.266882800002,3,No,8,-1,False Alarm,0.36722450002,False,True,stimulusMIJA04_2IFCnew_2019_Jun_17_1309_787,stimulusMIJA04_2IFCnew_2019_Jun_17_1309_788,False,2019_Jun_17_1309,2IFCnew,2,MIJA04,
2IFCnew,19,0,19,0,0.333181099995,5,Yes,8,-1,False Alarm,0.467291800014,False,True,stimulusMIJA04_2IFCnew_2019_Jun_17_1309_789,stimulusMIJA04_2IFCnew_2019_Jun_17_1309_790,False,2019_Jun_17_1309,2IFCnew,2,MIJA04,
2IFCnew,20,0,20,0,0.300184700027,2,Yes,8,-1,Correct Rejection,0.500942999992,False,True,stimulusMIJA04_2IFCnew_2019_Jun_17_1309_791,stimulusMIJA04_2IFCnew_2019_Jun_17_1309_792,False,2019_Jun_17_1309,2IFCnew,2,MIJA04,
2IFCnew,21,0,21,0,0.400850699982,5,Yes,8,-1,False Alarm,0.534346600005,False,True,stimulusMIJA04_2IFCnew_2019_Jun_17_1309_793,stimulusMIJA04_2IFCnew_2019_Jun_17_1309_794,False,2019_Jun_17_1309,2IFCnew,2,MIJA04,
2IFCnew,22,0,22,0,0.200413000013,1,No,8,-1,Hit,0.534671400004,True,False,stimulusMIJA04_2IFCnew_2019_Jun_17_1309_795,stimulusMIJA04_2IFCnew_2019_Jun_17_1309_796,False,2019_Jun_17_1309,2IFCnew,2,MIJA04,
2IFCnew,23,0,23,0,0.1639516,1,No,8,-1,Hit,0.466720800003,True,False,stimulusMIJA04_2IFCnew_2019_Jun_17_1309_797,stimulusMIJA04_2IFCnew_2019_Jun_17_1309_798,False,2019_Jun_17_1309,2IFCnew,2,MIJA04,
2IFCnew,24,0,24,0,0.233660499973,1,No,8,-1,Hit,0.500774900021,True,False,stimulusMIJA04_2IFCnew_2019_Jun_17_1309_799,stimulusMIJA04_2IFCnew_2019_Jun_17_1309_800,False,2019_Jun_17_1309,2IFCnew,2,MIJA04,
2IFCnew,25,0,25,0,0.334088200005,4,Yes,8,-1,Miss,0.600319999998,True,False,stimulusMIJA04_2IFCnew_2019_Jun_17_1309_801,stimulusMIJA04_2IFCnew_2019_Jun_17_1309_802,False,2019_Jun_17_1309,2IFCnew,2,MIJA04,
2IFCnew,26,0,26,0,0.333766099997,5,Yes,8,-1,False Alarm,0.367458499997,False,True,stimulusMIJA04_2IFCnew_2019_Jun_17_1309_803,stimulusMIJA04_2IFCnew_2019_Jun_17_1309_804,False,2019_Jun_17_1309,2IFCnew,2,MIJA04,
2IFCnew,27,0,27,0,0.300394100021,1,No,8,-1,Hit,0.433934100001,True,False,stimulusMIJA04_2IFCnew_2019_Jun_17_1309_805,stimulusMIJA04_2IFCnew_2019_Jun_17_1309_806,False,2019_Jun_17_1309,2IFCnew,2,MIJA04,
2IFCnew,28,0,28,0,0.36726649999,2,Yes,8,-1,Correct Rejection,0.567359599983,False,True,stimulusMIJA04_2IFCnew_2019_Jun_17_1309_807,stimulusMIJA04_2IFCnew_2019_Jun_17_1309_808,False,2019_Jun_17_1309,2IFCnew,2,MIJA04,
2IFCnew,29,0,29,0,0.300607000012,2,Yes,8,-1,Correct Rejection,0.534399099997,False,True,stimulusMIJA04_2IFCnew_2019_Jun_17_1309_809,stimulusMIJA04_2IFCnew_2019_Jun_17_1309_810,False,2019_Jun_17_1309,2IFCnew,2,MIJA04,
2IFCnew,30,0,30,0,0.267218199995,2,Yes,8,-1,Correct Rejection,0.468036100006,False,True,stimulusMIJA04_2IFCnew_2019_Jun_17_1309_811,stimulusMIJA04_2IFCnew_2019_Jun_17_1309_812,False,2019_Jun_17_1309,2IFCnew,2,MIJA04,
2IFCnew,31,0,31,0,0.36731479998,5,Yes,8,-1,False Alarm,0.599546699988,False,True,stimulusMIJA04_2IFCnew_2019_Jun_17_1309_813,stimulusMIJA04_2IFCnew_2019_Jun_17_1309_814,False,2019_Jun_17_1309,2IFCnew,2,MIJA04,
2IFCnew,32,0,32,0,0.566488199984,1,No,8,-1,Hit,0.567486699991,True,False,stimulusMIJA04_2IFCnew_2019_Jun_17_1309_815,stimulusMIJA04_2IFCnew_2019_Jun_17_1309_816,False,2019_Jun_17_1309,2IFCnew,2,MIJA04,
2IFCnew,33,0,33,0,0.500586300011,4,Yes,8,-1,Miss,0.533975999977,True,False,stimulusMIJA04_2IFCnew_2019_Jun_17_1309_817,stimulusMIJA04_2IFCnew_2019_Jun_17_1309_818,False,2019_Jun_17_1309,2IFCnew,2,MIJA04,
2IFCnew,34,0,34,0,-1,2,Yes,8,-1,False Alarm,0.901003000006,False,True,stimulusMIJA04_2IFCnew_2019_Jun_17_1309_819,stimulusMIJA04_2IFCnew_2019_Jun_17_1309_820,False,2019_Jun_17_1309,2IFCnew,2,MIJA04,
2IFCnew,35,0,35,0,0.634044599981,5,Yes,8,-1,False Alarm,0.734378699999,False,True,stimulusMIJA04_2IFCnew_2019_Jun_17_1309_821,stimulusMIJA04_2IFCnew_2019_Jun_17_1309_822,False,2019_Jun_17_1309,2IFCnew,2,MIJA04,
2IFCnew,36,0,36,0,0.433155800012,2,Yes,8,-1,Correct Rejection,0.50035040002,False,True,stimulusMIJA04_2IFCnew_2019_Jun_17_1309_823,stimulusMIJA04_2IFCnew_2019_Jun_17_1309_824,False,2019_Jun_17_1309,2IFCnew,2,MIJA04,
2IFCnew,37,0,37,0,0.269855999999,2,Yes,8,-1,Correct Rejection,0.46916410001,False,True,stimulusMIJA04_2IFCnew_2019_Jun_17_1309_825,stimulusMIJA04_2IFCnew_2019_Jun_17_1309_826,False,2019_Jun_17_1309,2IFCnew,2,MIJA04,
2IFCnew,38,0,38,0,0.299759999994,1,No,8,-1,Hit,0.468968700006,True,False,stimulusMIJA04_2IFCnew_2019_Jun_17_1309_827,stimulusMIJA04_2IFCnew_2019_Jun_17_1309_828,False,2019_Jun_17_1309,2IFCnew,2,MIJA04,
2IFCnew,39,0,39,0,0.300423200009,2,Yes,8,-1,Correct Rejection,0.533048300014,False,True,stimulusMIJA04_2IFCnew_2019_Jun_17_1309_829,stimulusMIJA04_2IFCnew_2019_Jun_17_1309_830,False,2019_Jun_17_1309,2IFCnew,2,MIJA04,
2IFCnew,40,0,40,0,0.267052799987,1,No,8,-1,Hit,0.600830899988,True,False,stimulusMIJA04_2IFCnew_2019_Jun_17_1309_831,stimulusMIJA04_2IFCnew_2019_Jun_17_1309_832,False,2019_Jun_17_1309,2IFCnew,2,MIJA04,
2IFCnew,41,0,41,0,0.200231299998,1,No,8,-1,Hit,0.535203799984,True,False,stimulusMIJA04_2IFCnew_2019_Jun_17_1309_833,stimulusMIJA04_2IFCnew_2019_Jun_17_1309_834,False,2019_Jun_17_1309,2IFCnew,2,MIJA04,
2IFCnew,42,0,42,0,0.233695399977,2,Yes,8,-1,Correct Rejection,0.43400780001,False,True,stimulusMIJA04_2IFCnew_2019_Jun_17_1309_835,stimulusMIJA04_2IFCnew_2019_Jun_17_1309_836,False,2019_Jun_17_1309,2IFCnew,2,MIJA04,
2IFCnew,43,0,43,0,0.299311300012,1,No,8,-1,Hit,0.469182700006,True,False,stimulusMIJA04_2IFCnew_2019_Jun_17_1309_837,stimulusMIJA04_2IFCnew_2019_Jun_17_1309_838,False,2019_Jun_17_1309,2IFCnew,2,MIJA04,
2IFCnew,44,0,44,0,0.200352000014,1,No,8,-1,Hit,0.500775799999,True,False,stimulusMIJA04_2IFCnew_2019_Jun_17_1309_839,stimulusMIJA04_2IFCnew_2019_Jun_17_1309_840,False,2019_Jun_17_1309,2IFCnew,2,MIJA04,
2IFCnew,45,0,45,0,0.266963099974,2,Yes,8,-1,Correct Rejection,0.467172300006,False,True,stimulusMIJA04_2IFCnew_2019_Jun_17_1309_841,stimulusMIJA04_2IFCnew_2019_Jun_17_1309_842,False,2019_Jun_17_1309,2IFCnew,2,MIJA04,
2IFCnew,46,0,46,0,0.266733800003,1,No,8,-1,Hit,0.468286999996,True,False,stimulusMIJA04_2IFCnew_2019_Jun_17_1309_843,stimulusMIJA04_2IFCnew_2019_Jun_17_1309_844,False,2019_Jun_17_1309,2IFCnew,2,MIJA04,
2IFCnew,47,0,47,0,0.233750400017,2,Yes,8,-1,Correct Rejection,0.46689750001,False,True,stimulusMIJA04_2IFCnew_2019_Jun_17_1309_845,stimulusMIJA04_2IFCnew_2019_Jun_17_1309_846,False,2019_Jun_17_1309,2IFCnew,2,MIJA04,
2IFCnew,48,0,48,0,0.167109700007,1,No,8,-1,Hit,0.467550100002,True,False,stimulusMIJA04_2IFCnew_2019_Jun_17_1309_847,stimulusMIJA04_2IFCnew_2019_Jun_17_1309_848,False,2019_Jun_17_1309,2IFCnew,2,MIJA04,
2IFCnew,49,0,49,0,0.167475399998,2,Yes,8,-1,Correct Rejection,0.46650759998,False,True,stimulusMIJA04_2IFCnew_2019_Jun_17_1309_849,stimulusMIJA04_2IFCnew_2019_Jun_17_1309_850,False,2019_Jun_17_1309,2IFCnew,2,MIJA04,
2IFCnew,50,0,50,0,0.234813699994,1,No,8,-1,Hit,0.566853900003,True,False,stimulusMIJA04_2IFCnew_2019_Jun_17_1309_851,stimulusMIJA04_2IFCnew_2019_Jun_17_1309_852,False,2019_Jun_17_1309,2IFCnew,2,MIJA04,
2IFCnew,51,0,51,0,0.166794899997,1,No,8,-1,Hit,0.468989399989,True,False,stimulusMIJA04_2IFCnew_2019_Jun_17_1309_853,stimulusMIJA04_2IFCnew_2019_Jun_17_1309_854,False,2019_Jun_17_1309,2IFCnew,2,MIJA04,
2IFCnew,52,0,52,0,0.23417890002,1,No,8,-1,Hit,0.501147699979,True,False,stimulusMIJA04_2IFCnew_2019_Jun_17_1309_855,stimulusMIJA04_2IFCnew_2019_Jun_17_1309_856,False,2019_Jun_17_1309,2IFCnew,2,MIJA04,
2IFCnew,53,0,53,0,0.300405999995,5,Yes,8,-1,False Alarm,0.400733200018,False,True,stimulusMIJA04_2IFCnew_2019_Jun_17_1309_857,stimulusMIJA04_2IFCnew_2019_Jun_17_1309_858,False,2019_Jun_17_1309,2IFCnew,2,MIJA04,
2IFCnew,54,0,54,0,0.266886600002,2,Yes,8,-1,Correct Rejection,0.467218199978,False,True,stimulusMIJA04_2IFCnew_2019_Jun_17_1309_859,stimulusMIJA04_2IFCnew_2019_Jun_17_1309_860,False,2019_Jun_17_1309,2IFCnew,2,MIJA04,
2IFCnew,55,0,55,0,0.300616199995,2,Yes,8,-1,Correct Rejection,0.667318499996,False,True,stimulusMIJA04_2IFCnew_2019_Jun_17_1309_861,stimulusMIJA04_2IFCnew_2019_Jun_17_1309_862,False,2019_Jun_17_1309,2IFCnew,2,MIJA04,
2IFCnew,56,0,56,0,0.167003299983,1,No,8,-1,Hit,0.467157700012,True,False,stimulusMIJA04_2IFCnew_2019_Jun_17_1309_863,stimulusMIJA04_2IFCnew_2019_Jun_17_1309_864,False,2019_Jun_17_1309,2IFCnew,2,MIJA04,
2IFCnew,57,0,57,0,0.168772900011,1,No,8,-1,Hit,0.566577999998,True,False,stimulusMIJA04_2IFCnew_2019_Jun_17_1309_865,stimulusMIJA04_2IFCnew_2019_Jun_17_1309_866,False,2019_Jun_17_1309,2IFCnew,2,MIJA04,
2IFCnew,58,0,58,0,0.234169500007,2,Yes,8,-1,Correct Rejection,0.633317500004,False,True,stimulusMIJA04_2IFCnew_2019_Jun_17_1309_867,stimulusMIJA04_2IFCnew_2019_Jun_17_1309_868,False,2019_Jun_17_1309,2IFCnew,2,MIJA04,
2IFCnew,59,0,59,0,0.166948700004,1,No,8,-1,Hit,0.500046500005,True,False,stimulusMIJA04_2IFCnew_2019_Jun_17_1309_869,stimulusMIJA04_2IFCnew_2019_Jun_17_1309_870,False,2019_Jun_17_1309,2IFCnew,2,MIJA04,
2IFCnew,60,0,60,0,0.233878200001,2,Yes,8,-1,Correct Rejection,0.499673999992,False,True,stimulusMIJA04_2IFCnew_2019_Jun_17_1309_871,stimulusMIJA04_2IFCnew_2019_Jun_17_1309_872,False,2019_Jun_17_1309,2IFCnew,2,MIJA04,
2IFCnew,61,0,61,0,0.166977399989,1,No,8,-1,Hit,0.433659500006,True,False,stimulusMIJA04_2IFCnew_2019_Jun_17_1309_873,stimulusMIJA04_2IFCnew_2019_Jun_17_1309_874,False,2019_Jun_17_1309,2IFCnew,2,MIJA04,
2IFCnew,62,0,62,0,0.267036900012,2,Yes,8,-1,Correct Rejection,0.599549100007,False,True,stimulusMIJA04_2IFCnew_2019_Jun_17_1309_875,stimulusMIJA04_2IFCnew_2019_Jun_17_1309_876,False,2019_Jun_17_1309,2IFCnew,2,MIJA04,
2IFCnew,63,0,63,0,0.267166599981,2,Yes,8,-1,Correct Rejection,0.534029599978,False,True,stimulusMIJA04_2IFCnew_2019_Jun_17_1309_877,stimulusMIJA04_2IFCnew_2019_Jun_17_1309_878,False,2019_Jun_17_1309,2IFCnew,2,MIJA04,
2IFCnew,64,0,64,0,0.200578799995,1,No,8,-1,Hit,0.534126699989,True,False,stimulusMIJA04_2IFCnew_2019_Jun_17_1309_879,stimulusMIJA04_2IFCnew_2019_Jun_17_1309_880,False,2019_Jun_17_1309,2IFCnew,2,MIJA04,
2IFCnew,65,0,65,0,0.199281799985,1,No,8,-1,Hit,0.500894700002,True,False,stimulusMIJA04_2IFCnew_2019_Jun_17_1309_881,stimulusMIJA04_2IFCnew_2019_Jun_17_1309_882,False,2019_Jun_17_1309,2IFCnew,2,MIJA04,
2IFCnew,66,0,66,0,0.334416500002,1,No,8,-1,Hit,0.433847800014,True,False,stimulusMIJA04_2IFCnew_2019_Jun_17_1309_883,stimulusMIJA04_2IFCnew_2019_Jun_17_1309_884,False,2019_Jun_17_1309,2IFCnew,2,MIJA04,
2IFCnew,67,0,67,0,0.2335876,1,No,8,-1,Hit,0.433902300021,True,False,stimulusMIJA04_2IFCnew_2019_Jun_17_1309_885,stimulusMIJA04_2IFCnew_2019_Jun_17_1309_886,False,2019_Jun_17_1309,2IFCnew,2,MIJA04,
2IFCnew,68,0,68,0,0.367105299985,5,Yes,8,-1,False Alarm,0.367423299991,False,True,stimulusMIJA04_2IFCnew_2019_Jun_17_1309_887,stimulusMIJA04_2IFCnew_2019_Jun_17_1309_888,False,2019_Jun_17_1309,2IFCnew,2,MIJA04,
2IFCnew,69,0,69,0,0.167705500004,2,Yes,8,-1,Correct Rejection,0.333781499998,False,True,stimulusMIJA04_2IFCnew_2019_Jun_17_1309_889,stimulusMIJA04_2IFCnew_2019_Jun_17_1309_890,False,2019_Jun_17_1309,2IFCnew,2,MIJA04,
2IFCnew,70,0,70,0,0.43368039999,5,Yes,8,-1,False Alarm,0.500650799979,False,True,stimulusMIJA04_2IFCnew_2019_Jun_17_1309_891,stimulusMIJA04_2IFCnew_2019_Jun_17_1309_892,False,2019_Jun_17_1309,2IFCnew,2,MIJA04,
2IFCnew,71,0,71,0,0.200149900018,2,Yes,8,-1,Correct Rejection,0.400592799997,False,True,stimulusMIJA04_2IFCnew_2019_Jun_17_1309_893,stimulusMIJA04_2IFCnew_2019_Jun_17_1309_894,False,2019_Jun_17_1309,2IFCnew,2,MIJA04,
2IFCnew,72,0,72,0,0.533215899981,5,Yes,8,-1,False Alarm,0.566514000006,False,True,stimulusMIJA04_2IFCnew_2019_Jun_17_1309_895,stimulusMIJA04_2IFCnew_2019_Jun_17_1309_896,False,2019_Jun_17_1309,2IFCnew,2,MIJA04,
2IFCnew,73,0,73,0,0.133302600007,1,No,8,-1,Hit,0.49954389999,True,False,stimulusMIJA04_2IFCnew_2019_Jun_17_1309_897,stimulusMIJA04_2IFCnew_2019_Jun_17_1309_898,False,2019_Jun_17_1309,2IFCnew,2,MIJA04,
2IFCnew,74,0,74,0,0.200510499999,2,Yes,8,-1,Correct Rejection,0.467495199991,False,True,stimulusMIJA04_2IFCnew_2019_Jun_17_1309_899,stimulusMIJA04_2IFCnew_2019_Jun_17_1309_900,False,2019_Jun_17_1309,2IFCnew,2,MIJA04,
2IFCnew,0,0,0,0,0.467517799989,2,Yes,6.6,-1,Correct Rejection,0.5011543,False,True,stimulusMIJA04_2IFCnew_2019_Jun_17_1309_901,stimulusMIJA04_2IFCnew_2019_Jun_17_1309_902,False,2019_Jun_17_1309,2IFCnew,2,MIJA04,
2IFCnew,1,0,1,0,0.468819600006,2,Yes,6.6,-1,Correct Rejection,0.533930000005,False,True,stimulusMIJA04_2IFCnew_2019_Jun_17_1309_903,stimulusMIJA04_2IFCnew_2019_Jun_17_1309_904,False,2019_Jun_17_1309,2IFCnew,2,MIJA04,
2IFCnew,2,0,2,0,0.267192500003,2,Yes,6.6,-1,Correct Rejection,0.467751700024,False,True,stimulusMIJA04_2IFCnew_2019_Jun_17_1309_905,stimulusMIJA04_2IFCnew_2019_Jun_17_1309_906,False,2019_Jun_17_1309,2IFCnew,2,MIJA04,
2IFCnew,3,0,3,0,0.134167400014,1,No,6.6,-1,Hit,0.467864599981,True,False,stimulusMIJA04_2IFCnew_2019_Jun_17_1309_907,stimulusMIJA04_2IFCnew_2019_Jun_17_1309_908,False,2019_Jun_17_1309,2IFCnew,2,MIJA04,
2IFCnew,4,0,4,0,0.200531299983,1,No,6.6,-1,Hit,0.434334499994,True,False,stimulusMIJA04_2IFCnew_2019_Jun_17_1309_909,stimulusMIJA04_2IFCnew_2019_Jun_17_1309_910,False,2019_Jun_17_1309,2IFCnew,2,MIJA04,
2IFCnew,5,0,5,0,0.167425599997,2,Yes,6.6,-1,Correct Rejection,0.466987199994,False,True,stimulusMIJA04_2IFCnew_2019_Jun_17_1309_911,stimulusMIJA04_2IFCnew_2019_Jun_17_1309_912,False,2019_Jun_17_1309,2IFCnew,2,MIJA04,
2IFCnew,6,0,6,0,0.100417699985,1,No,6.6,-1,Hit,0.434021000023,True,False,stimulusMIJA04_2IFCnew_2019_Jun_17_1309_913,stimulusMIJA04_2IFCnew_2019_Jun_17_1309_914,False,2019_Jun_17_1309,2IFCnew,2,MIJA04,
2IFCnew,7,0,7,0,0.166924699995,6,No,6.6,-1,Miss,0.400539199996,True,False,stimulusMIJA04_2IFCnew_2019_Jun_17_1309_915,stimulusMIJA04_2IFCnew_2019_Jun_17_1309_916,False,2019_Jun_17_1309,2IFCnew,2,MIJA04,
2IFCnew,8,0,8,0,0.166952500003,1,No,6.6,-1,Hit,0.467210000003,True,False,stimulusMIJA04_2IFCnew_2019_Jun_17_1309_917,stimulusMIJA04_2IFCnew_2019_Jun_17_1309_918,False,2019_Jun_17_1309,2IFCnew,2,MIJA04,
2IFCnew,9,0,9,0,0.200789099996,1,No,6.6,-1,Hit,0.502024999994,True,False,stimulusMIJA04_2IFCnew_2019_Jun_17_1309_919,stimulusMIJA04_2IFCnew_2019_Jun_17_1309_920,False,2019_Jun_17_1309,2IFCnew,2,MIJA04,
2IFCnew,10,0,10,0,0.534147999977,1,No,6.6,-1,Hit,0.634362700017,True,False,stimulusMIJA04_2IFCnew_2019_Jun_17_1309_921,stimulusMIJA04_2IFCnew_2019_Jun_17_1309_922,False,2019_Jun_17_1309,2IFCnew,2,MIJA04,
2IFCnew,11,0,11,0,0.200715499988,3,No,6.6,-1,False Alarm,0.533925099997,False,True,stimulusMIJA04_2IFCnew_2019_Jun_17_1309_923,stimulusMIJA04_2IFCnew_2019_Jun_17_1309_924,False,2019_Jun_17_1309,2IFCnew,2,MIJA04,
2IFCnew,12,0,12,0,0.266927599994,1,No,6.6,-1,Hit,0.634451899998,True,False,stimulusMIJA04_2IFCnew_2019_Jun_17_1309_925,stimulusMIJA04_2IFCnew_2019_Jun_17_1309_926,False,2019_Jun_17_1309,2IFCnew,2,MIJA04,
2IFCnew,13,0,13,0,0.23409730001,2,Yes,6.6,-1,Correct Rejection,0.500372300012,False,True,stimulusMIJA04_2IFCnew_2019_Jun_17_1309_927,stimulusMIJA04_2IFCnew_2019_Jun_17_1309_928,False,2019_Jun_17_1309,2IFCnew,2,MIJA04,
2IFCnew,14,0,14,0,0.500528100005,5,Yes,6.6,-1,False Alarm,0.467367400008,False,True,stimulusMIJA04_2IFCnew_2019_Jun_17_1309_929,stimulusMIJA04_2IFCnew_2019_Jun_17_1309_930,False,2019_Jun_17_1309,2IFCnew,2,MIJA04,
2IFCnew,15,0,15,0,0.300289800012,2,Yes,6.6,-1,Correct Rejection,0.400513000001,False,True,stimulusMIJA04_2IFCnew_2019_Jun_17_1309_931,stimulusMIJA04_2IFCnew_2019_Jun_17_1309_932,False,2019_Jun_17_1309,2IFCnew,2,MIJA04,
2IFCnew,16,0,16,0,0.1979231,1,No,6.6,-1,Hit,0.500415000017,True,False,stimulusMIJA04_2IFCnew_2019_Jun_17_1309_933,stimulusMIJA04_2IFCnew_2019_Jun_17_1309_934,False,2019_Jun_17_1309,2IFCnew,2,MIJA04,
2IFCnew,17,0,17,0,0.3007354,1,No,6.6,-1,Hit,0.567199200013,True,False,stimulusMIJA04_2IFCnew_2019_Jun_17_1309_935,stimulusMIJA04_2IFCnew_2019_Jun_17_1309_936,False,2019_Jun_17_1309,2IFCnew,2,MIJA04,
2IFCnew,18,0,18,0,0.300168099988,2,Yes,6.6,-1,Correct Rejection,0.567303499993,False,True,stimulusMIJA04_2IFCnew_2019_Jun_17_1309_937,stimulusMIJA04_2IFCnew_2019_Jun_17_1309_938,False,2019_Jun_17_1309,2IFCnew,2,MIJA04,
2IFCnew,19,0,19,0,0.40039570001,8,No,6.6,-1,Correct Rejection,0.600779400003,False,True,stimulusMIJA04_2IFCnew_2019_Jun_17_1309_939,stimulusMIJA04_2IFCnew_2019_Jun_17_1309_940,False,2019_Jun_17_1309,2IFCnew,2,MIJA04,
2IFCnew,20,0,20,0,0.500432600005,1,No,6.6,-1,Hit,0.500580899999,True,False,stimulusMIJA04_2IFCnew_2019_Jun_17_1309_941,stimulusMIJA04_2IFCnew_2019_Jun_17_1309_942,False,2019_Jun_17_1309,2IFCnew,2,MIJA04,
2IFCnew,21,0,21,0,0.2002928,2,Yes,6.6,-1,Correct Rejection,0.466974699986,False,True,stimulusMIJA04_2IFCnew_2019_Jun_17_1309_943,stimulusMIJA04_2IFCnew_2019_Jun_17_1309_944,False,2019_Jun_17_1309,2IFCnew,2,MIJA04,
2IFCnew,22,0,22,0,0.166607799998,1,No,6.6,-1,Hit,0.435425000003,True,False,stimulusMIJA04_2IFCnew_2019_Jun_17_1309_945,stimulusMIJA04_2IFCnew_2019_Jun_17_1309_946,False,2019_Jun_17_1309,2IFCnew,2,MIJA04,
2IFCnew,23,0,23,0,0.167407100002,1,No,6.6,-1,Hit,0.50145109999,True,False,stimulusMIJA04_2IFCnew_2019_Jun_17_1309_947,stimulusMIJA04_2IFCnew_2019_Jun_17_1309_948,False,2019_Jun_17_1309,2IFCnew,2,MIJA04,
2IFCnew,24,0,24,0,0.167299499997,3,No,6.6,-1,False Alarm,0.601476100011,False,True,stimulusMIJA04_2IFCnew_2019_Jun_17_1309_949,stimulusMIJA04_2IFCnew_2019_Jun_17_1309_950,False,2019_Jun_17_1309,2IFCnew,2,MIJA04,
2IFCnew,25,0,25,0,0.333913899987,5,Yes,6.6,-1,False Alarm,0.566596599994,False,True,stimulusMIJA04_2IFCnew_2019_Jun_17_1309_951,stimulusMIJA04_2IFCnew_2019_Jun_17_1309_952,False,2019_Jun_17_1309,2IFCnew,2,MIJA04,
2IFCnew,26,0,26,0,0.566768799996,6,No,6.6,-1,Miss,0.533638599998,True,False,stimulusMIJA04_2IFCnew_2019_Jun_17_1309_953,stimulusMIJA04_2IFCnew_2019_Jun_17_1309_954,False,2019_Jun_17_1309,2IFCnew,2,MIJA04,
2IFCnew,27,0,27,0,0.233212699997,1,No,6.6,-1,Hit,0.532785899995,True,False,stimulusMIJA04_2IFCnew_2019_Jun_17_1309_955,stimulusMIJA04_2IFCnew_2019_Jun_17_1309_956,False,2019_Jun_17_1309,2IFCnew,2,MIJA04,
