Task,trials.thisRepN,trials.thisTrialN,trials.thisN,trials.thisIndex,time_response_second,response_2IFCnew,response_key2Interval_2IFCnew,signal_intensity,constant Value,response,time_response,signal_on_stimuluspos1,signal_on_stimuluspos2,stimulus_name_pos1,stimulus_name_pos2,random_intensity,date,expName,session,participant,
2IFCnew,0,0,0,0,0.400488700019,1,No,6.6,-1,Hit,0.567384800001,True,False,stimulusMIJA04_2IFCnew_2019_Jun_18_1440_1,stimulusMIJA04_2IFCnew_2019_Jun_18_1440_2,True,2019_Jun_18_1440,2IFCnew,3,MIJA04,
2IFCnew,1,0,1,0,0.400953199947,2,Yes,11.5,-1,Correct Rejection,0.733813199971,False,True,stimulusMIJA04_2IFCnew_2019_Jun_18_1440_3,stimulusMIJA04_2IFCnew_2019_Jun_18_1440_4,True,2019_Jun_18_1440,2IFCnew,3,MIJA04,
2IFCnew,2,0,2,0,0.229570000025,1,No,1.7,-1,Hit,0.500888199953,True,False,stimulusMIJA04_2IFCnew_2019_Jun_18_1440_5,stimulusMIJA04_2IFCnew_2019_Jun_18_1440_6,True,2019_Jun_18_1440,2IFCnew,3,MIJA04,
2IFCnew,3,0,3,0,0.500080299971,1,No,8,-1,Hit,0.565861199982,True,False,stimulusMIJA04_2IFCnew_2019_Jun_18_1440_7,stimulusMIJA04_2IFCnew_2019_Jun_18_1440_8,True,2019_Jun_18_1440,2IFCnew,3,MIJA04,
2IFCnew,4,0,4,0,0.300797999953,1,No,8,-1,Hit,0.434356799989,True,False,stimulusMIJA04_2IFCnew_2019_Jun_18_1440_9,stimulusMIJA04_2IFCnew_2019_Jun_18_1440_10,True,2019_Jun_18_1440,2IFCnew,3,MIJA04,
2IFCnew,5,0,5,0,0.301908500027,2,Yes,8,-1,Correct Rejection,0.500271699973,False,True,stimulusMIJA04_2IFCnew_2019_Jun_18_1440_11,stimulusMIJA04_2IFCnew_2019_Jun_18_1440_12,True,2019_Jun_18_1440,2IFCnew,3,MIJA04,
2IFCnew,6,0,6,0,0.233800999995,1,No,4.9,-1,Hit,0.434017200023,True,False,stimulusMIJA04_2IFCnew_2019_Jun_18_1440_13,stimulusMIJA04_2IFCnew_2019_Jun_18_1440_14,True,2019_Jun_18_1440,2IFCnew,3,MIJA04,
2IFCnew,7,0,7,0,0.533742300002,1,No,1,-1,Hit,0.567739500024,True,False,stimulusMIJA04_2IFCnew_2019_Jun_18_1440_15,stimulusMIJA04_2IFCnew_2019_Jun_18_1440_16,True,2019_Jun_18_1440,2IFCnew,3,MIJA04,
2IFCnew,8,0,8,0,0.533870200044,1,No,1,-1,Hit,0.467084600008,True,False,stimulusMIJA04_2IFCnew_2019_Jun_18_1440_17,stimulusMIJA04_2IFCnew_2019_Jun_18_1440_18,True,2019_Jun_18_1440,2IFCnew,3,MIJA04,
2IFCnew,9,0,9,0,0.467667500023,3,No,1.7,-1,False Alarm,0.467891799984,False,True,stimulusMIJA04_2IFCnew_2019_Jun_18_1440_19,stimulusMIJA04_2IFCnew_2019_Jun_18_1440_20,True,2019_Jun_18_1440,2IFCnew,3,MIJA04,
2IFCnew,10,0,10,0,0.567871699983,3,No,6.6,-1,False Alarm,0.567992700031,False,True,stimulusMIJA04_2IFCnew_2019_Jun_18_1440_21,stimulusMIJA04_2IFCnew_2019_Jun_18_1440_22,True,2019_Jun_18_1440,2IFCnew,3,MIJA04,
2IFCnew,11,0,11,0,0.332919900015,2,Yes,4.9,-1,Correct Rejection,0.534214299987,False,True,stimulusMIJA04_2IFCnew_2019_Jun_18_1440_23,stimulusMIJA04_2IFCnew_2019_Jun_18_1440_24,True,2019_Jun_18_1440,2IFCnew,3,MIJA04,
2IFCnew,12,0,12,0,0.334222200036,2,Yes,6.6,-1,Correct Rejection,0.467158400046,False,True,stimulusMIJA04_2IFCnew_2019_Jun_18_1440_25,stimulusMIJA04_2IFCnew_2019_Jun_18_1440_26,True,2019_Jun_18_1440,2IFCnew,3,MIJA04,
2IFCnew,13,0,13,0,0.200486699992,1,No,8,-1,Hit,0.467199700011,True,False,stimulusMIJA04_2IFCnew_2019_Jun_18_1440_27,stimulusMIJA04_2IFCnew_2019_Jun_18_1440_28,True,2019_Jun_18_1440,2IFCnew,3,MIJA04,
2IFCnew,14,0,14,0,0.367419900023,1,No,1.7,-1,Hit,0.667517499998,True,False,stimulusMIJA04_2IFCnew_2019_Jun_18_1440_29,stimulusMIJA04_2IFCnew_2019_Jun_18_1440_30,True,2019_Jun_18_1440,2IFCnew,3,MIJA04,
2IFCnew,15,0,15,0,0.301393600006,2,Yes,8,-1,Correct Rejection,0.466322199965,False,True,stimulusMIJA04_2IFCnew_2019_Jun_18_1440_31,stimulusMIJA04_2IFCnew_2019_Jun_18_1440_32,True,2019_Jun_18_1440,2IFCnew,3,MIJA04,
2IFCnew,16,0,16,0,0.334081699955,2,Yes,11.5,-1,Correct Rejection,0.466401799989,False,True,stimulusMIJA04_2IFCnew_2019_Jun_18_1440_33,stimulusMIJA04_2IFCnew_2019_Jun_18_1440_34,True,2019_Jun_18_1440,2IFCnew,3,MIJA04,
2IFCnew,17,0,17,0,0.267142999975,1,No,9.6,-1,Hit,0.466698199976,True,False,stimulusMIJA04_2IFCnew_2019_Jun_18_1440_35,stimulusMIJA04_2IFCnew_2019_Jun_18_1440_36,True,2019_Jun_18_1440,2IFCnew,3,MIJA04,
2IFCnew,18,0,18,0,0.234947499994,4,Yes,1.7,-1,Miss,0.432939300023,True,False,stimulusMIJA04_2IFCnew_2019_Jun_18_1440_37,stimulusMIJA04_2IFCnew_2019_Jun_18_1440_38,True,2019_Jun_18_1440,2IFCnew,3,MIJA04,
2IFCnew,19,0,19,0,0.200367600017,1,No,6.6,-1,Hit,0.401152300008,True,False,stimulusMIJA04_2IFCnew_2019_Jun_18_1440_39,stimulusMIJA04_2IFCnew_2019_Jun_18_1440_40,True,2019_Jun_18_1440,2IFCnew,3,MIJA04,
2IFCnew,20,0,20,0,0.266786100052,1,No,6.6,-1,Hit,0.467561799975,True,False,stimulusMIJA04_2IFCnew_2019_Jun_18_1440_41,stimulusMIJA04_2IFCnew_2019_Jun_18_1440_42,True,2019_Jun_18_1440,2IFCnew,3,MIJA04,
2IFCnew,21,0,21,0,0.300485999964,2,Yes,9.6,-1,Correct Rejection,0.5005045,False,True,stimulusMIJA04_2IFCnew_2019_Jun_18_1440_43,stimulusMIJA04_2IFCnew_2019_Jun_18_1440_44,True,2019_Jun_18_1440,2IFCnew,3,MIJA04,
2IFCnew,22,0,22,0,0.36711240001,2,Yes,9.6,-1,Correct Rejection,0.500149400032,False,True,stimulusMIJA04_2IFCnew_2019_Jun_18_1440_45,stimulusMIJA04_2IFCnew_2019_Jun_18_1440_46,True,2019_Jun_18_1440,2IFCnew,3,MIJA04,
2IFCnew,23,0,23,0,0.301223499991,2,Yes,1,-1,Correct Rejection,0.467274499999,False,True,stimulusMIJA04_2IFCnew_2019_Jun_18_1440_47,stimulusMIJA04_2IFCnew_2019_Jun_18_1440_48,True,2019_Jun_18_1440,2IFCnew,3,MIJA04,
2IFCnew,24,0,24,0,0.40051409998,2,Yes,11.5,-1,Correct Rejection,0.499740200001,False,True,stimulusMIJA04_2IFCnew_2019_Jun_18_1440_49,stimulusMIJA04_2IFCnew_2019_Jun_18_1440_50,True,2019_Jun_18_1440,2IFCnew,3,MIJA04,
2IFCnew,25,0,25,0,0.4351073,2,Yes,1.7,-1,Correct Rejection,0.500693199981,False,True,stimulusMIJA04_2IFCnew_2019_Jun_18_1440_51,stimulusMIJA04_2IFCnew_2019_Jun_18_1440_52,True,2019_Jun_18_1440,2IFCnew,3,MIJA04,
2IFCnew,26,0,26,0,0.300530400011,1,No,9.6,-1,Hit,0.433954600012,True,False,stimulusMIJA04_2IFCnew_2019_Jun_18_1440_53,stimulusMIJA04_2IFCnew_2019_Jun_18_1440_54,True,2019_Jun_18_1440,2IFCnew,3,MIJA04,
2IFCnew,27,0,27,0,0.366412500036,1,No,3.3,-1,Hit,0.601013799955,True,False,stimulusMIJA04_2IFCnew_2019_Jun_18_1440_55,stimulusMIJA04_2IFCnew_2019_Jun_18_1440_56,True,2019_Jun_18_1440,2IFCnew,3,MIJA04,
2IFCnew,28,0,28,0,0.300331100007,2,Yes,11.5,-1,Correct Rejection,0.501785200031,False,True,stimulusMIJA04_2IFCnew_2019_Jun_18_1440_57,stimulusMIJA04_2IFCnew_2019_Jun_18_1440_58,True,2019_Jun_18_1440,2IFCnew,3,MIJA04,
2IFCnew,29,0,29,0,0.400406999979,4,Yes,1.7,-1,Miss,0.501074499974,True,False,stimulusMIJA04_2IFCnew_2019_Jun_18_1440_59,stimulusMIJA04_2IFCnew_2019_Jun_18_1440_60,True,2019_Jun_18_1440,2IFCnew,3,MIJA04,
2IFCnew,30,0,30,0,0.398982700019,5,Yes,1,-1,False Alarm,0.434446300031,False,True,stimulusMIJA04_2IFCnew_2019_Jun_18_1440_61,stimulusMIJA04_2IFCnew_2019_Jun_18_1440_62,True,2019_Jun_18_1440,2IFCnew,3,MIJA04,
2IFCnew,31,0,31,0,0.500848600001,2,Yes,1.7,-1,Correct Rejection,0.600492500002,False,True,stimulusMIJA04_2IFCnew_2019_Jun_18_1440_63,stimulusMIJA04_2IFCnew_2019_Jun_18_1440_64,True,2019_Jun_18_1440,2IFCnew,3,MIJA04,
2IFCnew,32,0,32,0,0.367318000004,1,No,6.6,-1,Hit,0.533662100032,True,False,stimulusMIJA04_2IFCnew_2019_Jun_18_1440_65,stimulusMIJA04_2IFCnew_2019_Jun_18_1440_66,True,2019_Jun_18_1440,2IFCnew,3,MIJA04,
2IFCnew,33,0,33,0,0.30034810002,4,Yes,1,-1,Miss,0.433003599988,True,False,stimulusMIJA04_2IFCnew_2019_Jun_18_1440_67,stimulusMIJA04_2IFCnew_2019_Jun_18_1440_68,True,2019_Jun_18_1440,2IFCnew,3,MIJA04,
2IFCnew,34,0,34,0,0.433725899959,5,Yes,11.5,-1,False Alarm,0.433622400044,False,True,stimulusMIJA04_2IFCnew_2019_Jun_18_1440_69,stimulusMIJA04_2IFCnew_2019_Jun_18_1440_70,True,2019_Jun_18_1440,2IFCnew,3,MIJA04,
2IFCnew,35,0,35,0,0.400426000007,2,Yes,9.6,-1,Correct Rejection,0.667724900006,False,True,stimulusMIJA04_2IFCnew_2019_Jun_18_1440_71,stimulusMIJA04_2IFCnew_2019_Jun_18_1440_72,True,2019_Jun_18_1440,2IFCnew,3,MIJA04,
2IFCnew,36,0,36,0,0.366652099998,2,Yes,3.3,-1,Correct Rejection,0.600432000007,False,True,stimulusMIJA04_2IFCnew_2019_Jun_18_1440_73,stimulusMIJA04_2IFCnew_2019_Jun_18_1440_74,True,2019_Jun_18_1440,2IFCnew,3,MIJA04,
2IFCnew,37,0,37,0,0.367161500035,4,Yes,1.7,-1,Miss,0.531325299991,True,False,stimulusMIJA04_2IFCnew_2019_Jun_18_1440_75,stimulusMIJA04_2IFCnew_2019_Jun_18_1440_76,True,2019_Jun_18_1440,2IFCnew,3,MIJA04,
2IFCnew,38,0,38,0,0.300521600002,1,No,1,-1,Hit,0.400200399978,True,False,stimulusMIJA04_2IFCnew_2019_Jun_18_1440_77,stimulusMIJA04_2IFCnew_2019_Jun_18_1440_78,True,2019_Jun_18_1440,2IFCnew,3,MIJA04,
2IFCnew,39,0,39,0,0.334704100038,2,Yes,4.9,-1,Correct Rejection,0.56813499995,False,True,stimulusMIJA04_2IFCnew_2019_Jun_18_1440_79,stimulusMIJA04_2IFCnew_2019_Jun_18_1440_80,True,2019_Jun_18_1440,2IFCnew,3,MIJA04,
2IFCnew,40,0,40,0,0.200737099978,1,No,9.6,-1,Hit,0.466482099961,True,False,stimulusMIJA04_2IFCnew_2019_Jun_18_1440_81,stimulusMIJA04_2IFCnew_2019_Jun_18_1440_82,True,2019_Jun_18_1440,2IFCnew,3,MIJA04,
2IFCnew,41,0,41,0,0.433971900027,6,No,3.3,-1,Miss,0.534110299952,True,False,stimulusMIJA04_2IFCnew_2019_Jun_18_1440_83,stimulusMIJA04_2IFCnew_2019_Jun_18_1440_84,True,2019_Jun_18_1440,2IFCnew,3,MIJA04,
2IFCnew,42,0,42,0,0.300670399971,1,No,4.9,-1,Hit,0.466995799972,True,False,stimulusMIJA04_2IFCnew_2019_Jun_18_1440_85,stimulusMIJA04_2IFCnew_2019_Jun_18_1440_86,True,2019_Jun_18_1440,2IFCnew,3,MIJA04,
2IFCnew,43,0,43,0,0.301016399986,2,Yes,11.5,-1,Correct Rejection,0.500025899964,False,True,stimulusMIJA04_2IFCnew_2019_Jun_18_1440_87,stimulusMIJA04_2IFCnew_2019_Jun_18_1440_88,True,2019_Jun_18_1440,2IFCnew,3,MIJA04,
2IFCnew,44,0,44,0,0.534041100007,6,No,1,-1,Miss,0.501290900051,True,False,stimulusMIJA04_2IFCnew_2019_Jun_18_1440_89,stimulusMIJA04_2IFCnew_2019_Jun_18_1440_90,True,2019_Jun_18_1440,2IFCnew,3,MIJA04,
2IFCnew,45,0,45,0,0.433902699966,6,No,3.3,-1,Miss,0.467386499979,True,False,stimulusMIJA04_2IFCnew_2019_Jun_18_1440_91,stimulusMIJA04_2IFCnew_2019_Jun_18_1440_92,True,2019_Jun_18_1440,2IFCnew,3,MIJA04,
2IFCnew,46,0,46,0,0.433463299996,8,No,1.7,-1,Correct Rejection,0.497976700019,False,True,stimulusMIJA04_2IFCnew_2019_Jun_18_1440_93,stimulusMIJA04_2IFCnew_2019_Jun_18_1440_94,True,2019_Jun_18_1440,2IFCnew,3,MIJA04,
2IFCnew,47,0,47,0,0.667790099978,5,Yes,9.6,-1,False Alarm,0.634104299999,False,True,stimulusMIJA04_2IFCnew_2019_Jun_18_1440_95,stimulusMIJA04_2IFCnew_2019_Jun_18_1440_96,True,2019_Jun_18_1440,2IFCnew,3,MIJA04,
2IFCnew,48,0,48,0,0.400941000029,2,Yes,3.3,-1,Correct Rejection,0.534479099966,False,True,stimulusMIJA04_2IFCnew_2019_Jun_18_1440_97,stimulusMIJA04_2IFCnew_2019_Jun_18_1440_98,True,2019_Jun_18_1440,2IFCnew,3,MIJA04,
2IFCnew,49,0,49,0,0.366263999953,2,Yes,9.6,-1,Correct Rejection,0.567141600011,False,True,stimulusMIJA04_2IFCnew_2019_Jun_18_1440_99,stimulusMIJA04_2IFCnew_2019_Jun_18_1440_100,True,2019_Jun_18_1440,2IFCnew,3,MIJA04,
2IFCnew,50,0,50,0,0.367026599997,4,Yes,1.7,-1,Miss,0.634224199981,True,False,stimulusMIJA04_2IFCnew_2019_Jun_18_1440_101,stimulusMIJA04_2IFCnew_2019_Jun_18_1440_102,True,2019_Jun_18_1440,2IFCnew,3,MIJA04,
2IFCnew,51,0,51,0,0.300362599955,2,Yes,11.5,-1,Correct Rejection,0.566996300011,False,True,stimulusMIJA04_2IFCnew_2019_Jun_18_1440_103,stimulusMIJA04_2IFCnew_2019_Jun_18_1440_104,True,2019_Jun_18_1440,2IFCnew,3,MIJA04,
2IFCnew,52,0,52,0,0.300379000022,2,Yes,11.5,-1,Correct Rejection,0.435097500042,False,True,stimulusMIJA04_2IFCnew_2019_Jun_18_1440_105,stimulusMIJA04_2IFCnew_2019_Jun_18_1440_106,True,2019_Jun_18_1440,2IFCnew,3,MIJA04,
2IFCnew,53,0,53,0,0.232526100008,1,No,9.6,-1,Hit,0.46648839995,True,False,stimulusMIJA04_2IFCnew_2019_Jun_18_1440_107,stimulusMIJA04_2IFCnew_2019_Jun_18_1440_108,True,2019_Jun_18_1440,2IFCnew,3,MIJA04,
2IFCnew,54,0,54,0,0.233872100012,4,Yes,1.7,-1,Miss,0.400696499972,True,False,stimulusMIJA04_2IFCnew_2019_Jun_18_1440_109,stimulusMIJA04_2IFCnew_2019_Jun_18_1440_110,True,2019_Jun_18_1440,2IFCnew,3,MIJA04,
2IFCnew,55,0,55,0,0.100370300002,1,No,11.5,-1,Hit,0.334213299968,True,False,stimulusMIJA04_2IFCnew_2019_Jun_18_1440_111,stimulusMIJA04_2IFCnew_2019_Jun_18_1440_112,True,2019_Jun_18_1440,2IFCnew,3,MIJA04,
2IFCnew,56,0,56,0,0.201893600053,1,No,9.6,-1,Hit,0.46726460004,True,False,stimulusMIJA04_2IFCnew_2019_Jun_18_1440_113,stimulusMIJA04_2IFCnew_2019_Jun_18_1440_114,True,2019_Jun_18_1440,2IFCnew,3,MIJA04,
2IFCnew,57,0,57,0,0.300509899971,4,Yes,1,-1,Miss,0.500470100029,True,False,stimulusMIJA04_2IFCnew_2019_Jun_18_1440_115,stimulusMIJA04_2IFCnew_2019_Jun_18_1440_116,True,2019_Jun_18_1440,2IFCnew,3,MIJA04,
2IFCnew,58,0,58,0,0.267191699997,1,No,3.3,-1,Hit,0.434369099967,True,False,stimulusMIJA04_2IFCnew_2019_Jun_18_1440_117,stimulusMIJA04_2IFCnew_2019_Jun_18_1440_118,True,2019_Jun_18_1440,2IFCnew,3,MIJA04,
2IFCnew,59,0,59,0,0.60085019999,5,Yes,11.5,-1,False Alarm,0.501448000025,False,True,stimulusMIJA04_2IFCnew_2019_Jun_18_1440_119,stimulusMIJA04_2IFCnew_2019_Jun_18_1440_120,True,2019_Jun_18_1440,2IFCnew,3,MIJA04,
2IFCnew,60,0,60,0,0.167413499963,1,No,11.5,-1,Hit,0.467028899991,True,False,stimulusMIJA04_2IFCnew_2019_Jun_18_1440_121,stimulusMIJA04_2IFCnew_2019_Jun_18_1440_122,True,2019_Jun_18_1440,2IFCnew,3,MIJA04,
2IFCnew,61,0,61,0,0.500813600025,1,No,8,-1,Hit,0.467784099979,True,False,stimulusMIJA04_2IFCnew_2019_Jun_18_1440_123,stimulusMIJA04_2IFCnew_2019_Jun_18_1440_124,True,2019_Jun_18_1440,2IFCnew,3,MIJA04,
2IFCnew,62,0,62,0,0.26685700001,1,No,8,-1,Hit,0.433251900016,True,False,stimulusMIJA04_2IFCnew_2019_Jun_18_1440_125,stimulusMIJA04_2IFCnew_2019_Jun_18_1440_126,True,2019_Jun_18_1440,2IFCnew,3,MIJA04,
2IFCnew,63,0,63,0,0.468289300043,1,No,9.6,-1,Hit,0.801246699993,True,False,stimulusMIJA04_2IFCnew_2019_Jun_18_1440_127,stimulusMIJA04_2IFCnew_2019_Jun_18_1440_128,True,2019_Jun_18_1440,2IFCnew,3,MIJA04,
2IFCnew,64,0,64,0,0.2337481,2,Yes,11.5,-1,Correct Rejection,0.466859399981,False,True,stimulusMIJA04_2IFCnew_2019_Jun_18_1440_129,stimulusMIJA04_2IFCnew_2019_Jun_18_1440_130,True,2019_Jun_18_1440,2IFCnew,3,MIJA04,
2IFCnew,65,0,65,0,0.300120599975,2,Yes,9.6,-1,Correct Rejection,0.500632900046,False,True,stimulusMIJA04_2IFCnew_2019_Jun_18_1440_131,stimulusMIJA04_2IFCnew_2019_Jun_18_1440_132,True,2019_Jun_18_1440,2IFCnew,3,MIJA04,
2IFCnew,66,0,66,0,0.267183399992,2,Yes,11.5,-1,Correct Rejection,0.434534200002,False,True,stimulusMIJA04_2IFCnew_2019_Jun_18_1440_133,stimulusMIJA04_2IFCnew_2019_Jun_18_1440_134,True,2019_Jun_18_1440,2IFCnew,3,MIJA04,
2IFCnew,67,0,67,0,0.234249900037,2,Yes,4.9,-1,Correct Rejection,0.400504400022,False,True,stimulusMIJA04_2IFCnew_2019_Jun_18_1440_135,stimulusMIJA04_2IFCnew_2019_Jun_18_1440_136,True,2019_Jun_18_1440,2IFCnew,3,MIJA04,
2IFCnew,68,0,68,0,0.267246400006,4,Yes,1.7,-1,Miss,0.401049599983,True,False,stimulusMIJA04_2IFCnew_2019_Jun_18_1440_137,stimulusMIJA04_2IFCnew_2019_Jun_18_1440_138,True,2019_Jun_18_1440,2IFCnew,3,MIJA04,
2IFCnew,69,0,69,0,0.466853599995,2,Yes,11.5,-1,Correct Rejection,0.567270300002,False,True,stimulusMIJA04_2IFCnew_2019_Jun_18_1440_139,stimulusMIJA04_2IFCnew_2019_Jun_18_1440_140,True,2019_Jun_18_1440,2IFCnew,3,MIJA04,
2IFCnew,70,0,70,0,0.266263600031,1,No,4.9,-1,Hit,0.36608300003,True,False,stimulusMIJA04_2IFCnew_2019_Jun_18_1440_141,stimulusMIJA04_2IFCnew_2019_Jun_18_1440_142,True,2019_Jun_18_1440,2IFCnew,3,MIJA04,
2IFCnew,71,0,71,0,0.400478299998,4,Yes,1,-1,Miss,0.603502999991,True,False,stimulusMIJA04_2IFCnew_2019_Jun_18_1440_143,stimulusMIJA04_2IFCnew_2019_Jun_18_1440_144,True,2019_Jun_18_1440,2IFCnew,3,MIJA04,
2IFCnew,72,0,72,0,0.367582599982,1,No,1,-1,Hit,0.367375799979,True,False,stimulusMIJA04_2IFCnew_2019_Jun_18_1440_145,stimulusMIJA04_2IFCnew_2019_Jun_18_1440_146,True,2019_Jun_18_1440,2IFCnew,3,MIJA04,
2IFCnew,73,0,73,0,0.3008424,4,Yes,3.3,-1,Miss,0.433661599993,True,False,stimulusMIJA04_2IFCnew_2019_Jun_18_1440_147,stimulusMIJA04_2IFCnew_2019_Jun_18_1440_148,True,2019_Jun_18_1440,2IFCnew,3,MIJA04,
2IFCnew,74,0,74,0,0.300640899979,2,Yes,1.7,-1,Correct Rejection,0.465645999997,False,True,stimulusMIJA04_2IFCnew_2019_Jun_18_1440_149,stimulusMIJA04_2IFCnew_2019_Jun_18_1440_150,True,2019_Jun_18_1440,2IFCnew,3,MIJA04,
2IFCnew,0,0,0,0,0.23572440003,2,Yes,9.6,-1,Correct Rejection,0.400496899965,False,True,stimulusMIJA04_2IFCnew_2019_Jun_18_1440_151,stimulusMIJA04_2IFCnew_2019_Jun_18_1440_152,True,2019_Jun_18_1440,2IFCnew,3,MIJA04,
2IFCnew,1,0,1,0,0.433847399952,6,No,1.7,-1,Miss,0.433593500056,True,False,stimulusMIJA04_2IFCnew_2019_Jun_18_1440_153,stimulusMIJA04_2IFCnew_2019_Jun_18_1440_154,True,2019_Jun_18_1440,2IFCnew,3,MIJA04,
2IFCnew,2,0,2,0,0.299975200032,2,Yes,9.6,-1,Correct Rejection,0.400595200015,False,True,stimulusMIJA04_2IFCnew_2019_Jun_18_1440_155,stimulusMIJA04_2IFCnew_2019_Jun_18_1440_156,True,2019_Jun_18_1440,2IFCnew,3,MIJA04,
2IFCnew,3,0,3,0,0.534448300023,3,No,1.7,-1,False Alarm,0.468174699985,False,True,stimulusMIJA04_2IFCnew_2019_Jun_18_1440_157,stimulusMIJA04_2IFCnew_2019_Jun_18_1440_158,True,2019_Jun_18_1440,2IFCnew,3,MIJA04,
2IFCnew,4,0,4,0,0.200468000025,2,Yes,11.5,-1,Correct Rejection,0.433228300011,False,True,stimulusMIJA04_2IFCnew_2019_Jun_18_1440_159,stimulusMIJA04_2IFCnew_2019_Jun_18_1440_160,True,2019_Jun_18_1440,2IFCnew,3,MIJA04,
2IFCnew,5,0,5,0,0.46733189997,2,Yes,6.6,-1,Correct Rejection,0.465873700043,False,True,stimulusMIJA04_2IFCnew_2019_Jun_18_1440_161,stimulusMIJA04_2IFCnew_2019_Jun_18_1440_162,True,2019_Jun_18_1440,2IFCnew,3,MIJA04,
2IFCnew,6,0,6,0,0.533006699989,6,No,6.6,-1,Miss,0.634587000008,True,False,stimulusMIJA04_2IFCnew_2019_Jun_18_1440_163,stimulusMIJA04_2IFCnew_2019_Jun_18_1440_164,True,2019_Jun_18_1440,2IFCnew,3,MIJA04,
2IFCnew,7,0,7,0,0.299884099979,1,No,8,-1,Hit,0.468697100005,True,False,stimulusMIJA04_2IFCnew_2019_Jun_18_1440_165,stimulusMIJA04_2IFCnew_2019_Jun_18_1440_166,True,2019_Jun_18_1440,2IFCnew,3,MIJA04,
2IFCnew,8,0,8,0,0.36668960005,2,Yes,11.5,-1,Correct Rejection,0.634091099957,False,True,stimulusMIJA04_2IFCnew_2019_Jun_18_1440_167,stimulusMIJA04_2IFCnew_2019_Jun_18_1440_168,True,2019_Jun_18_1440,2IFCnew,3,MIJA04,
2IFCnew,9,0,9,0,0.333550599986,4,Yes,1.7,-1,Miss,0.43390589999,True,False,stimulusMIJA04_2IFCnew_2019_Jun_18_1440_169,stimulusMIJA04_2IFCnew_2019_Jun_18_1440_170,True,2019_Jun_18_1440,2IFCnew,3,MIJA04,
2IFCnew,10,0,10,0,0.433166000003,2,Yes,8,-1,Correct Rejection,0.467358399997,False,True,stimulusMIJA04_2IFCnew_2019_Jun_18_1440_171,stimulusMIJA04_2IFCnew_2019_Jun_18_1440_172,True,2019_Jun_18_1440,2IFCnew,3,MIJA04,
2IFCnew,11,0,11,0,0.434100800019,1,No,4.9,-1,Hit,0.601052199956,True,False,stimulusMIJA04_2IFCnew_2019_Jun_18_1440_173,stimulusMIJA04_2IFCnew_2019_Jun_18_1440_174,True,2019_Jun_18_1440,2IFCnew,3,MIJA04,
2IFCnew,12,0,12,0,0.299972900015,2,Yes,1,-1,Correct Rejection,0.533954399987,False,True,stimulusMIJA04_2IFCnew_2019_Jun_18_1440_175,stimulusMIJA04_2IFCnew_2019_Jun_18_1440_176,True,2019_Jun_18_1440,2IFCnew,3,MIJA04,
2IFCnew,13,0,13,0,0.233638400037,1,No,8,-1,Hit,0.467405200005,True,False,stimulusMIJA04_2IFCnew_2019_Jun_18_1440_177,stimulusMIJA04_2IFCnew_2019_Jun_18_1440_178,True,2019_Jun_18_1440,2IFCnew,3,MIJA04,
2IFCnew,14,0,14,0,0.433724399947,1,No,3.3,-1,Hit,0.635406300018,True,False,stimulusMIJA04_2IFCnew_2019_Jun_18_1440_179,stimulusMIJA04_2IFCnew_2019_Jun_18_1440_180,True,2019_Jun_18_1440,2IFCnew,3,MIJA04,
2IFCnew,15,0,15,0,0.200665900018,3,No,1.7,-1,False Alarm,0.468070000003,False,True,stimulusMIJA04_2IFCnew_2019_Jun_18_1440_181,stimulusMIJA04_2IFCnew_2019_Jun_18_1440_182,True,2019_Jun_18_1440,2IFCnew,3,MIJA04,
2IFCnew,16,0,16,0,0.233873399964,3,No,4.9,-1,False Alarm,0.567580700037,False,True,stimulusMIJA04_2IFCnew_2019_Jun_18_1440_183,stimulusMIJA04_2IFCnew_2019_Jun_18_1440_184,True,2019_Jun_18_1440,2IFCnew,3,MIJA04,
2IFCnew,17,0,17,0,0.367121699965,2,Yes,1,-1,Correct Rejection,0.50063210004,False,True,stimulusMIJA04_2IFCnew_2019_Jun_18_1440_185,stimulusMIJA04_2IFCnew_2019_Jun_18_1440_186,True,2019_Jun_18_1440,2IFCnew,3,MIJA04,
2IFCnew,18,0,18,0,0.266784300038,1,No,3.3,-1,Hit,0.500672000053,True,False,stimulusMIJA04_2IFCnew_2019_Jun_18_1440_187,stimulusMIJA04_2IFCnew_2019_Jun_18_1440_188,True,2019_Jun_18_1440,2IFCnew,3,MIJA04,
2IFCnew,19,0,19,0,0.234581900004,1,No,11.5,-1,Hit,0.467325699981,True,False,stimulusMIJA04_2IFCnew_2019_Jun_18_1440_189,stimulusMIJA04_2IFCnew_2019_Jun_18_1440_190,True,2019_Jun_18_1440,2IFCnew,3,MIJA04,
2IFCnew,20,0,20,0,0.300451800053,2,Yes,1.7,-1,Correct Rejection,0.567360200046,False,True,stimulusMIJA04_2IFCnew_2019_Jun_18_1440_191,stimulusMIJA04_2IFCnew_2019_Jun_18_1440_192,True,2019_Jun_18_1440,2IFCnew,3,MIJA04,
2IFCnew,21,0,21,0,0.200625600002,1,No,11.5,-1,Hit,0.467159699998,True,False,stimulusMIJA04_2IFCnew_2019_Jun_18_1440_193,stimulusMIJA04_2IFCnew_2019_Jun_18_1440_194,True,2019_Jun_18_1440,2IFCnew,3,MIJA04,
2IFCnew,22,0,22,0,0.267093100003,2,Yes,6.6,-1,Correct Rejection,0.499470999988,False,True,stimulusMIJA04_2IFCnew_2019_Jun_18_1440_195,stimulusMIJA04_2IFCnew_2019_Jun_18_1440_196,True,2019_Jun_18_1440,2IFCnew,3,MIJA04,
2IFCnew,23,0,23,0,0.267123199999,1,No,11.5,-1,Hit,0.434072399978,True,False,stimulusMIJA04_2IFCnew_2019_Jun_18_1440_197,stimulusMIJA04_2IFCnew_2019_Jun_18_1440_198,True,2019_Jun_18_1440,2IFCnew,3,MIJA04,
2IFCnew,24,0,24,0,0.300391700002,2,Yes,8,-1,Correct Rejection,0.433894800022,False,True,stimulusMIJA04_2IFCnew_2019_Jun_18_1440_199,stimulusMIJA04_2IFCnew_2019_Jun_18_1440_200,True,2019_Jun_18_1440,2IFCnew,3,MIJA04,
2IFCnew,25,0,25,0,0.26746220002,1,No,11.5,-1,Hit,0.500753199973,True,False,stimulusMIJA04_2IFCnew_2019_Jun_18_1440_201,stimulusMIJA04_2IFCnew_2019_Jun_18_1440_202,True,2019_Jun_18_1440,2IFCnew,3,MIJA04,
2IFCnew,26,0,26,0,0.233902999957,2,Yes,11.5,-1,Correct Rejection,0.400497799972,False,True,stimulusMIJA04_2IFCnew_2019_Jun_18_1440_203,stimulusMIJA04_2IFCnew_2019_Jun_18_1440_204,True,2019_Jun_18_1440,2IFCnew,3,MIJA04,
2IFCnew,27,0,27,0,0.233727500017,1,No,8,-1,Hit,0.400710799964,True,False,stimulusMIJA04_2IFCnew_2019_Jun_18_1440_205,stimulusMIJA04_2IFCnew_2019_Jun_18_1440_206,True,2019_Jun_18_1440,2IFCnew,3,MIJA04,
2IFCnew,28,0,28,0,0.268308700004,4,Yes,3.3,-1,Miss,0.434105199995,True,False,stimulusMIJA04_2IFCnew_2019_Jun_18_1440_207,stimulusMIJA04_2IFCnew_2019_Jun_18_1440_208,True,2019_Jun_18_1440,2IFCnew,3,MIJA04,
2IFCnew,29,0,29,0,0.200464000052,2,Yes,11.5,-1,Correct Rejection,0.467591500026,False,True,stimulusMIJA04_2IFCnew_2019_Jun_18_1440_209,stimulusMIJA04_2IFCnew_2019_Jun_18_1440_210,True,2019_Jun_18_1440,2IFCnew,3,MIJA04,
2IFCnew,30,0,30,0,0.232400800043,2,Yes,6.6,-1,Correct Rejection,0.434226199985,False,True,stimulusMIJA04_2IFCnew_2019_Jun_18_1440_211,stimulusMIJA04_2IFCnew_2019_Jun_18_1440_212,True,2019_Jun_18_1440,2IFCnew,3,MIJA04,
2IFCnew,31,0,31,0,0.50076939998,8,No,4.9,-1,Correct Rejection,0.500167699996,False,True,stimulusMIJA04_2IFCnew_2019_Jun_18_1440_213,stimulusMIJA04_2IFCnew_2019_Jun_18_1440_214,True,2019_Jun_18_1440,2IFCnew,3,MIJA04,
2IFCnew,32,0,32,0,0.333771600039,2,Yes,6.6,-1,Correct Rejection,0.667272799998,False,True,stimulusMIJA04_2IFCnew_2019_Jun_18_1440_215,stimulusMIJA04_2IFCnew_2019_Jun_18_1440_216,True,2019_Jun_18_1440,2IFCnew,3,MIJA04,
2IFCnew,33,0,33,0,0.233951699978,1,No,11.5,-1,Hit,0.50124469999,True,False,stimulusMIJA04_2IFCnew_2019_Jun_18_1440_217,stimulusMIJA04_2IFCnew_2019_Jun_18_1440_218,True,2019_Jun_18_1440,2IFCnew,3,MIJA04,
2IFCnew,34,0,34,0,0.300517599971,4,Yes,1.7,-1,Miss,0.500900899991,True,False,stimulusMIJA04_2IFCnew_2019_Jun_18_1440_219,stimulusMIJA04_2IFCnew_2019_Jun_18_1440_220,True,2019_Jun_18_1440,2IFCnew,3,MIJA04,
2IFCnew,35,0,35,0,0.168998799985,1,No,11.5,-1,Hit,0.46807100001,True,False,stimulusMIJA04_2IFCnew_2019_Jun_18_1440_221,stimulusMIJA04_2IFCnew_2019_Jun_18_1440_222,True,2019_Jun_18_1440,2IFCnew,3,MIJA04,
2IFCnew,36,0,36,0,0.334456299955,4,Yes,1,-1,Miss,0.466682499973,True,False,stimulusMIJA04_2IFCnew_2019_Jun_18_1440_223,stimulusMIJA04_2IFCnew_2019_Jun_18_1440_224,True,2019_Jun_18_1440,2IFCnew,3,MIJA04,
2IFCnew,37,0,37,0,0.434158299991,1,No,4.9,-1,Hit,0.633906500007,True,False,stimulusMIJA04_2IFCnew_2019_Jun_18_1440_225,stimulusMIJA04_2IFCnew_2019_Jun_18_1440_226,True,2019_Jun_18_1440,2IFCnew,3,MIJA04,
2IFCnew,38,0,38,0,0.233546899981,1,No,11.5,-1,Hit,0.501405399991,True,False,stimulusMIJA04_2IFCnew_2019_Jun_18_1440_227,stimulusMIJA04_2IFCnew_2019_Jun_18_1440_228,True,2019_Jun_18_1440,2IFCnew,3,MIJA04,
2IFCnew,39,0,39,0,0.333889900008,6,No,1.7,-1,Miss,0.500356600038,True,False,stimulusMIJA04_2IFCnew_2019_Jun_18_1440_229,stimulusMIJA04_2IFCnew_2019_Jun_18_1440_230,True,2019_Jun_18_1440,2IFCnew,3,MIJA04,
2IFCnew,40,0,40,0,0.500292400015,2,Yes,3.3,-1,Correct Rejection,0.568275700032,False,True,stimulusMIJA04_2IFCnew_2019_Jun_18_1440_231,stimulusMIJA04_2IFCnew_2019_Jun_18_1440_232,True,2019_Jun_18_1440,2IFCnew,3,MIJA04,
2IFCnew,41,0,41,0,0.266607499972,2,Yes,1,-1,Correct Rejection,0.500638899975,False,True,stimulusMIJA04_2IFCnew_2019_Jun_18_1440_233,stimulusMIJA04_2IFCnew_2019_Jun_18_1440_234,True,2019_Jun_18_1440,2IFCnew,3,MIJA04,
2IFCnew,42,0,42,0,0.299891700037,4,Yes,3.3,-1,Miss,0.501730599965,True,False,stimulusMIJA04_2IFCnew_2019_Jun_18_1440_235,stimulusMIJA04_2IFCnew_2019_Jun_18_1440_236,True,2019_Jun_18_1440,2IFCnew,3,MIJA04,
2IFCnew,43,0,43,0,0.332564699987,2,Yes,1.7,-1,Correct Rejection,0.532510299992,False,True,stimulusMIJA04_2IFCnew_2019_Jun_18_1440_237,stimulusMIJA04_2IFCnew_2019_Jun_18_1440_238,True,2019_Jun_18_1440,2IFCnew,3,MIJA04,
2IFCnew,44,0,44,0,0.200583100028,1,No,11.5,-1,Hit,0.433776599995,True,False,stimulusMIJA04_2IFCnew_2019_Jun_18_1440_239,stimulusMIJA04_2IFCnew_2019_Jun_18_1440_240,True,2019_Jun_18_1440,2IFCnew,3,MIJA04,
2IFCnew,45,0,45,0,0.300355900021,1,No,4.9,-1,Hit,0.501020300027,True,False,stimulusMIJA04_2IFCnew_2019_Jun_18_1440_241,stimulusMIJA04_2IFCnew_2019_Jun_18_1440_242,True,2019_Jun_18_1440,2IFCnew,3,MIJA04,
2IFCnew,46,0,46,0,0.200216399971,2,Yes,1.7,-1,Correct Rejection,0.467017999967,False,True,stimulusMIJA04_2IFCnew_2019_Jun_18_1440_243,stimulusMIJA04_2IFCnew_2019_Jun_18_1440_244,True,2019_Jun_18_1440,2IFCnew,3,MIJA04,
2IFCnew,47,0,47,0,0.101574300032,2,Yes,6.6,-1,Correct Rejection,0.400716600008,False,True,stimulusMIJA04_2IFCnew_2019_Jun_18_1440_245,stimulusMIJA04_2IFCnew_2019_Jun_18_1440_246,True,2019_Jun_18_1440,2IFCnew,3,MIJA04,
2IFCnew,48,0,48,0,0.267127999978,8,No,8,-1,Correct Rejection,0.467520400009,False,True,stimulusMIJA04_2IFCnew_2019_Jun_18_1440_247,stimulusMIJA04_2IFCnew_2019_Jun_18_1440_248,True,2019_Jun_18_1440,2IFCnew,3,MIJA04,
2IFCnew,49,0,49,0,0.301640300022,2,Yes,4.9,-1,Correct Rejection,0.466941800027,False,True,stimulusMIJA04_2IFCnew_2019_Jun_18_1440_249,stimulusMIJA04_2IFCnew_2019_Jun_18_1440_250,True,2019_Jun_18_1440,2IFCnew,3,MIJA04,
2IFCnew,50,0,50,0,0.267063900013,1,No,9.6,-1,Hit,0.469731400022,True,False,stimulusMIJA04_2IFCnew_2019_Jun_18_1440_251,stimulusMIJA04_2IFCnew_2019_Jun_18_1440_252,True,2019_Jun_18_1440,2IFCnew,3,MIJA04,
2IFCnew,51,0,51,0,0.233014500001,2,Yes,9.6,-1,Correct Rejection,0.433810900024,False,True,stimulusMIJA04_2IFCnew_2019_Jun_18_1440_253,stimulusMIJA04_2IFCnew_2019_Jun_18_1440_254,True,2019_Jun_18_1440,2IFCnew,3,MIJA04,
2IFCnew,52,0,52,0,0.467322399956,2,Yes,9.6,-1,Correct Rejection,0.467070100014,False,True,stimulusMIJA04_2IFCnew_2019_Jun_18_1440_255,stimulusMIJA04_2IFCnew_2019_Jun_18_1440_256,True,2019_Jun_18_1440,2IFCnew,3,MIJA04,
2IFCnew,53,0,53,0,0.400573800027,2,Yes,11.5,-1,Correct Rejection,0.467251199996,False,True,stimulusMIJA04_2IFCnew_2019_Jun_18_1440_257,stimulusMIJA04_2IFCnew_2019_Jun_18_1440_258,True,2019_Jun_18_1440,2IFCnew,3,MIJA04,
2IFCnew,54,0,54,0,0.567479600024,5,Yes,6.6,-1,False Alarm,0.5331687,False,True,stimulusMIJA04_2IFCnew_2019_Jun_18_1440_259,stimulusMIJA04_2IFCnew_2019_Jun_18_1440_260,True,2019_Jun_18_1440,2IFCnew,3,MIJA04,
2IFCnew,55,0,55,0,0.333922900027,2,Yes,1.7,-1,Correct Rejection,0.500693099981,False,True,stimulusMIJA04_2IFCnew_2019_Jun_18_1440_261,stimulusMIJA04_2IFCnew_2019_Jun_18_1440_262,True,2019_Jun_18_1440,2IFCnew,3,MIJA04,
2IFCnew,56,0,56,0,0.399688999983,7,Yes,1.7,-1,Hit,0.466538799985,True,False,stimulusMIJA04_2IFCnew_2019_Jun_18_1440_263,stimulusMIJA04_2IFCnew_2019_Jun_18_1440_264,True,2019_Jun_18_1440,2IFCnew,3,MIJA04,
2IFCnew,57,0,57,0,0.466922699998,2,Yes,3.3,-1,Correct Rejection,0.66770489997,False,True,stimulusMIJA04_2IFCnew_2019_Jun_18_1440_265,stimulusMIJA04_2IFCnew_2019_Jun_18_1440_266,True,2019_Jun_18_1440,2IFCnew,3,MIJA04,
2IFCnew,58,0,58,0,0.666995599982,2,Yes,6.6,-1,Correct Rejection,0.600300699996,False,True,stimulusMIJA04_2IFCnew_2019_Jun_18_1440_267,stimulusMIJA04_2IFCnew_2019_Jun_18_1440_268,True,2019_Jun_18_1440,2IFCnew,3,MIJA04,
2IFCnew,59,0,59,0,0.300678499974,2,Yes,11.5,-1,Correct Rejection,0.467135999992,False,True,stimulusMIJA04_2IFCnew_2019_Jun_18_1440_269,stimulusMIJA04_2IFCnew_2019_Jun_18_1440_270,True,2019_Jun_18_1440,2IFCnew,3,MIJA04,
2IFCnew,60,0,60,0,0.299599700025,2,Yes,1,-1,Correct Rejection,0.500691799971,False,True,stimulusMIJA04_2IFCnew_2019_Jun_18_1440_271,stimulusMIJA04_2IFCnew_2019_Jun_18_1440_272,True,2019_Jun_18_1440,2IFCnew,3,MIJA04,
2IFCnew,61,0,61,0,0.300113899983,1,No,4.9,-1,Hit,0.500915099983,True,False,stimulusMIJA04_2IFCnew_2019_Jun_18_1440_273,stimulusMIJA04_2IFCnew_2019_Jun_18_1440_274,True,2019_Jun_18_1440,2IFCnew,3,MIJA04,
2IFCnew,62,0,62,0,0.234060600051,2,Yes,8,-1,Correct Rejection,0.468084399996,False,True,stimulusMIJA04_2IFCnew_2019_Jun_18_1440_275,stimulusMIJA04_2IFCnew_2019_Jun_18_1440_276,True,2019_Jun_18_1440,2IFCnew,3,MIJA04,
2IFCnew,63,0,63,0,0.301274599973,1,No,6.6,-1,Hit,0.467554100032,True,False,stimulusMIJA04_2IFCnew_2019_Jun_18_1440_277,stimulusMIJA04_2IFCnew_2019_Jun_18_1440_278,True,2019_Jun_18_1440,2IFCnew,3,MIJA04,
2IFCnew,64,0,64,0,0.266709099989,1,No,9.6,-1,Hit,0.500760299969,True,False,stimulusMIJA04_2IFCnew_2019_Jun_18_1440_279,stimulusMIJA04_2IFCnew_2019_Jun_18_1440_280,True,2019_Jun_18_1440,2IFCnew,3,MIJA04,
2IFCnew,65,0,65,0,0.333571999974,1,No,9.6,-1,Hit,0.467236299999,True,False,stimulusMIJA04_2IFCnew_2019_Jun_18_1440_281,stimulusMIJA04_2IFCnew_2019_Jun_18_1440_282,True,2019_Jun_18_1440,2IFCnew,3,MIJA04,
2IFCnew,66,0,66,0,0.266255300026,1,No,11.5,-1,Hit,0.366776799958,True,False,stimulusMIJA04_2IFCnew_2019_Jun_18_1440_283,stimulusMIJA04_2IFCnew_2019_Jun_18_1440_284,True,2019_Jun_18_1440,2IFCnew,3,MIJA04,
2IFCnew,67,0,67,0,0.466876199993,1,No,4.9,-1,Hit,0.534144999983,True,False,stimulusMIJA04_2IFCnew_2019_Jun_18_1440_285,stimulusMIJA04_2IFCnew_2019_Jun_18_1440_286,True,2019_Jun_18_1440,2IFCnew,3,MIJA04,
2IFCnew,68,0,68,0,0.233696700016,2,Yes,4.9,-1,Correct Rejection,0.433867999993,False,True,stimulusMIJA04_2IFCnew_2019_Jun_18_1440_287,stimulusMIJA04_2IFCnew_2019_Jun_18_1440_288,True,2019_Jun_18_1440,2IFCnew,3,MIJA04,
2IFCnew,69,0,69,0,0.232338800037,2,Yes,1,-1,Correct Rejection,0.500214900007,False,True,stimulusMIJA04_2IFCnew_2019_Jun_18_1440_289,stimulusMIJA04_2IFCnew_2019_Jun_18_1440_290,True,2019_Jun_18_1440,2IFCnew,3,MIJA04,
2IFCnew,70,0,70,0,0.16733299999,1,No,8,-1,Hit,0.401494499994,True,False,stimulusMIJA04_2IFCnew_2019_Jun_18_1440_291,stimulusMIJA04_2IFCnew_2019_Jun_18_1440_292,True,2019_Jun_18_1440,2IFCnew,3,MIJA04,
2IFCnew,71,0,71,0,0.466729499982,6,No,1.7,-1,Miss,0.400616400002,True,False,stimulusMIJA04_2IFCnew_2019_Jun_18_1440_293,stimulusMIJA04_2IFCnew_2019_Jun_18_1440_294,True,2019_Jun_18_1440,2IFCnew,3,MIJA04,
2IFCnew,72,0,72,0,0.266032400017,1,No,1.7,-1,Hit,0.40073319996,True,False,stimulusMIJA04_2IFCnew_2019_Jun_18_1440_295,stimulusMIJA04_2IFCnew_2019_Jun_18_1440_296,True,2019_Jun_18_1440,2IFCnew,3,MIJA04,
2IFCnew,73,0,73,0,0.200447099982,1,No,8,-1,Hit,0.367595400021,True,False,stimulusMIJA04_2IFCnew_2019_Jun_18_1440_297,stimulusMIJA04_2IFCnew_2019_Jun_18_1440_298,True,2019_Jun_18_1440,2IFCnew,3,MIJA04,
2IFCnew,74,0,74,0,0.267069099995,1,No,6.6,-1,Hit,0.500821700029,True,False,stimulusMIJA04_2IFCnew_2019_Jun_18_1440_299,stimulusMIJA04_2IFCnew_2019_Jun_18_1440_300,True,2019_Jun_18_1440,2IFCnew,3,MIJA04,
2IFCnew,0,0,0,0,0.700580400007,6,No,4.9,-1,Miss,0.70059979998,True,False,stimulusMIJA04_2IFCnew_2019_Jun_18_1440_301,stimulusMIJA04_2IFCnew_2019_Jun_18_1440_302,True,2019_Jun_18_1440,2IFCnew,3,MIJA04,
2IFCnew,1,0,1,0,0.36714029999,2,Yes,8,-1,Correct Rejection,0.500316600024,False,True,stimulusMIJA04_2IFCnew_2019_Jun_18_1440_303,stimulusMIJA04_2IFCnew_2019_Jun_18_1440_304,True,2019_Jun_18_1440,2IFCnew,3,MIJA04,
2IFCnew,2,0,2,0,0.369045200001,8,No,1.7,-1,Correct Rejection,0.467084200005,False,True,stimulusMIJA04_2IFCnew_2019_Jun_18_1440_305,stimulusMIJA04_2IFCnew_2019_Jun_18_1440_306,True,2019_Jun_18_1440,2IFCnew,3,MIJA04,
2IFCnew,3,0,3,0,0.267154700006,2,Yes,6.6,-1,Correct Rejection,0.46587939997,False,True,stimulusMIJA04_2IFCnew_2019_Jun_18_1440_307,stimulusMIJA04_2IFCnew_2019_Jun_18_1440_308,True,2019_Jun_18_1440,2IFCnew,3,MIJA04,
2IFCnew,4,0,4,0,0.233622700034,1,No,8,-1,Hit,0.434111899987,True,False,stimulusMIJA04_2IFCnew_2019_Jun_18_1440_309,stimulusMIJA04_2IFCnew_2019_Jun_18_1440_310,True,2019_Jun_18_1440,2IFCnew,3,MIJA04,
2IFCnew,5,0,5,0,0.300153199991,1,No,9.6,-1,Hit,0.533802899998,True,False,stimulusMIJA04_2IFCnew_2019_Jun_18_1440_311,stimulusMIJA04_2IFCnew_2019_Jun_18_1440_312,True,2019_Jun_18_1440,2IFCnew,3,MIJA04,
2IFCnew,6,0,6,0,0.500652100018,1,No,1,-1,Hit,0.466788199963,True,False,stimulusMIJA04_2IFCnew_2019_Jun_18_1440_313,stimulusMIJA04_2IFCnew_2019_Jun_18_1440_314,True,2019_Jun_18_1440,2IFCnew,3,MIJA04,
2IFCnew,7,0,7,0,0.333127100021,2,Yes,3.3,-1,Correct Rejection,0.735357999976,False,True,stimulusMIJA04_2IFCnew_2019_Jun_18_1440_315,stimulusMIJA04_2IFCnew_2019_Jun_18_1440_316,True,2019_Jun_18_1440,2IFCnew,3,MIJA04,
2IFCnew,8,0,8,0,0.267248300021,1,No,6.6,-1,Hit,0.46705820004,True,False,stimulusMIJA04_2IFCnew_2019_Jun_18_1440_317,stimulusMIJA04_2IFCnew_2019_Jun_18_1440_318,True,2019_Jun_18_1440,2IFCnew,3,MIJA04,
2IFCnew,9,0,9,0,0.300769299967,2,Yes,6.6,-1,Correct Rejection,0.433475300029,False,True,stimulusMIJA04_2IFCnew_2019_Jun_18_1440_319,stimulusMIJA04_2IFCnew_2019_Jun_18_1440_320,True,2019_Jun_18_1440,2IFCnew,3,MIJA04,
2IFCnew,10,0,10,0,0.200531800045,1,No,8,-1,Hit,0.500238000008,True,False,stimulusMIJA04_2IFCnew_2019_Jun_18_1440_321,stimulusMIJA04_2IFCnew_2019_Jun_18_1440_322,True,2019_Jun_18_1440,2IFCnew,3,MIJA04,
2IFCnew,11,0,11,0,0.233313900011,2,Yes,1.7,-1,Correct Rejection,0.467294099974,False,True,stimulusMIJA04_2IFCnew_2019_Jun_18_1440_323,stimulusMIJA04_2IFCnew_2019_Jun_18_1440_324,True,2019_Jun_18_1440,2IFCnew,3,MIJA04,
2IFCnew,12,0,12,0,0.500546100026,2,Yes,3.3,-1,Correct Rejection,0.534140700009,False,True,stimulusMIJA04_2IFCnew_2019_Jun_18_1440_325,stimulusMIJA04_2IFCnew_2019_Jun_18_1440_326,True,2019_Jun_18_1440,2IFCnew,3,MIJA04,
2IFCnew,13,0,13,0,0.233698300028,1,No,9.6,-1,Hit,0.468363399967,True,False,stimulusMIJA04_2IFCnew_2019_Jun_18_1440_327,stimulusMIJA04_2IFCnew_2019_Jun_18_1440_328,True,2019_Jun_18_1440,2IFCnew,3,MIJA04,
2IFCnew,14,0,14,0,0.296612200036,1,No,3.3,-1,Hit,0.634743399976,True,False,stimulusMIJA04_2IFCnew_2019_Jun_18_1440_329,stimulusMIJA04_2IFCnew_2019_Jun_18_1440_330,True,2019_Jun_18_1440,2IFCnew,3,MIJA04,
2IFCnew,15,0,15,0,0.19999220001,2,Yes,8,-1,Correct Rejection,0.466774599976,False,True,stimulusMIJA04_2IFCnew_2019_Jun_18_1440_331,stimulusMIJA04_2IFCnew_2019_Jun_18_1440_332,True,2019_Jun_18_1440,2IFCnew,3,MIJA04,
2IFCnew,16,0,16,0,0.16706930002,1,No,4.9,-1,Hit,0.43523220002,True,False,stimulusMIJA04_2IFCnew_2019_Jun_18_1440_333,stimulusMIJA04_2IFCnew_2019_Jun_18_1440_334,True,2019_Jun_18_1440,2IFCnew,3,MIJA04,
2IFCnew,17,0,17,0,0.233721199969,3,No,1,-1,False Alarm,0.567685700022,False,True,stimulusMIJA04_2IFCnew_2019_Jun_18_1440_335,stimulusMIJA04_2IFCnew_2019_Jun_18_1440_336,True,2019_Jun_18_1440,2IFCnew,3,MIJA04,
2IFCnew,18,0,18,0,0.168092800013,1,No,4.9,-1,Hit,0.468283399998,True,False,stimulusMIJA04_2IFCnew_2019_Jun_18_1440_337,stimulusMIJA04_2IFCnew_2019_Jun_18_1440_338,True,2019_Jun_18_1440,2IFCnew,3,MIJA04,
2IFCnew,19,0,19,0,0.300892299972,2,Yes,6.6,-1,Correct Rejection,0.600726899982,False,True,stimulusMIJA04_2IFCnew_2019_Jun_18_1440_339,stimulusMIJA04_2IFCnew_2019_Jun_18_1440_340,True,2019_Jun_18_1440,2IFCnew,3,MIJA04,
2IFCnew,20,0,20,0,0.366357800027,2,Yes,11.5,-1,Correct Rejection,0.601488500019,False,True,stimulusMIJA04_2IFCnew_2019_Jun_18_1440_341,stimulusMIJA04_2IFCnew_2019_Jun_18_1440_342,True,2019_Jun_18_1440,2IFCnew,3,MIJA04,
2IFCnew,21,0,21,0,0.300566099992,2,Yes,8,-1,Correct Rejection,0.500511299993,False,True,stimulusMIJA04_2IFCnew_2019_Jun_18_1440_343,stimulusMIJA04_2IFCnew_2019_Jun_18_1440_344,True,2019_Jun_18_1440,2IFCnew,3,MIJA04,
2IFCnew,22,0,22,0,0.300484800013,2,Yes,9.6,-1,Correct Rejection,0.534119099961,False,True,stimulusMIJA04_2IFCnew_2019_Jun_18_1440_345,stimulusMIJA04_2IFCnew_2019_Jun_18_1440_346,True,2019_Jun_18_1440,2IFCnew,3,MIJA04,
2IFCnew,23,0,23,0,0.50219520001,2,Yes,4.9,-1,Correct Rejection,0.6340662,False,True,stimulusMIJA04_2IFCnew_2019_Jun_18_1440_347,stimulusMIJA04_2IFCnew_2019_Jun_18_1440_348,True,2019_Jun_18_1440,2IFCnew,3,MIJA04,
2IFCnew,24,0,24,0,0.201632300043,1,No,11.5,-1,Hit,0.433422300033,True,False,stimulusMIJA04_2IFCnew_2019_Jun_18_1440_349,stimulusMIJA04_2IFCnew_2019_Jun_18_1440_350,True,2019_Jun_18_1440,2IFCnew,3,MIJA04,
2IFCnew,25,0,25,0,0.467206400004,6,No,1,-1,Miss,0.467524699983,True,False,stimulusMIJA04_2IFCnew_2019_Jun_18_1440_351,stimulusMIJA04_2IFCnew_2019_Jun_18_1440_352,True,2019_Jun_18_1440,2IFCnew,3,MIJA04,
2IFCnew,26,0,26,0,0.333910899993,3,No,1.7,-1,False Alarm,0.434739299992,False,True,stimulusMIJA04_2IFCnew_2019_Jun_18_1440_353,stimulusMIJA04_2IFCnew_2019_Jun_18_1440_354,True,2019_Jun_18_1440,2IFCnew,3,MIJA04,
2IFCnew,27,0,27,0,0.300257599971,2,Yes,6.6,-1,Correct Rejection,0.433854200004,False,True,stimulusMIJA04_2IFCnew_2019_Jun_18_1440_355,stimulusMIJA04_2IFCnew_2019_Jun_18_1440_356,True,2019_Jun_18_1440,2IFCnew,3,MIJA04,
2IFCnew,28,0,28,0,0.334032099985,1,No,9.6,-1,Hit,0.467230300012,True,False,stimulusMIJA04_2IFCnew_2019_Jun_18_1440_357,stimulusMIJA04_2IFCnew_2019_Jun_18_1440_358,True,2019_Jun_18_1440,2IFCnew,3,MIJA04,
2IFCnew,29,0,29,0,0.300350000034,1,No,9.6,-1,Hit,0.401359199954,True,False,stimulusMIJA04_2IFCnew_2019_Jun_18_1440_359,stimulusMIJA04_2IFCnew_2019_Jun_18_1440_360,True,2019_Jun_18_1440,2IFCnew,3,MIJA04,
2IFCnew,30,0,30,0,0.0329814000288,3,No,9.6,-1,False Alarm,0.334193799994,False,True,stimulusMIJA04_2IFCnew_2019_Jun_18_1440_361,stimulusMIJA04_2IFCnew_2019_Jun_18_1440_362,True,2019_Jun_18_1440,2IFCnew,3,MIJA04,
2IFCnew,31,0,31,0,0.268823500024,2,Yes,1,-1,Correct Rejection,0.500526100048,False,True,stimulusMIJA04_2IFCnew_2019_Jun_18_1440_363,stimulusMIJA04_2IFCnew_2019_Jun_18_1440_364,True,2019_Jun_18_1440,2IFCnew,3,MIJA04,
2IFCnew,32,0,32,0,0.567507900007,5,Yes,4.9,-1,False Alarm,0.500472199987,False,True,stimulusMIJA04_2IFCnew_2019_Jun_18_1440_365,stimulusMIJA04_2IFCnew_2019_Jun_18_1440_366,True,2019_Jun_18_1440,2IFCnew,3,MIJA04,
2IFCnew,33,0,33,0,0.301141100004,2,Yes,11.5,-1,Correct Rejection,0.43442960002,False,True,stimulusMIJA04_2IFCnew_2019_Jun_18_1440_367,stimulusMIJA04_2IFCnew_2019_Jun_18_1440_368,True,2019_Jun_18_1440,2IFCnew,3,MIJA04,
2IFCnew,34,0,34,0,0.267182599986,1,No,11.5,-1,Hit,0.500667199958,True,False,stimulusMIJA04_2IFCnew_2019_Jun_18_1440_369,stimulusMIJA04_2IFCnew_2019_Jun_18_1440_370,True,2019_Jun_18_1440,2IFCnew,3,MIJA04,
2IFCnew,35,0,35,0,0.367337399977,1,No,3.3,-1,Hit,0.500207100005,True,False,stimulusMIJA04_2IFCnew_2019_Jun_18_1440_371,stimulusMIJA04_2IFCnew_2019_Jun_18_1440_372,True,2019_Jun_18_1440,2IFCnew,3,MIJA04,
2IFCnew,36,0,36,0,0.267122099991,4,Yes,6.6,-1,Miss,0.401161700021,True,False,stimulusMIJA04_2IFCnew_2019_Jun_18_1440_373,stimulusMIJA04_2IFCnew_2019_Jun_18_1440_374,True,2019_Jun_18_1440,2IFCnew,3,MIJA04,
2IFCnew,37,0,37,0,0.233648900001,2,Yes,1.7,-1,Correct Rejection,0.500771899999,False,True,stimulusMIJA04_2IFCnew_2019_Jun_18_1440_375,stimulusMIJA04_2IFCnew_2019_Jun_18_1440_376,True,2019_Jun_18_1440,2IFCnew,3,MIJA04,
2IFCnew,38,0,38,0,0.201982000028,1,No,4.9,-1,Hit,0.398761300021,True,False,stimulusMIJA04_2IFCnew_2019_Jun_18_1440_377,stimulusMIJA04_2IFCnew_2019_Jun_18_1440_378,True,2019_Jun_18_1440,2IFCnew,3,MIJA04,
2IFCnew,39,0,39,0,0.333791000012,2,Yes,1.7,-1,Correct Rejection,0.500142999983,False,True,stimulusMIJA04_2IFCnew_2019_Jun_18_1440_379,stimulusMIJA04_2IFCnew_2019_Jun_18_1440_380,True,2019_Jun_18_1440,2IFCnew,3,MIJA04,
2IFCnew,40,0,40,0,0.533787299995,7,Yes,1,-1,Hit,0.501004499965,True,False,stimulusMIJA04_2IFCnew_2019_Jun_18_1440_381,stimulusMIJA04_2IFCnew_2019_Jun_18_1440_382,True,2019_Jun_18_1440,2IFCnew,3,MIJA04,
2IFCnew,41,0,41,0,0.600256500009,7,Yes,1.7,-1,Hit,0.500723899982,True,False,stimulusMIJA04_2IFCnew_2019_Jun_18_1440_383,stimulusMIJA04_2IFCnew_2019_Jun_18_1440_384,True,2019_Jun_18_1440,2IFCnew,3,MIJA04,
2IFCnew,42,0,42,0,0.333755999978,2,Yes,1.7,-1,Correct Rejection,0.501446400012,False,True,stimulusMIJA04_2IFCnew_2019_Jun_18_1440_385,stimulusMIJA04_2IFCnew_2019_Jun_18_1440_386,True,2019_Jun_18_1440,2IFCnew,3,MIJA04,
2IFCnew,43,0,43,0,0.299951500027,1,No,1.7,-1,Hit,0.501147400006,True,False,stimulusMIJA04_2IFCnew_2019_Jun_18_1440_387,stimulusMIJA04_2IFCnew_2019_Jun_18_1440_388,True,2019_Jun_18_1440,2IFCnew,3,MIJA04,
2IFCnew,44,0,44,0,0.467460200016,5,Yes,9.6,-1,False Alarm,0.600882400002,False,True,stimulusMIJA04_2IFCnew_2019_Jun_18_1440_389,stimulusMIJA04_2IFCnew_2019_Jun_18_1440_390,True,2019_Jun_18_1440,2IFCnew,3,MIJA04,
2IFCnew,45,0,45,0,0.33368370001,2,Yes,9.6,-1,Correct Rejection,0.467333299981,False,True,stimulusMIJA04_2IFCnew_2019_Jun_18_1440_391,stimulusMIJA04_2IFCnew_2019_Jun_18_1440_392,True,2019_Jun_18_1440,2IFCnew,3,MIJA04,
2IFCnew,46,0,46,0,0.300381299981,1,No,9.6,-1,Hit,0.500596500002,True,False,stimulusMIJA04_2IFCnew_2019_Jun_18_1440_393,stimulusMIJA04_2IFCnew_2019_Jun_18_1440_394,True,2019_Jun_18_1440,2IFCnew,3,MIJA04,
2IFCnew,47,0,47,0,0.333351699985,1,No,8,-1,Hit,0.368184900028,True,False,stimulusMIJA04_2IFCnew_2019_Jun_18_1440_395,stimulusMIJA04_2IFCnew_2019_Jun_18_1440_396,True,2019_Jun_18_1440,2IFCnew,3,MIJA04,
2IFCnew,48,0,48,0,0.300258599978,1,No,6.6,-1,Hit,0.400763400015,True,False,stimulusMIJA04_2IFCnew_2019_Jun_18_1440_397,stimulusMIJA04_2IFCnew_2019_Jun_18_1440_398,True,2019_Jun_18_1440,2IFCnew,3,MIJA04,
2IFCnew,49,0,49,0,0.334754300013,2,Yes,9.6,-1,Correct Rejection,0.600694199966,False,True,stimulusMIJA04_2IFCnew_2019_Jun_18_1440_399,stimulusMIJA04_2IFCnew_2019_Jun_18_1440_400,True,2019_Jun_18_1440,2IFCnew,3,MIJA04,
2IFCnew,50,0,50,0,0.26737320004,2,Yes,6.6,-1,Correct Rejection,0.501560000004,False,True,stimulusMIJA04_2IFCnew_2019_Jun_18_1440_401,stimulusMIJA04_2IFCnew_2019_Jun_18_1440_402,True,2019_Jun_18_1440,2IFCnew,3,MIJA04,
2IFCnew,51,0,51,0,0.300344000047,4,Yes,1.7,-1,Miss,0.433926600032,True,False,stimulusMIJA04_2IFCnew_2019_Jun_18_1440_403,stimulusMIJA04_2IFCnew_2019_Jun_18_1440_404,True,2019_Jun_18_1440,2IFCnew,3,MIJA04,
2IFCnew,52,0,52,0,0.234516899975,1,No,6.6,-1,Hit,0.534943400009,True,False,stimulusMIJA04_2IFCnew_2019_Jun_18_1440_405,stimulusMIJA04_2IFCnew_2019_Jun_18_1440_406,True,2019_Jun_18_1440,2IFCnew,3,MIJA04,
2IFCnew,53,0,53,0,0.301011300005,3,No,3.3,-1,False Alarm,0.467262299964,False,True,stimulusMIJA04_2IFCnew_2019_Jun_18_1440_407,stimulusMIJA04_2IFCnew_2019_Jun_18_1440_408,True,2019_Jun_18_1440,2IFCnew,3,MIJA04,
2IFCnew,54,0,54,0,0.334132999997,2,Yes,4.9,-1,Correct Rejection,0.43383340002,False,True,stimulusMIJA04_2IFCnew_2019_Jun_18_1440_409,stimulusMIJA04_2IFCnew_2019_Jun_18_1440_410,True,2019_Jun_18_1440,2IFCnew,3,MIJA04,
2IFCnew,55,0,55,0,0.201282800001,1,No,11.5,-1,Hit,0.434354999976,True,False,stimulusMIJA04_2IFCnew_2019_Jun_18_1440_411,stimulusMIJA04_2IFCnew_2019_Jun_18_1440_412,True,2019_Jun_18_1440,2IFCnew,3,MIJA04,
2IFCnew,56,0,56,0,0.2667029,2,Yes,1,-1,Correct Rejection,0.534367100045,False,True,stimulusMIJA04_2IFCnew_2019_Jun_18_1440_413,stimulusMIJA04_2IFCnew_2019_Jun_18_1440_414,True,2019_Jun_18_1440,2IFCnew,3,MIJA04,
2IFCnew,57,0,57,0,0.267204099975,2,Yes,4.9,-1,Correct Rejection,0.467262200022,False,True,stimulusMIJA04_2IFCnew_2019_Jun_18_1440_415,stimulusMIJA04_2IFCnew_2019_Jun_18_1440_416,True,2019_Jun_18_1440,2IFCnew,3,MIJA04,
2IFCnew,58,0,58,0,0.234557200049,1,No,11.5,-1,Hit,0.534816799976,True,False,stimulusMIJA04_2IFCnew_2019_Jun_18_1440_417,stimulusMIJA04_2IFCnew_2019_Jun_18_1440_418,True,2019_Jun_18_1440,2IFCnew,3,MIJA04,
2IFCnew,59,0,59,0,0.367288499954,5,Yes,1,-1,False Alarm,0.467262099963,False,True,stimulusMIJA04_2IFCnew_2019_Jun_18_1440_419,stimulusMIJA04_2IFCnew_2019_Jun_18_1440_420,True,2019_Jun_18_1440,2IFCnew,3,MIJA04,
2IFCnew,60,0,60,0,0.300525499973,4,Yes,1,-1,Miss,0.4674811,True,False,stimulusMIJA04_2IFCnew_2019_Jun_18_1440_421,stimulusMIJA04_2IFCnew_2019_Jun_18_1440_422,True,2019_Jun_18_1440,2IFCnew,3,MIJA04,
2IFCnew,61,0,61,0,0.333210299956,4,Yes,1.7,-1,Miss,0.567194600007,True,False,stimulusMIJA04_2IFCnew_2019_Jun_18_1440_423,stimulusMIJA04_2IFCnew_2019_Jun_18_1440_424,True,2019_Jun_18_1440,2IFCnew,3,MIJA04,
2IFCnew,62,0,62,0,0.20011450001,1,No,6.6,-1,Hit,0.465548700013,True,False,stimulusMIJA04_2IFCnew_2019_Jun_18_1440_425,stimulusMIJA04_2IFCnew_2019_Jun_18_1440_426,True,2019_Jun_18_1440,2IFCnew,3,MIJA04,
2IFCnew,63,0,63,0,0.266819300014,2,Yes,8,-1,Correct Rejection,0.367196900013,False,True,stimulusMIJA04_2IFCnew_2019_Jun_18_1440_427,stimulusMIJA04_2IFCnew_2019_Jun_18_1440_428,True,2019_Jun_18_1440,2IFCnew,3,MIJA04,
2IFCnew,64,0,64,0,0.300467399997,4,Yes,4.9,-1,Miss,0.434247100027,True,False,stimulusMIJA04_2IFCnew_2019_Jun_18_1440_429,stimulusMIJA04_2IFCnew_2019_Jun_18_1440_430,True,2019_Jun_18_1440,2IFCnew,3,MIJA04,
2IFCnew,65,0,65,0,0.201102200022,3,No,4.9,-1,False Alarm,0.401568499976,False,True,stimulusMIJA04_2IFCnew_2019_Jun_18_1440_431,stimulusMIJA04_2IFCnew_2019_Jun_18_1440_432,True,2019_Jun_18_1440,2IFCnew,3,MIJA04,
2IFCnew,66,0,66,0,0.267110500019,2,Yes,4.9,-1,Correct Rejection,0.600923100021,False,True,stimulusMIJA04_2IFCnew_2019_Jun_18_1440_433,stimulusMIJA04_2IFCnew_2019_Jun_18_1440_434,True,2019_Jun_18_1440,2IFCnew,3,MIJA04,
2IFCnew,67,0,67,0,0.133393299999,1,No,9.6,-1,Hit,0.401996899978,True,False,stimulusMIJA04_2IFCnew_2019_Jun_18_1440_435,stimulusMIJA04_2IFCnew_2019_Jun_18_1440_436,True,2019_Jun_18_1440,2IFCnew,3,MIJA04,
2IFCnew,68,0,68,0,0.166573400027,4,Yes,1,-1,Miss,0.499057200039,True,False,stimulusMIJA04_2IFCnew_2019_Jun_18_1440_437,stimulusMIJA04_2IFCnew_2019_Jun_18_1440_438,True,2019_Jun_18_1440,2IFCnew,3,MIJA04,
2IFCnew,69,0,69,0,0.200124000025,2,Yes,11.5,-1,Correct Rejection,0.534290599986,False,True,stimulusMIJA04_2IFCnew_2019_Jun_18_1440_439,stimulusMIJA04_2IFCnew_2019_Jun_18_1440_440,True,2019_Jun_18_1440,2IFCnew,3,MIJA04,
2IFCnew,70,0,70,0,0.166912999994,2,Yes,9.6,-1,Correct Rejection,0.433534500015,False,True,stimulusMIJA04_2IFCnew_2019_Jun_18_1440_441,stimulusMIJA04_2IFCnew_2019_Jun_18_1440_442,True,2019_Jun_18_1440,2IFCnew,3,MIJA04,
2IFCnew,71,0,71,0,0.533991099976,6,No,9.6,-1,Miss,0.468106799992,True,False,stimulusMIJA04_2IFCnew_2019_Jun_18_1440_443,stimulusMIJA04_2IFCnew_2019_Jun_18_1440_444,True,2019_Jun_18_1440,2IFCnew,3,MIJA04,
2IFCnew,72,0,72,0,0.234088499972,1,No,6.6,-1,Hit,0.434303000045,True,False,stimulusMIJA04_2IFCnew_2019_Jun_18_1440_445,stimulusMIJA04_2IFCnew_2019_Jun_18_1440_446,True,2019_Jun_18_1440,2IFCnew,3,MIJA04,
2IFCnew,73,0,73,0,0.197817399981,1,No,9.6,-1,Hit,0.46862400003,True,False,stimulusMIJA04_2IFCnew_2019_Jun_18_1440_447,stimulusMIJA04_2IFCnew_2019_Jun_18_1440_448,True,2019_Jun_18_1440,2IFCnew,3,MIJA04,
2IFCnew,74,0,74,0,0.3342023,2,Yes,3.3,-1,Correct Rejection,0.500121999998,False,True,stimulusMIJA04_2IFCnew_2019_Jun_18_1440_449,stimulusMIJA04_2IFCnew_2019_Jun_18_1440_450,True,2019_Jun_18_1440,2IFCnew,3,MIJA04,
2IFCnew,0,0,0,0,0.133699500002,2,Yes,1,-1,Correct Rejection,0.400425700005,False,True,stimulusMIJA04_2IFCnew_2019_Jun_18_1440_451,stimulusMIJA04_2IFCnew_2019_Jun_18_1440_452,True,2019_Jun_18_1440,2IFCnew,3,MIJA04,
2IFCnew,1,0,1,0,0.233499799971,3,No,6.6,-1,False Alarm,0.402555499983,False,True,stimulusMIJA04_2IFCnew_2019_Jun_18_1440_453,stimulusMIJA04_2IFCnew_2019_Jun_18_1440_454,True,2019_Jun_18_1440,2IFCnew,3,MIJA04,
2IFCnew,2,0,2,0,0.267016900005,2,Yes,9.6,-1,Correct Rejection,0.433676099987,False,True,stimulusMIJA04_2IFCnew_2019_Jun_18_1440_455,stimulusMIJA04_2IFCnew_2019_Jun_18_1440_456,True,2019_Jun_18_1440,2IFCnew,3,MIJA04,
2IFCnew,3,0,3,0,0.333879199985,5,Yes,6.6,-1,False Alarm,0.435712300008,False,True,stimulusMIJA04_2IFCnew_2019_Jun_18_1440_457,stimulusMIJA04_2IFCnew_2019_Jun_18_1440_458,True,2019_Jun_18_1440,2IFCnew,3,MIJA04,
2IFCnew,4,0,4,0,0.30053030001,1,No,6.6,-1,Hit,0.56886379997,True,False,stimulusMIJA04_2IFCnew_2019_Jun_18_1440_459,stimulusMIJA04_2IFCnew_2019_Jun_18_1440_460,True,2019_Jun_18_1440,2IFCnew,3,MIJA04,
2IFCnew,5,0,5,0,0.266111899982,4,Yes,1.7,-1,Miss,0.467273999995,True,False,stimulusMIJA04_2IFCnew_2019_Jun_18_1440_461,stimulusMIJA04_2IFCnew_2019_Jun_18_1440_462,True,2019_Jun_18_1440,2IFCnew,3,MIJA04,
2IFCnew,6,0,6,0,0.167061300017,1,No,1.7,-1,Hit,0.33448900003,True,False,stimulusMIJA04_2IFCnew_2019_Jun_18_1440_463,stimulusMIJA04_2IFCnew_2019_Jun_18_1440_464,True,2019_Jun_18_1440,2IFCnew,3,MIJA04,
2IFCnew,7,0,7,0,0.266791099973,3,No,1,-1,False Alarm,0.501304500038,False,True,stimulusMIJA04_2IFCnew_2019_Jun_18_1440_465,stimulusMIJA04_2IFCnew_2019_Jun_18_1440_466,True,2019_Jun_18_1440,2IFCnew,3,MIJA04,
2IFCnew,8,0,8,0,0.166912099987,3,No,9.6,-1,False Alarm,0.534027799964,False,True,stimulusMIJA04_2IFCnew_2019_Jun_18_1440_467,stimulusMIJA04_2IFCnew_2019_Jun_18_1440_468,True,2019_Jun_18_1440,2IFCnew,3,MIJA04,
2IFCnew,9,0,9,0,-1,4,No,9.6,-1,Miss,0.90119210002,True,False,stimulusMIJA04_2IFCnew_2019_Jun_18_1440_469,stimulusMIJA04_2IFCnew_2019_Jun_18_1440_470,True,2019_Jun_18_1440,2IFCnew,3,MIJA04,
2IFCnew,10,0,10,0,0.366537800001,2,Yes,1,-1,Correct Rejection,0.567120200023,False,True,stimulusMIJA04_2IFCnew_2019_Jun_18_1440_471,stimulusMIJA04_2IFCnew_2019_Jun_18_1440_472,True,2019_Jun_18_1440,2IFCnew,3,MIJA04,
2IFCnew,11,0,11,0,0.300462600018,3,No,4.9,-1,False Alarm,0.433352500026,False,True,stimulusMIJA04_2IFCnew_2019_Jun_18_1440_473,stimulusMIJA04_2IFCnew_2019_Jun_18_1440_474,True,2019_Jun_18_1440,2IFCnew,3,MIJA04,
2IFCnew,12,0,12,0,0.23350089998,2,Yes,4.9,-1,Correct Rejection,0.500583700021,False,True,stimulusMIJA04_2IFCnew_2019_Jun_18_1440_475,stimulusMIJA04_2IFCnew_2019_Jun_18_1440_476,True,2019_Jun_18_1440,2IFCnew,3,MIJA04,
2IFCnew,13,0,13,0,0.30044229998,1,No,6.6,-1,Hit,0.467391100014,True,False,stimulusMIJA04_2IFCnew_2019_Jun_18_1440_477,stimulusMIJA04_2IFCnew_2019_Jun_18_1440_478,True,2019_Jun_18_1440,2IFCnew,3,MIJA04,
2IFCnew,14,0,14,0,0.400539800001,6,No,3.3,-1,Miss,0.500557499996,True,False,stimulusMIJA04_2IFCnew_2019_Jun_18_1440_479,stimulusMIJA04_2IFCnew_2019_Jun_18_1440_480,True,2019_Jun_18_1440,2IFCnew,3,MIJA04,
2IFCnew,15,0,15,0,0.234232800023,2,Yes,6.6,-1,Correct Rejection,0.468347300019,False,True,stimulusMIJA04_2IFCnew_2019_Jun_18_1440_481,stimulusMIJA04_2IFCnew_2019_Jun_18_1440_482,True,2019_Jun_18_1440,2IFCnew,3,MIJA04,
2IFCnew,16,0,16,0,0.367073100002,2,Yes,1.7,-1,Correct Rejection,0.534079000005,False,True,stimulusMIJA04_2IFCnew_2019_Jun_18_1440_483,stimulusMIJA04_2IFCnew_2019_Jun_18_1440_484,True,2019_Jun_18_1440,2IFCnew,3,MIJA04,
2IFCnew,17,0,17,0,0.399979799986,5,Yes,4.9,-1,False Alarm,0.501296099974,False,True,stimulusMIJA04_2IFCnew_2019_Jun_18_1440_485,stimulusMIJA04_2IFCnew_2019_Jun_18_1440_486,True,2019_Jun_18_1440,2IFCnew,3,MIJA04,
2IFCnew,18,0,18,0,0.333437499998,2,Yes,8,-1,Correct Rejection,0.434900099994,False,True,stimulusMIJA04_2IFCnew_2019_Jun_18_1440_487,stimulusMIJA04_2IFCnew_2019_Jun_18_1440_488,True,2019_Jun_18_1440,2IFCnew,3,MIJA04,
2IFCnew,19,0,19,0,0.200287499989,2,Yes,9.6,-1,Correct Rejection,0.434563099989,False,True,stimulusMIJA04_2IFCnew_2019_Jun_18_1440_489,stimulusMIJA04_2IFCnew_2019_Jun_18_1440_490,True,2019_Jun_18_1440,2IFCnew,3,MIJA04,
2IFCnew,20,0,20,0,0.33386850002,6,No,3.3,-1,Miss,0.502317700011,True,False,stimulusMIJA04_2IFCnew_2019_Jun_18_1440_491,stimulusMIJA04_2IFCnew_2019_Jun_18_1440_492,True,2019_Jun_18_1440,2IFCnew,3,MIJA04,
2IFCnew,21,0,21,0,0.233976399992,2,Yes,1.7,-1,Correct Rejection,0.400478900003,False,True,stimulusMIJA04_2IFCnew_2019_Jun_18_1440_493,stimulusMIJA04_2IFCnew_2019_Jun_18_1440_494,True,2019_Jun_18_1440,2IFCnew,3,MIJA04,
2IFCnew,22,0,22,0,0.367575299984,1,No,3.3,-1,Hit,0.467212999996,True,False,stimulusMIJA04_2IFCnew_2019_Jun_18_1440_495,stimulusMIJA04_2IFCnew_2019_Jun_18_1440_496,True,2019_Jun_18_1440,2IFCnew,3,MIJA04,
2IFCnew,23,0,23,0,0.333534300036,2,Yes,6.6,-1,Correct Rejection,0.633701799961,False,True,stimulusMIJA04_2IFCnew_2019_Jun_18_1440_497,stimulusMIJA04_2IFCnew_2019_Jun_18_1440_498,True,2019_Jun_18_1440,2IFCnew,3,MIJA04,
2IFCnew,24,0,24,0,0.200406700023,2,Yes,3.3,-1,Correct Rejection,0.432229999977,False,True,stimulusMIJA04_2IFCnew_2019_Jun_18_1440_499,stimulusMIJA04_2IFCnew_2019_Jun_18_1440_500,True,2019_Jun_18_1440,2IFCnew,3,MIJA04,
2IFCnew,25,0,25,0,0.434053300007,6,No,1.7,-1,Miss,0.467854699993,True,False,stimulusMIJA04_2IFCnew_2019_Jun_18_1440_501,stimulusMIJA04_2IFCnew_2019_Jun_18_1440_502,True,2019_Jun_18_1440,2IFCnew,3,MIJA04,
2IFCnew,26,0,26,0,0.333936600015,3,No,1.7,-1,False Alarm,0.600144699973,False,True,stimulusMIJA04_2IFCnew_2019_Jun_18_1440_503,stimulusMIJA04_2IFCnew_2019_Jun_18_1440_504,True,2019_Jun_18_1440,2IFCnew,3,MIJA04,
2IFCnew,27,0,27,0,0.100097100018,2,Yes,11.5,-1,Correct Rejection,0.333920100005,False,True,stimulusMIJA04_2IFCnew_2019_Jun_18_1440_505,stimulusMIJA04_2IFCnew_2019_Jun_18_1440_506,True,2019_Jun_18_1440,2IFCnew,3,MIJA04,
2IFCnew,28,0,28,0,0.233462199976,6,No,3.3,-1,Miss,0.500351000053,True,False,stimulusMIJA04_2IFCnew_2019_Jun_18_1440_507,stimulusMIJA04_2IFCnew_2019_Jun_18_1440_508,True,2019_Jun_18_1440,2IFCnew,3,MIJA04,
2IFCnew,29,0,29,0,0.36706280004,5,Yes,6.6,-1,False Alarm,0.500739299983,False,True,stimulusMIJA04_2IFCnew_2019_Jun_18_1440_509,stimulusMIJA04_2IFCnew_2019_Jun_18_1440_510,True,2019_Jun_18_1440,2IFCnew,3,MIJA04,
2IFCnew,30,0,30,0,0.265570599993,2,Yes,1,-1,Correct Rejection,0.433288900007,False,True,stimulusMIJA04_2IFCnew_2019_Jun_18_1440_511,stimulusMIJA04_2IFCnew_2019_Jun_18_1440_512,True,2019_Jun_18_1440,2IFCnew,3,MIJA04,
2IFCnew,31,0,31,0,0.267207800003,1,No,1.7,-1,Hit,0.467071200022,True,False,stimulusMIJA04_2IFCnew_2019_Jun_18_1440_513,stimulusMIJA04_2IFCnew_2019_Jun_18_1440_514,True,2019_Jun_18_1440,2IFCnew,3,MIJA04,
2IFCnew,32,0,32,0,0.233789499965,1,No,9.6,-1,Hit,0.434460000019,True,False,stimulusMIJA04_2IFCnew_2019_Jun_18_1440_515,stimulusMIJA04_2IFCnew_2019_Jun_18_1440_516,True,2019_Jun_18_1440,2IFCnew,3,MIJA04,
2IFCnew,33,0,33,0,0.269242600014,2,Yes,1,-1,Correct Rejection,0.435196400038,False,True,stimulusMIJA04_2IFCnew_2019_Jun_18_1440_517,stimulusMIJA04_2IFCnew_2019_Jun_18_1440_518,True,2019_Jun_18_1440,2IFCnew,3,MIJA04,
2IFCnew,34,0,34,0,0.267024900008,2,Yes,3.3,-1,Correct Rejection,0.500704000005,False,True,stimulusMIJA04_2IFCnew_2019_Jun_18_1440_519,stimulusMIJA04_2IFCnew_2019_Jun_18_1440_520,True,2019_Jun_18_1440,2IFCnew,3,MIJA04,
2IFCnew,35,0,35,0,0.267255400016,1,No,6.6,-1,Hit,0.466519400012,True,False,stimulusMIJA04_2IFCnew_2019_Jun_18_1440_521,stimulusMIJA04_2IFCnew_2019_Jun_18_1440_522,True,2019_Jun_18_1440,2IFCnew,3,MIJA04,
2IFCnew,36,0,36,0,0.167058100051,2,Yes,3.3,-1,Correct Rejection,0.432838900015,False,True,stimulusMIJA04_2IFCnew_2019_Jun_18_1440_523,stimulusMIJA04_2IFCnew_2019_Jun_18_1440_524,True,2019_Jun_18_1440,2IFCnew,3,MIJA04,
2IFCnew,37,0,37,0,0.233218500041,3,No,1.7,-1,False Alarm,0.469592999958,False,True,stimulusMIJA04_2IFCnew_2019_Jun_18_1440_525,stimulusMIJA04_2IFCnew_2019_Jun_18_1440_526,True,2019_Jun_18_1440,2IFCnew,3,MIJA04,
2IFCnew,38,0,38,0,0.1669674,3,No,8,-1,False Alarm,0.500536900014,False,True,stimulusMIJA04_2IFCnew_2019_Jun_18_1440_527,stimulusMIJA04_2IFCnew_2019_Jun_18_1440_528,True,2019_Jun_18_1440,2IFCnew,3,MIJA04,
2IFCnew,39,0,39,0,0.133375999983,1,No,11.5,-1,Hit,0.567682399997,True,False,stimulusMIJA04_2IFCnew_2019_Jun_18_1440_529,stimulusMIJA04_2IFCnew_2019_Jun_18_1440_530,True,2019_Jun_18_1440,2IFCnew,3,MIJA04,
2IFCnew,40,0,40,0,0.233834800019,1,No,6.6,-1,Hit,0.632938900031,True,False,stimulusMIJA04_2IFCnew_2019_Jun_18_1440_531,stimulusMIJA04_2IFCnew_2019_Jun_18_1440_532,True,2019_Jun_18_1440,2IFCnew,3,MIJA04,
2IFCnew,41,0,41,0,0.267050199967,1,No,6.6,-1,Hit,0.600792000012,True,False,stimulusMIJA04_2IFCnew_2019_Jun_18_1440_533,stimulusMIJA04_2IFCnew_2019_Jun_18_1440_534,True,2019_Jun_18_1440,2IFCnew,3,MIJA04,
2IFCnew,42,0,42,0,0.233755499998,2,Yes,11.5,-1,Correct Rejection,0.499869599997,False,True,stimulusMIJA04_2IFCnew_2019_Jun_18_1440_535,stimulusMIJA04_2IFCnew_2019_Jun_18_1440_536,True,2019_Jun_18_1440,2IFCnew,3,MIJA04,
2IFCnew,43,0,43,0,0.266992499994,2,Yes,9.6,-1,Correct Rejection,0.534024499997,False,True,stimulusMIJA04_2IFCnew_2019_Jun_18_1440_537,stimulusMIJA04_2IFCnew_2019_Jun_18_1440_538,True,2019_Jun_18_1440,2IFCnew,3,MIJA04,
2IFCnew,44,0,44,0,0.268337699992,2,Yes,4.9,-1,Correct Rejection,0.567738100013,False,True,stimulusMIJA04_2IFCnew_2019_Jun_18_1440_539,stimulusMIJA04_2IFCnew_2019_Jun_18_1440_540,True,2019_Jun_18_1440,2IFCnew,3,MIJA04,
2IFCnew,45,0,45,0,0.199170099979,2,Yes,1,-1,Correct Rejection,0.500154800015,False,True,stimulusMIJA04_2IFCnew_2019_Jun_18_1440_541,stimulusMIJA04_2IFCnew_2019_Jun_18_1440_542,True,2019_Jun_18_1440,2IFCnew,3,MIJA04,
2IFCnew,46,0,46,0,0.498295199999,7,Yes,6.6,-1,Hit,0.500995200011,True,False,stimulusMIJA04_2IFCnew_2019_Jun_18_1440_543,stimulusMIJA04_2IFCnew_2019_Jun_18_1440_544,True,2019_Jun_18_1440,2IFCnew,3,MIJA04,
2IFCnew,47,0,47,0,0.266994900012,2,Yes,1,-1,Correct Rejection,0.466749899962,False,True,stimulusMIJA04_2IFCnew_2019_Jun_18_1440_545,stimulusMIJA04_2IFCnew_2019_Jun_18_1440_546,True,2019_Jun_18_1440,2IFCnew,3,MIJA04,
2IFCnew,48,0,48,0,0.367016200034,5,Yes,3.3,-1,False Alarm,0.533918600006,False,True,stimulusMIJA04_2IFCnew_2019_Jun_18_1440_547,stimulusMIJA04_2IFCnew_2019_Jun_18_1440_548,True,2019_Jun_18_1440,2IFCnew,3,MIJA04,
2IFCnew,49,0,49,0,0.23294950003,2,Yes,1,-1,Correct Rejection,0.400756399962,False,True,stimulusMIJA04_2IFCnew_2019_Jun_18_1440_549,stimulusMIJA04_2IFCnew_2019_Jun_18_1440_550,True,2019_Jun_18_1440,2IFCnew,3,MIJA04,
2IFCnew,50,0,50,0,0.132991599967,1,No,3.3,-1,Hit,0.40165809996,True,False,stimulusMIJA04_2IFCnew_2019_Jun_18_1440_551,stimulusMIJA04_2IFCnew_2019_Jun_18_1440_552,True,2019_Jun_18_1440,2IFCnew,3,MIJA04,
2IFCnew,51,0,51,0,0.233932100004,1,No,8,-1,Hit,0.500454200024,True,False,stimulusMIJA04_2IFCnew_2019_Jun_18_1440_553,stimulusMIJA04_2IFCnew_2019_Jun_18_1440_554,True,2019_Jun_18_1440,2IFCnew,3,MIJA04,
2IFCnew,52,0,52,0,0.23274440004,5,Yes,8,-1,False Alarm,0.466545599978,False,True,stimulusMIJA04_2IFCnew_2019_Jun_18_1440_555,stimulusMIJA04_2IFCnew_2019_Jun_18_1440_556,True,2019_Jun_18_1440,2IFCnew,3,MIJA04,
2IFCnew,53,0,53,0,0.301101199992,1,No,6.6,-1,Hit,0.467269200017,True,False,stimulusMIJA04_2IFCnew_2019_Jun_18_1440_557,stimulusMIJA04_2IFCnew_2019_Jun_18_1440_558,True,2019_Jun_18_1440,2IFCnew,3,MIJA04,
2IFCnew,54,0,54,0,0.200738200045,3,No,8,-1,False Alarm,0.533582200005,False,True,stimulusMIJA04_2IFCnew_2019_Jun_18_1440_559,stimulusMIJA04_2IFCnew_2019_Jun_18_1440_560,True,2019_Jun_18_1440,2IFCnew,3,MIJA04,
2IFCnew,55,0,55,0,0.434183799953,1,No,4.9,-1,Hit,0.534817600041,True,False,stimulusMIJA04_2IFCnew_2019_Jun_18_1440_561,stimulusMIJA04_2IFCnew_2019_Jun_18_1440_562,True,2019_Jun_18_1440,2IFCnew,3,MIJA04,
2IFCnew,56,0,56,0,0.233862299996,2,Yes,9.6,-1,Correct Rejection,0.400394199998,False,True,stimulusMIJA04_2IFCnew_2019_Jun_18_1440_563,stimulusMIJA04_2IFCnew_2019_Jun_18_1440_564,True,2019_Jun_18_1440,2IFCnew,3,MIJA04,
2IFCnew,57,0,57,0,0.335351899965,2,Yes,4.9,-1,Correct Rejection,0.533626499993,False,True,stimulusMIJA04_2IFCnew_2019_Jun_18_1440_565,stimulusMIJA04_2IFCnew_2019_Jun_18_1440_566,True,2019_Jun_18_1440,2IFCnew,3,MIJA04,
2IFCnew,58,0,58,0,0.235335700039,2,Yes,1,-1,Correct Rejection,0.49916409998,False,True,stimulusMIJA04_2IFCnew_2019_Jun_18_1440_567,stimulusMIJA04_2IFCnew_2019_Jun_18_1440_568,True,2019_Jun_18_1440,2IFCnew,3,MIJA04,
2IFCnew,59,0,59,0,0.267837700027,2,Yes,1,-1,Correct Rejection,0.433262999984,False,True,stimulusMIJA04_2IFCnew_2019_Jun_18_1440_569,stimulusMIJA04_2IFCnew_2019_Jun_18_1440_570,True,2019_Jun_18_1440,2IFCnew,3,MIJA04,
2IFCnew,60,0,60,0,0.400155899988,8,No,1,-1,Correct Rejection,0.600040799996,False,True,stimulusMIJA04_2IFCnew_2019_Jun_18_1440_571,stimulusMIJA04_2IFCnew_2019_Jun_18_1440_572,True,2019_Jun_18_1440,2IFCnew,3,MIJA04,
2IFCnew,61,0,61,0,0.501046799996,7,Yes,3.3,-1,Hit,0.535470300005,True,False,stimulusMIJA04_2IFCnew_2019_Jun_18_1440_573,stimulusMIJA04_2IFCnew_2019_Jun_18_1440_574,True,2019_Jun_18_1440,2IFCnew,3,MIJA04,
2IFCnew,62,0,62,0,0.467221899948,6,No,8,-1,Miss,0.56767020002,True,False,stimulusMIJA04_2IFCnew_2019_Jun_18_1440_575,stimulusMIJA04_2IFCnew_2019_Jun_18_1440_576,True,2019_Jun_18_1440,2IFCnew,3,MIJA04,
2IFCnew,63,0,63,0,0.231550300028,4,Yes,1.7,-1,Miss,0.467735400016,True,False,stimulusMIJA04_2IFCnew_2019_Jun_18_1440_577,stimulusMIJA04_2IFCnew_2019_Jun_18_1440_578,True,2019_Jun_18_1440,2IFCnew,3,MIJA04,
2IFCnew,64,0,64,0,0.234157100029,1,No,11.5,-1,Hit,0.467280399986,True,False,stimulusMIJA04_2IFCnew_2019_Jun_18_1440_579,stimulusMIJA04_2IFCnew_2019_Jun_18_1440_580,True,2019_Jun_18_1440,2IFCnew,3,MIJA04,
2IFCnew,65,0,65,0,0.397802199994,2,Yes,1.7,-1,Correct Rejection,0.465672099963,False,True,stimulusMIJA04_2IFCnew_2019_Jun_18_1440_581,stimulusMIJA04_2IFCnew_2019_Jun_18_1440_582,True,2019_Jun_18_1440,2IFCnew,3,MIJA04,
2IFCnew,66,0,66,0,0.266993800004,1,No,11.5,-1,Hit,0.467374500004,True,False,stimulusMIJA04_2IFCnew_2019_Jun_18_1440_583,stimulusMIJA04_2IFCnew_2019_Jun_18_1440_584,True,2019_Jun_18_1440,2IFCnew,3,MIJA04,
2IFCnew,67,0,67,0,0.267501300026,4,Yes,1,-1,Miss,0.467201800027,True,False,stimulusMIJA04_2IFCnew_2019_Jun_18_1440_585,stimulusMIJA04_2IFCnew_2019_Jun_18_1440_586,True,2019_Jun_18_1440,2IFCnew,3,MIJA04,
2IFCnew,68,0,68,0,0.200118699984,2,Yes,9.6,-1,Correct Rejection,0.498860799999,False,True,stimulusMIJA04_2IFCnew_2019_Jun_18_1440_587,stimulusMIJA04_2IFCnew_2019_Jun_18_1440_588,True,2019_Jun_18_1440,2IFCnew,3,MIJA04,
2IFCnew,69,0,69,0,0.233668799978,1,No,9.6,-1,Hit,0.53383010003,True,False,stimulusMIJA04_2IFCnew_2019_Jun_18_1440_589,stimulusMIJA04_2IFCnew_2019_Jun_18_1440_590,True,2019_Jun_18_1440,2IFCnew,3,MIJA04,
2IFCnew,70,0,70,0,0.233899100043,2,Yes,11.5,-1,Correct Rejection,0.500606899965,False,True,stimulusMIJA04_2IFCnew_2019_Jun_18_1440_591,stimulusMIJA04_2IFCnew_2019_Jun_18_1440_592,True,2019_Jun_18_1440,2IFCnew,3,MIJA04,
2IFCnew,71,0,71,0,0.367070899985,2,Yes,4.9,-1,Correct Rejection,0.432821900002,False,True,stimulusMIJA04_2IFCnew_2019_Jun_18_1440_593,stimulusMIJA04_2IFCnew_2019_Jun_18_1440_594,True,2019_Jun_18_1440,2IFCnew,3,MIJA04,
2IFCnew,72,0,72,0,0.233882799977,3,No,9.6,-1,False Alarm,0.366878100031,False,True,stimulusMIJA04_2IFCnew_2019_Jun_18_1440_595,stimulusMIJA04_2IFCnew_2019_Jun_18_1440_596,True,2019_Jun_18_1440,2IFCnew,3,MIJA04,
2IFCnew,73,0,73,0,0.200280399993,6,No,6.6,-1,Miss,0.468059799983,True,False,stimulusMIJA04_2IFCnew_2019_Jun_18_1440_597,stimulusMIJA04_2IFCnew_2019_Jun_18_1440_598,True,2019_Jun_18_1440,2IFCnew,3,MIJA04,
2IFCnew,74,0,74,0,0.20034640003,1,No,9.6,-1,Hit,0.467203499982,True,False,stimulusMIJA04_2IFCnew_2019_Jun_18_1440_599,stimulusMIJA04_2IFCnew_2019_Jun_18_1440_600,True,2019_Jun_18_1440,2IFCnew,3,MIJA04,
2IFCnew,0,0,0,0,0.367117899994,4,Yes,1.7,-1,Miss,0.66709490004,True,False,stimulusMIJA04_2IFCnew_2019_Jun_18_1440_601,stimulusMIJA04_2IFCnew_2019_Jun_18_1440_602,True,2019_Jun_18_1440,2IFCnew,3,MIJA04,
2IFCnew,1,0,1,0,0.233443599951,5,Yes,9.6,-1,False Alarm,0.400079500047,False,True,stimulusMIJA04_2IFCnew_2019_Jun_18_1440_603,stimulusMIJA04_2IFCnew_2019_Jun_18_1440_604,True,2019_Jun_18_1440,2IFCnew,3,MIJA04,
2IFCnew,2,0,2,0,0.266929300036,2,Yes,9.6,-1,Correct Rejection,0.367234300007,False,True,stimulusMIJA04_2IFCnew_2019_Jun_18_1440_605,stimulusMIJA04_2IFCnew_2019_Jun_18_1440_606,True,2019_Jun_18_1440,2IFCnew,3,MIJA04,
2IFCnew,3,0,3,0,0.500783100026,6,No,4.9,-1,Miss,0.533964900009,True,False,stimulusMIJA04_2IFCnew_2019_Jun_18_1440_607,stimulusMIJA04_2IFCnew_2019_Jun_18_1440_608,True,2019_Jun_18_1440,2IFCnew,3,MIJA04,
2IFCnew,4,0,4,0,0.167234099994,1,No,8,-1,Hit,0.43395060004,True,False,stimulusMIJA04_2IFCnew_2019_Jun_18_1440_609,stimulusMIJA04_2IFCnew_2019_Jun_18_1440_610,True,2019_Jun_18_1440,2IFCnew,3,MIJA04,
2IFCnew,5,0,5,0,0.1330724,4,Yes,4.9,-1,Miss,0.400611200021,True,False,stimulusMIJA04_2IFCnew_2019_Jun_18_1440_611,stimulusMIJA04_2IFCnew_2019_Jun_18_1440_612,True,2019_Jun_18_1440,2IFCnew,3,MIJA04,
2IFCnew,6,0,6,0,0.167193799978,1,No,3.3,-1,Hit,0.333263700013,True,False,stimulusMIJA04_2IFCnew_2019_Jun_18_1440_613,stimulusMIJA04_2IFCnew_2019_Jun_18_1440_614,True,2019_Jun_18_1440,2IFCnew,3,MIJA04,
2IFCnew,7,0,7,0,0.167130600021,1,No,11.5,-1,Hit,0.367418600013,True,False,stimulusMIJA04_2IFCnew_2019_Jun_18_1440_615,stimulusMIJA04_2IFCnew_2019_Jun_18_1440_616,True,2019_Jun_18_1440,2IFCnew,3,MIJA04,
2IFCnew,8,0,8,0,0.167758500029,3,No,9.6,-1,False Alarm,0.434234200045,False,True,stimulusMIJA04_2IFCnew_2019_Jun_18_1440_617,stimulusMIJA04_2IFCnew_2019_Jun_18_1440_618,True,2019_Jun_18_1440,2IFCnew,3,MIJA04,
2IFCnew,9,0,9,0,0.166957499983,2,Yes,6.6,-1,Correct Rejection,0.433438499982,False,True,stimulusMIJA04_2IFCnew_2019_Jun_18_1440_619,stimulusMIJA04_2IFCnew_2019_Jun_18_1440_620,True,2019_Jun_18_1440,2IFCnew,3,MIJA04,
2IFCnew,10,0,10,0,0.200219699997,2,Yes,4.9,-1,Correct Rejection,0.466605199967,False,True,stimulusMIJA04_2IFCnew_2019_Jun_18_1440_621,stimulusMIJA04_2IFCnew_2019_Jun_18_1440_622,True,2019_Jun_18_1440,2IFCnew,3,MIJA04,
2IFCnew,11,0,11,0,0.199966499989,2,Yes,4.9,-1,Correct Rejection,0.500939299993,False,True,stimulusMIJA04_2IFCnew_2019_Jun_18_1440_623,stimulusMIJA04_2IFCnew_2019_Jun_18_1440_624,True,2019_Jun_18_1440,2IFCnew,3,MIJA04,
2IFCnew,12,0,12,0,0.166859600053,1,No,11.5,-1,Hit,0.467235599994,True,False,stimulusMIJA04_2IFCnew_2019_Jun_18_1440_625,stimulusMIJA04_2IFCnew_2019_Jun_18_1440_626,True,2019_Jun_18_1440,2IFCnew,3,MIJA04,
2IFCnew,13,0,13,0,0.133631600009,2,Yes,4.9,-1,Correct Rejection,0.401961600001,False,True,stimulusMIJA04_2IFCnew_2019_Jun_18_1440_627,stimulusMIJA04_2IFCnew_2019_Jun_18_1440_628,True,2019_Jun_18_1440,2IFCnew,3,MIJA04,
2IFCnew,14,0,14,0,0.200278899982,3,No,8,-1,False Alarm,0.467242099985,False,True,stimulusMIJA04_2IFCnew_2019_Jun_18_1440_629,stimulusMIJA04_2IFCnew_2019_Jun_18_1440_630,True,2019_Jun_18_1440,2IFCnew,3,MIJA04,
2IFCnew,15,0,15,0,0.167076100013,6,No,4.9,-1,Miss,0.500115600007,True,False,stimulusMIJA04_2IFCnew_2019_Jun_18_1440_631,stimulusMIJA04_2IFCnew_2019_Jun_18_1440_632,True,2019_Jun_18_1440,2IFCnew,3,MIJA04,
2IFCnew,16,0,16,0,0.400716900011,5,Yes,6.6,-1,False Alarm,0.400645599992,False,True,stimulusMIJA04_2IFCnew_2019_Jun_18_1440_633,stimulusMIJA04_2IFCnew_2019_Jun_18_1440_634,True,2019_Jun_18_1440,2IFCnew,3,MIJA04,
2IFCnew,17,0,17,0,0.234581299999,1,No,8,-1,Hit,0.500475800014,True,False,stimulusMIJA04_2IFCnew_2019_Jun_18_1440_635,stimulusMIJA04_2IFCnew_2019_Jun_18_1440_636,True,2019_Jun_18_1440,2IFCnew,3,MIJA04,
2IFCnew,18,0,18,0,0.30044620001,2,Yes,1.7,-1,Correct Rejection,0.533572999993,False,True,stimulusMIJA04_2IFCnew_2019_Jun_18_1440_637,stimulusMIJA04_2IFCnew_2019_Jun_18_1440_638,True,2019_Jun_18_1440,2IFCnew,3,MIJA04,
2IFCnew,19,0,19,0,0.333617000026,1,No,3.3,-1,Hit,0.567146699992,True,False,stimulusMIJA04_2IFCnew_2019_Jun_18_1440_639,stimulusMIJA04_2IFCnew_2019_Jun_18_1440_640,True,2019_Jun_18_1440,2IFCnew,3,MIJA04,
2IFCnew,20,0,20,0,0.26873099996,2,Yes,1.7,-1,Correct Rejection,0.499360800022,False,True,stimulusMIJA04_2IFCnew_2019_Jun_18_1440_641,stimulusMIJA04_2IFCnew_2019_Jun_18_1440_642,True,2019_Jun_18_1440,2IFCnew,3,MIJA04,
2IFCnew,21,0,21,0,0.30120669998,1,No,4.9,-1,Hit,0.567547100014,True,False,stimulusMIJA04_2IFCnew_2019_Jun_18_1440_643,stimulusMIJA04_2IFCnew_2019_Jun_18_1440_644,True,2019_Jun_18_1440,2IFCnew,3,MIJA04,
2IFCnew,22,0,22,0,0.567954799975,5,Yes,6.6,-1,False Alarm,0.465893000015,False,True,stimulusMIJA04_2IFCnew_2019_Jun_18_1440_645,stimulusMIJA04_2IFCnew_2019_Jun_18_1440_646,True,2019_Jun_18_1440,2IFCnew,3,MIJA04,
2IFCnew,23,0,23,0,0.3338353,4,Yes,4.9,-1,Miss,0.467312399996,True,False,stimulusMIJA04_2IFCnew_2019_Jun_18_1440_647,stimulusMIJA04_2IFCnew_2019_Jun_18_1440_648,True,2019_Jun_18_1440,2IFCnew,3,MIJA04,
2IFCnew,24,0,24,0,0.368230099964,1,No,11.5,-1,Hit,0.367636199982,True,False,stimulusMIJA04_2IFCnew_2019_Jun_18_1440_649,stimulusMIJA04_2IFCnew_2019_Jun_18_1440_650,True,2019_Jun_18_1440,2IFCnew,3,MIJA04,
2IFCnew,25,0,25,0,0.266352699953,2,Yes,11.5,-1,Correct Rejection,0.43367519998,False,True,stimulusMIJA04_2IFCnew_2019_Jun_18_1440_651,stimulusMIJA04_2IFCnew_2019_Jun_18_1440_652,True,2019_Jun_18_1440,2IFCnew,3,MIJA04,
2IFCnew,26,0,26,0,0.267584200017,1,No,8,-1,Hit,0.4671447,True,False,stimulusMIJA04_2IFCnew_2019_Jun_18_1440_653,stimulusMIJA04_2IFCnew_2019_Jun_18_1440_654,True,2019_Jun_18_1440,2IFCnew,3,MIJA04,
2IFCnew,27,0,27,0,0.633253799984,8,No,1.7,-1,Correct Rejection,0.668555899989,False,True,stimulusMIJA04_2IFCnew_2019_Jun_18_1440_655,stimulusMIJA04_2IFCnew_2019_Jun_18_1440_656,True,2019_Jun_18_1440,2IFCnew,3,MIJA04,
2IFCnew,28,0,28,0,0.300869200029,1,No,1.7,-1,Hit,0.468249500031,True,False,stimulusMIJA04_2IFCnew_2019_Jun_18_1440_657,stimulusMIJA04_2IFCnew_2019_Jun_18_1440_658,True,2019_Jun_18_1440,2IFCnew,3,MIJA04,
2IFCnew,29,0,29,0,0.300252699992,4,Yes,6.6,-1,Miss,0.50049950002,True,False,stimulusMIJA04_2IFCnew_2019_Jun_18_1440_659,stimulusMIJA04_2IFCnew_2019_Jun_18_1440_660,True,2019_Jun_18_1440,2IFCnew,3,MIJA04,
2IFCnew,30,0,30,0,0.534433199966,3,No,1.7,-1,False Alarm,0.500522999966,False,True,stimulusMIJA04_2IFCnew_2019_Jun_18_1440_661,stimulusMIJA04_2IFCnew_2019_Jun_18_1440_662,True,2019_Jun_18_1440,2IFCnew,3,MIJA04,
2IFCnew,31,0,31,0,0.100300299993,4,Yes,1,-1,Miss,0.366601699963,True,False,stimulusMIJA04_2IFCnew_2019_Jun_18_1440_663,stimulusMIJA04_2IFCnew_2019_Jun_18_1440_664,True,2019_Jun_18_1440,2IFCnew,3,MIJA04,
2IFCnew,32,0,32,0,0.233987100015,3,No,4.9,-1,False Alarm,0.435437200009,False,True,stimulusMIJA04_2IFCnew_2019_Jun_18_1440_665,stimulusMIJA04_2IFCnew_2019_Jun_18_1440_666,True,2019_Jun_18_1440,2IFCnew,3,MIJA04,
2IFCnew,33,0,33,0,0.200368400023,1,No,9.6,-1,Hit,0.533687599993,True,False,stimulusMIJA04_2IFCnew_2019_Jun_18_1440_667,stimulusMIJA04_2IFCnew_2019_Jun_18_1440_668,True,2019_Jun_18_1440,2IFCnew,3,MIJA04,
2IFCnew,34,0,34,0,0.268109500001,2,Yes,8,-1,Correct Rejection,0.366867799952,False,True,stimulusMIJA04_2IFCnew_2019_Jun_18_1440_669,stimulusMIJA04_2IFCnew_2019_Jun_18_1440_670,True,2019_Jun_18_1440,2IFCnew,3,MIJA04,
2IFCnew,35,0,35,0,0.400332399993,1,No,1,-1,Hit,0.467443200003,True,False,stimulusMIJA04_2IFCnew_2019_Jun_18_1440_671,stimulusMIJA04_2IFCnew_2019_Jun_18_1440_672,True,2019_Jun_18_1440,2IFCnew,3,MIJA04,
2IFCnew,36,0,36,0,0.233601999993,3,No,1,-1,False Alarm,0.400695000018,False,True,stimulusMIJA04_2IFCnew_2019_Jun_18_1440_673,stimulusMIJA04_2IFCnew_2019_Jun_18_1440_674,True,2019_Jun_18_1440,2IFCnew,3,MIJA04,
2IFCnew,37,0,37,0,0.300338400004,2,Yes,8,-1,Correct Rejection,0.500641499995,False,True,stimulusMIJA04_2IFCnew_2019_Jun_18_1440_675,stimulusMIJA04_2IFCnew_2019_Jun_18_1440_676,True,2019_Jun_18_1440,2IFCnew,3,MIJA04,
2IFCnew,38,0,38,0,0.333225700015,2,Yes,9.6,-1,Correct Rejection,0.433683199983,False,True,stimulusMIJA04_2IFCnew_2019_Jun_18_1440_677,stimulusMIJA04_2IFCnew_2019_Jun_18_1440_678,True,2019_Jun_18_1440,2IFCnew,3,MIJA04,
2IFCnew,39,0,39,0,0.367275200028,1,No,8,-1,Hit,0.533666300005,True,False,stimulusMIJA04_2IFCnew_2019_Jun_18_1440_679,stimulusMIJA04_2IFCnew_2019_Jun_18_1440_680,True,2019_Jun_18_1440,2IFCnew,3,MIJA04,
2IFCnew,40,0,40,0,0.301137000031,2,Yes,4.9,-1,Correct Rejection,0.467217100027,False,True,stimulusMIJA04_2IFCnew_2019_Jun_18_1440_681,stimulusMIJA04_2IFCnew_2019_Jun_18_1440_682,True,2019_Jun_18_1440,2IFCnew,3,MIJA04,
2IFCnew,41,0,41,0,0.168460000015,3,No,8,-1,False Alarm,0.400097900012,False,True,stimulusMIJA04_2IFCnew_2019_Jun_18_1440_683,stimulusMIJA04_2IFCnew_2019_Jun_18_1440_684,True,2019_Jun_18_1440,2IFCnew,3,MIJA04,
2IFCnew,42,0,42,0,0.33384060004,1,No,11.5,-1,Hit,0.467462199973,True,False,stimulusMIJA04_2IFCnew_2019_Jun_18_1440_685,stimulusMIJA04_2IFCnew_2019_Jun_18_1440_686,True,2019_Jun_18_1440,2IFCnew,3,MIJA04,
2IFCnew,43,0,43,0,0.267194200016,1,No,4.9,-1,Hit,0.5007339,True,False,stimulusMIJA04_2IFCnew_2019_Jun_18_1440_687,stimulusMIJA04_2IFCnew_2019_Jun_18_1440_688,True,2019_Jun_18_1440,2IFCnew,3,MIJA04,
2IFCnew,44,0,44,0,0.233790100028,1,No,8,-1,Hit,0.401007799956,True,False,stimulusMIJA04_2IFCnew_2019_Jun_18_1440_689,stimulusMIJA04_2IFCnew_2019_Jun_18_1440_690,True,2019_Jun_18_1440,2IFCnew,3,MIJA04,
2IFCnew,45,0,45,0,0.300482499995,7,Yes,1,-1,Hit,0.433823700005,True,False,stimulusMIJA04_2IFCnew_2019_Jun_18_1440_691,stimulusMIJA04_2IFCnew_2019_Jun_18_1440_692,True,2019_Jun_18_1440,2IFCnew,3,MIJA04,
2IFCnew,46,0,46,0,0.300468200003,2,Yes,11.5,-1,Correct Rejection,0.433760700049,False,True,stimulusMIJA04_2IFCnew_2019_Jun_18_1440_693,stimulusMIJA04_2IFCnew_2019_Jun_18_1440_694,True,2019_Jun_18_1440,2IFCnew,3,MIJA04,
2IFCnew,47,0,47,0,0.200178799976,4,Yes,1.7,-1,Miss,0.400353400037,True,False,stimulusMIJA04_2IFCnew_2019_Jun_18_1440_695,stimulusMIJA04_2IFCnew_2019_Jun_18_1440_696,True,2019_Jun_18_1440,2IFCnew,3,MIJA04,
2IFCnew,48,0,48,0,0.235262800008,5,Yes,3.3,-1,False Alarm,0.334160299972,False,True,stimulusMIJA04_2IFCnew_2019_Jun_18_1440_697,stimulusMIJA04_2IFCnew_2019_Jun_18_1440_698,True,2019_Jun_18_1440,2IFCnew,3,MIJA04,
2IFCnew,49,0,49,0,0.233650700015,6,No,8,-1,Miss,0.401940800017,True,False,stimulusMIJA04_2IFCnew_2019_Jun_18_1440_699,stimulusMIJA04_2IFCnew_2019_Jun_18_1440_700,True,2019_Jun_18_1440,2IFCnew,3,MIJA04,
2IFCnew,50,0,50,0,0.600205900031,1,No,3.3,-1,Hit,0.400054300029,True,False,stimulusMIJA04_2IFCnew_2019_Jun_18_1440_701,stimulusMIJA04_2IFCnew_2019_Jun_18_1440_702,True,2019_Jun_18_1440,2IFCnew,3,MIJA04,
2IFCnew,51,0,51,0,0.333706400008,2,Yes,4.9,-1,Correct Rejection,0.701668600028,False,True,stimulusMIJA04_2IFCnew_2019_Jun_18_1440_703,stimulusMIJA04_2IFCnew_2019_Jun_18_1440_704,True,2019_Jun_18_1440,2IFCnew,3,MIJA04,
2IFCnew,52,0,52,0,0.500810199999,8,No,1.7,-1,Correct Rejection,0.700507499976,False,True,stimulusMIJA04_2IFCnew_2019_Jun_18_1440_705,stimulusMIJA04_2IFCnew_2019_Jun_18_1440_706,True,2019_Jun_18_1440,2IFCnew,3,MIJA04,
2IFCnew,53,0,53,0,0.300305099983,1,No,6.6,-1,Hit,0.500356999983,True,False,stimulusMIJA04_2IFCnew_2019_Jun_18_1440_707,stimulusMIJA04_2IFCnew_2019_Jun_18_1440_708,True,2019_Jun_18_1440,2IFCnew,3,MIJA04,
2IFCnew,54,0,54,0,0.434085200017,4,Yes,1,-1,Miss,0.438350000011,True,False,stimulusMIJA04_2IFCnew_2019_Jun_18_1440_709,stimulusMIJA04_2IFCnew_2019_Jun_18_1440_710,True,2019_Jun_18_1440,2IFCnew,3,MIJA04,
2IFCnew,55,0,55,0,0.233733800007,2,Yes,9.6,-1,Correct Rejection,0.533719700004,False,True,stimulusMIJA04_2IFCnew_2019_Jun_18_1440_711,stimulusMIJA04_2IFCnew_2019_Jun_18_1440_712,True,2019_Jun_18_1440,2IFCnew,3,MIJA04,
2IFCnew,56,0,56,0,0.30031989998,4,Yes,1.7,-1,Miss,0.534196400025,True,False,stimulusMIJA04_2IFCnew_2019_Jun_18_1440_713,stimulusMIJA04_2IFCnew_2019_Jun_18_1440_714,True,2019_Jun_18_1440,2IFCnew,3,MIJA04,
2IFCnew,57,0,57,0,0.400207499973,8,No,6.6,-1,Correct Rejection,0.434219699993,False,True,stimulusMIJA04_2IFCnew_2019_Jun_18_1440_715,stimulusMIJA04_2IFCnew_2019_Jun_18_1440_716,True,2019_Jun_18_1440,2IFCnew,3,MIJA04,
2IFCnew,58,0,58,0,0.367371900007,1,No,4.9,-1,Hit,0.667351000011,True,False,stimulusMIJA04_2IFCnew_2019_Jun_18_1440_717,stimulusMIJA04_2IFCnew_2019_Jun_18_1440_718,True,2019_Jun_18_1440,2IFCnew,3,MIJA04,
2IFCnew,59,0,59,0,0.433236000012,4,Yes,3.3,-1,Miss,0.53399060003,True,False,stimulusMIJA04_2IFCnew_2019_Jun_18_1440_719,stimulusMIJA04_2IFCnew_2019_Jun_18_1440_720,True,2019_Jun_18_1440,2IFCnew,3,MIJA04,
2IFCnew,60,0,60,0,0.299881100014,5,Yes,4.9,-1,False Alarm,0.500688900007,False,True,stimulusMIJA04_2IFCnew_2019_Jun_18_1440_721,stimulusMIJA04_2IFCnew_2019_Jun_18_1440_722,True,2019_Jun_18_1440,2IFCnew,3,MIJA04,
2IFCnew,61,0,61,0,0.233976799995,4,Yes,1,-1,Miss,0.500975100033,True,False,stimulusMIJA04_2IFCnew_2019_Jun_18_1440_723,stimulusMIJA04_2IFCnew_2019_Jun_18_1440_724,True,2019_Jun_18_1440,2IFCnew,3,MIJA04,
2IFCnew,62,0,62,0,0.333865799999,1,No,9.6,-1,Hit,0.566612000053,True,False,stimulusMIJA04_2IFCnew_2019_Jun_18_1440_725,stimulusMIJA04_2IFCnew_2019_Jun_18_1440_726,True,2019_Jun_18_1440,2IFCnew,3,MIJA04,
2IFCnew,63,0,63,0,0.333844500012,2,Yes,11.5,-1,Correct Rejection,0.467342999997,False,True,stimulusMIJA04_2IFCnew_2019_Jun_18_1440_727,stimulusMIJA04_2IFCnew_2019_Jun_18_1440_728,True,2019_Jun_18_1440,2IFCnew,3,MIJA04,
2IFCnew,64,0,64,0,0.367048499989,3,No,1.7,-1,False Alarm,0.600592200004,False,True,stimulusMIJA04_2IFCnew_2019_Jun_18_1440_729,stimulusMIJA04_2IFCnew_2019_Jun_18_1440_730,True,2019_Jun_18_1440,2IFCnew,3,MIJA04,
2IFCnew,65,0,65,0,0.132607200008,4,Yes,1.7,-1,Miss,0.467957400018,True,False,stimulusMIJA04_2IFCnew_2019_Jun_18_1440_731,stimulusMIJA04_2IFCnew_2019_Jun_18_1440_732,True,2019_Jun_18_1440,2IFCnew,3,MIJA04,
2IFCnew,66,0,66,0,0.36719249998,5,Yes,4.9,-1,False Alarm,0.433491499978,False,True,stimulusMIJA04_2IFCnew_2019_Jun_18_1440_733,stimulusMIJA04_2IFCnew_2019_Jun_18_1440_734,True,2019_Jun_18_1440,2IFCnew,3,MIJA04,
2IFCnew,67,0,67,0,0.437142500014,8,No,3.3,-1,Correct Rejection,0.433957899979,False,True,stimulusMIJA04_2IFCnew_2019_Jun_18_1440_735,stimulusMIJA04_2IFCnew_2019_Jun_18_1440_736,True,2019_Jun_18_1440,2IFCnew,3,MIJA04,
2IFCnew,68,0,68,0,0.500762599986,3,No,1,-1,False Alarm,0.530582000036,False,True,stimulusMIJA04_2IFCnew_2019_Jun_18_1440_737,stimulusMIJA04_2IFCnew_2019_Jun_18_1440_738,True,2019_Jun_18_1440,2IFCnew,3,MIJA04,
2IFCnew,69,0,69,0,0.300397100043,2,Yes,9.6,-1,Correct Rejection,0.533997400024,False,True,stimulusMIJA04_2IFCnew_2019_Jun_18_1440_739,stimulusMIJA04_2IFCnew_2019_Jun_18_1440_740,True,2019_Jun_18_1440,2IFCnew,3,MIJA04,
2IFCnew,70,0,70,0,0.567394900019,3,No,1,-1,False Alarm,0.568365899962,False,True,stimulusMIJA04_2IFCnew_2019_Jun_18_1440_741,stimulusMIJA04_2IFCnew_2019_Jun_18_1440_742,True,2019_Jun_18_1440,2IFCnew,3,MIJA04,
2IFCnew,71,0,71,0,0.532856199949,6,No,4.9,-1,Miss,0.600771399972,True,False,stimulusMIJA04_2IFCnew_2019_Jun_18_1440_743,stimulusMIJA04_2IFCnew_2019_Jun_18_1440_744,True,2019_Jun_18_1440,2IFCnew,3,MIJA04,
2IFCnew,72,0,72,0,0.56811220001,8,No,8,-1,Correct Rejection,0.734306600003,False,True,stimulusMIJA04_2IFCnew_2019_Jun_18_1440_745,stimulusMIJA04_2IFCnew_2019_Jun_18_1440_746,True,2019_Jun_18_1440,2IFCnew,3,MIJA04,
2IFCnew,73,0,73,0,0.389924599964,2,Yes,9.6,-1,Correct Rejection,0.57086159999,False,True,stimulusMIJA04_2IFCnew_2019_Jun_18_1440_747,stimulusMIJA04_2IFCnew_2019_Jun_18_1440_748,True,2019_Jun_18_1440,2IFCnew,3,MIJA04,
2IFCnew,74,0,74,0,0.334063099988,2,Yes,3.3,-1,Correct Rejection,0.466641300009,False,True,stimulusMIJA04_2IFCnew_2019_Jun_18_1440_749,stimulusMIJA04_2IFCnew_2019_Jun_18_1440_750,True,2019_Jun_18_1440,2IFCnew,3,MIJA04,
2IFCnew,0,0,0,0,0.533894199994,6,No,6.6,-1,Miss,0.767588099989,True,False,stimulusMIJA04_2IFCnew_2019_Jun_18_1440_751,stimulusMIJA04_2IFCnew_2019_Jun_18_1440_752,True,2019_Jun_18_1440,2IFCnew,3,MIJA04,
2IFCnew,1,0,1,0,0.400264600001,4,Yes,1,-1,Miss,0.434017000021,True,False,stimulusMIJA04_2IFCnew_2019_Jun_18_1440_753,stimulusMIJA04_2IFCnew_2019_Jun_18_1440_754,True,2019_Jun_18_1440,2IFCnew,3,MIJA04,
2IFCnew,2,0,2,0,0.400521899981,4,Yes,1.7,-1,Miss,0.400962999964,True,False,stimulusMIJA04_2IFCnew_2019_Jun_18_1440_755,stimulusMIJA04_2IFCnew_2019_Jun_18_1440_756,True,2019_Jun_18_1440,2IFCnew,3,MIJA04,
2IFCnew,3,0,3,0,0.300460400002,1,No,9.6,-1,Hit,0.633829500002,True,False,stimulusMIJA04_2IFCnew_2019_Jun_18_1440_757,stimulusMIJA04_2IFCnew_2019_Jun_18_1440_758,True,2019_Jun_18_1440,2IFCnew,3,MIJA04,
2IFCnew,4,0,4,0,0.20032319997,1,No,9.6,-1,Hit,0.467054500012,True,False,stimulusMIJA04_2IFCnew_2019_Jun_18_1440_759,stimulusMIJA04_2IFCnew_2019_Jun_18_1440_760,True,2019_Jun_18_1440,2IFCnew,3,MIJA04,
2IFCnew,5,0,5,0,0.167263699987,1,No,9.6,-1,Hit,0.500023100001,True,False,stimulusMIJA04_2IFCnew_2019_Jun_18_1440_761,stimulusMIJA04_2IFCnew_2019_Jun_18_1440_762,True,2019_Jun_18_1440,2IFCnew,3,MIJA04,
2IFCnew,6,0,6,0,0.299481300055,2,Yes,8,-1,Correct Rejection,0.469026200008,False,True,stimulusMIJA04_2IFCnew_2019_Jun_18_1440_763,stimulusMIJA04_2IFCnew_2019_Jun_18_1440_764,True,2019_Jun_18_1440,2IFCnew,3,MIJA04,
2IFCnew,7,0,7,0,0.333806899958,4,Yes,1.7,-1,Miss,0.500469199964,True,False,stimulusMIJA04_2IFCnew_2019_Jun_18_1440_765,stimulusMIJA04_2IFCnew_2019_Jun_18_1440_766,True,2019_Jun_18_1440,2IFCnew,3,MIJA04,
2IFCnew,8,0,8,0,0.166522199987,1,No,4.9,-1,Hit,0.400679400016,True,False,stimulusMIJA04_2IFCnew_2019_Jun_18_1440_767,stimulusMIJA04_2IFCnew_2019_Jun_18_1440_768,True,2019_Jun_18_1440,2IFCnew,3,MIJA04,
2IFCnew,9,0,9,0,0.267585099966,2,Yes,1.7,-1,Correct Rejection,0.434317999985,False,True,stimulusMIJA04_2IFCnew_2019_Jun_18_1440_769,stimulusMIJA04_2IFCnew_2019_Jun_18_1440_770,True,2019_Jun_18_1440,2IFCnew,3,MIJA04,
2IFCnew,10,0,10,0,0.300668200012,6,No,4.9,-1,Miss,0.434978400008,True,False,stimulusMIJA04_2IFCnew_2019_Jun_18_1440_771,stimulusMIJA04_2IFCnew_2019_Jun_18_1440_772,True,2019_Jun_18_1440,2IFCnew,3,MIJA04,
2IFCnew,11,0,11,0,0.333713600005,3,No,1.7,-1,False Alarm,0.43440769997,False,True,stimulusMIJA04_2IFCnew_2019_Jun_18_1440_773,stimulusMIJA04_2IFCnew_2019_Jun_18_1440_774,True,2019_Jun_18_1440,2IFCnew,3,MIJA04,
2IFCnew,12,0,12,0,0.200628099963,1,No,11.5,-1,Hit,0.400888999982,True,False,stimulusMIJA04_2IFCnew_2019_Jun_18_1440_775,stimulusMIJA04_2IFCnew_2019_Jun_18_1440_776,True,2019_Jun_18_1440,2IFCnew,3,MIJA04,
2IFCnew,13,0,13,0,0.501385599957,8,No,1.7,-1,Correct Rejection,0.666930600011,False,True,stimulusMIJA04_2IFCnew_2019_Jun_18_1440_777,stimulusMIJA04_2IFCnew_2019_Jun_18_1440_778,True,2019_Jun_18_1440,2IFCnew,3,MIJA04,
2IFCnew,14,0,14,0,0.601241600001,6,No,1,-1,Miss,0.666781800042,True,False,stimulusMIJA04_2IFCnew_2019_Jun_18_1440_779,stimulusMIJA04_2IFCnew_2019_Jun_18_1440_780,True,2019_Jun_18_1440,2IFCnew,3,MIJA04,
2IFCnew,15,0,15,0,0.300345800002,1,No,4.9,-1,Hit,0.433738799999,True,False,stimulusMIJA04_2IFCnew_2019_Jun_18_1440_781,stimulusMIJA04_2IFCnew_2019_Jun_18_1440_782,True,2019_Jun_18_1440,2IFCnew,3,MIJA04,
2IFCnew,16,0,16,0,0.300499000004,2,Yes,9.6,-1,Correct Rejection,0.600914599956,False,True,stimulusMIJA04_2IFCnew_2019_Jun_18_1440_783,stimulusMIJA04_2IFCnew_2019_Jun_18_1440_784,True,2019_Jun_18_1440,2IFCnew,3,MIJA04,
2IFCnew,17,0,17,0,0.26681120001,3,No,9.6,-1,False Alarm,0.534712299996,False,True,stimulusMIJA04_2IFCnew_2019_Jun_18_1440_785,stimulusMIJA04_2IFCnew_2019_Jun_18_1440_786,True,2019_Jun_18_1440,2IFCnew,3,MIJA04,
2IFCnew,18,0,18,0,0.433975199994,6,No,6.6,-1,Miss,0.467636100017,True,False,stimulusMIJA04_2IFCnew_2019_Jun_18_1440_787,stimulusMIJA04_2IFCnew_2019_Jun_18_1440_788,True,2019_Jun_18_1440,2IFCnew,3,MIJA04,
2IFCnew,19,0,19,0,0.201120599988,1,No,9.6,-1,Hit,0.4689411,True,False,stimulusMIJA04_2IFCnew_2019_Jun_18_1440_789,stimulusMIJA04_2IFCnew_2019_Jun_18_1440_790,True,2019_Jun_18_1440,2IFCnew,3,MIJA04,
2IFCnew,20,0,20,0,0.267499400012,4,Yes,1.7,-1,Miss,0.565826700011,True,False,stimulusMIJA04_2IFCnew_2019_Jun_18_1440_791,stimulusMIJA04_2IFCnew_2019_Jun_18_1440_792,True,2019_Jun_18_1440,2IFCnew,3,MIJA04,
2IFCnew,21,0,21,0,0.700800599996,1,No,4.9,-1,Hit,0.533868500032,True,False,stimulusMIJA04_2IFCnew_2019_Jun_18_1440_793,stimulusMIJA04_2IFCnew_2019_Jun_18_1440_794,True,2019_Jun_18_1440,2IFCnew,3,MIJA04,
2IFCnew,22,0,22,0,0.233878200001,1,No,9.6,-1,Hit,0.533852999972,True,False,stimulusMIJA04_2IFCnew_2019_Jun_18_1440_795,stimulusMIJA04_2IFCnew_2019_Jun_18_1440_796,True,2019_Jun_18_1440,2IFCnew,3,MIJA04,
2IFCnew,23,0,23,0,0.334099000029,4,Yes,1,-1,Miss,0.600485000003,True,False,stimulusMIJA04_2IFCnew_2019_Jun_18_1440_797,stimulusMIJA04_2IFCnew_2019_Jun_18_1440_798,True,2019_Jun_18_1440,2IFCnew,3,MIJA04,
2IFCnew,24,0,24,0,0.500101600017,1,No,3.3,-1,Hit,0.467477799975,True,False,stimulusMIJA04_2IFCnew_2019_Jun_18_1440_799,stimulusMIJA04_2IFCnew_2019_Jun_18_1440_800,True,2019_Jun_18_1440,2IFCnew,3,MIJA04,
2IFCnew,25,0,25,0,0.300879699993,1,No,1,-1,Hit,0.534015400044,True,False,stimulusMIJA04_2IFCnew_2019_Jun_18_1440_801,stimulusMIJA04_2IFCnew_2019_Jun_18_1440_802,True,2019_Jun_18_1440,2IFCnew,3,MIJA04,
2IFCnew,26,0,26,0,0.333855299978,3,No,4.9,-1,False Alarm,0.600451400038,False,True,stimulusMIJA04_2IFCnew_2019_Jun_18_1440_803,stimulusMIJA04_2IFCnew_2019_Jun_18_1440_804,True,2019_Jun_18_1440,2IFCnew,3,MIJA04,
2IFCnew,27,0,27,0,0.233140799974,1,No,6.6,-1,Hit,0.432877600018,True,False,stimulusMIJA04_2IFCnew_2019_Jun_18_1440_805,stimulusMIJA04_2IFCnew_2019_Jun_18_1440_806,True,2019_Jun_18_1440,2IFCnew,3,MIJA04,
2IFCnew,28,0,28,0,0.133641399967,1,No,11.5,-1,Hit,0.367391899985,True,False,stimulusMIJA04_2IFCnew_2019_Jun_18_1440_807,stimulusMIJA04_2IFCnew_2019_Jun_18_1440_808,True,2019_Jun_18_1440,2IFCnew,3,MIJA04,
2IFCnew,29,0,29,0,0.199040199979,1,No,8,-1,Hit,0.367279500002,True,False,stimulusMIJA04_2IFCnew_2019_Jun_18_1440_809,stimulusMIJA04_2IFCnew_2019_Jun_18_1440_810,True,2019_Jun_18_1440,2IFCnew,3,MIJA04,
2IFCnew,30,0,30,0,0.366909799981,1,No,3.3,-1,Hit,0.466671800008,True,False,stimulusMIJA04_2IFCnew_2019_Jun_18_1440_811,stimulusMIJA04_2IFCnew_2019_Jun_18_1440_812,True,2019_Jun_18_1440,2IFCnew,3,MIJA04,
2IFCnew,31,0,31,0,0.267385100015,1,No,1,-1,Hit,0.400648099952,True,False,stimulusMIJA04_2IFCnew_2019_Jun_18_1440_813,stimulusMIJA04_2IFCnew_2019_Jun_18_1440_814,True,2019_Jun_18_1440,2IFCnew,3,MIJA04,
2IFCnew,32,0,32,0,0.267394300026,3,No,11.5,-1,False Alarm,0.400549100013,False,True,stimulusMIJA04_2IFCnew_2019_Jun_18_1440_815,stimulusMIJA04_2IFCnew_2019_Jun_18_1440_816,True,2019_Jun_18_1440,2IFCnew,3,MIJA04,
2IFCnew,33,0,33,0,0.301682999998,2,Yes,1.7,-1,Correct Rejection,0.500780500006,False,True,stimulusMIJA04_2IFCnew_2019_Jun_18_1440_817,stimulusMIJA04_2IFCnew_2019_Jun_18_1440_818,True,2019_Jun_18_1440,2IFCnew,3,MIJA04,
2IFCnew,34,0,34,0,0.367796899984,5,Yes,6.6,-1,False Alarm,0.434265000047,False,True,stimulusMIJA04_2IFCnew_2019_Jun_18_1440_819,stimulusMIJA04_2IFCnew_2019_Jun_18_1440_820,True,2019_Jun_18_1440,2IFCnew,3,MIJA04,
2IFCnew,35,0,35,0,0.50080400001,7,Yes,3.3,-1,Hit,0.500310399977,True,False,stimulusMIJA04_2IFCnew_2019_Jun_18_1440_821,stimulusMIJA04_2IFCnew_2019_Jun_18_1440_822,True,2019_Jun_18_1440,2IFCnew,3,MIJA04,
2IFCnew,36,0,36,0,0.233831499994,1,No,11.5,-1,Hit,0.467211799987,True,False,stimulusMIJA04_2IFCnew_2019_Jun_18_1440_823,stimulusMIJA04_2IFCnew_2019_Jun_18_1440_824,True,2019_Jun_18_1440,2IFCnew,3,MIJA04,
2IFCnew,37,0,37,0,0.366978699982,2,Yes,3.3,-1,Correct Rejection,0.567571700027,False,True,stimulusMIJA04_2IFCnew_2019_Jun_18_1440_825,stimulusMIJA04_2IFCnew_2019_Jun_18_1440_826,True,2019_Jun_18_1440,2IFCnew,3,MIJA04,
2IFCnew,38,0,38,0,0.200410599995,1,No,9.6,-1,Hit,0.43396309996,True,False,stimulusMIJA04_2IFCnew_2019_Jun_18_1440_827,stimulusMIJA04_2IFCnew_2019_Jun_18_1440_828,True,2019_Jun_18_1440,2IFCnew,3,MIJA04,
2IFCnew,39,0,39,0,0.267274499987,1,No,9.6,-1,Hit,0.534028300026,True,False,stimulusMIJA04_2IFCnew_2019_Jun_18_1440_829,stimulusMIJA04_2IFCnew_2019_Jun_18_1440_830,True,2019_Jun_18_1440,2IFCnew,3,MIJA04,
2IFCnew,40,0,40,0,0.30115319998,2,Yes,6.6,-1,Correct Rejection,0.566219200031,False,True,stimulusMIJA04_2IFCnew_2019_Jun_18_1440_831,stimulusMIJA04_2IFCnew_2019_Jun_18_1440_832,True,2019_Jun_18_1440,2IFCnew,3,MIJA04,
2IFCnew,41,0,41,0,0.430625199981,2,Yes,4.9,-1,Correct Rejection,0.5326795,False,True,stimulusMIJA04_2IFCnew_2019_Jun_18_1440_833,stimulusMIJA04_2IFCnew_2019_Jun_18_1440_834,True,2019_Jun_18_1440,2IFCnew,3,MIJA04,
2IFCnew,42,0,42,0,0.266970500001,1,No,11.5,-1,Hit,0.433954600012,True,False,stimulusMIJA04_2IFCnew_2019_Jun_18_1440_835,stimulusMIJA04_2IFCnew_2019_Jun_18_1440_836,True,2019_Jun_18_1440,2IFCnew,3,MIJA04,
2IFCnew,43,0,43,0,0.233802000002,2,Yes,6.6,-1,Correct Rejection,0.499640599999,False,True,stimulusMIJA04_2IFCnew_2019_Jun_18_1440_837,stimulusMIJA04_2IFCnew_2019_Jun_18_1440_838,True,2019_Jun_18_1440,2IFCnew,3,MIJA04,
2IFCnew,44,0,44,0,0.533962499991,3,No,1,-1,False Alarm,0.434534500004,False,True,stimulusMIJA04_2IFCnew_2019_Jun_18_1440_839,stimulusMIJA04_2IFCnew_2019_Jun_18_1440_840,True,2019_Jun_18_1440,2IFCnew,3,MIJA04,
2IFCnew,45,0,45,0,0.633795599977,5,Yes,4.9,-1,False Alarm,0.500849600008,False,True,stimulusMIJA04_2IFCnew_2019_Jun_18_1440_841,stimulusMIJA04_2IFCnew_2019_Jun_18_1440_842,True,2019_Jun_18_1440,2IFCnew,3,MIJA04,
2IFCnew,46,0,46,0,0.635272999993,6,No,9.6,-1,Miss,0.433852999995,True,False,stimulusMIJA04_2IFCnew_2019_Jun_18_1440_843,stimulusMIJA04_2IFCnew_2019_Jun_18_1440_844,True,2019_Jun_18_1440,2IFCnew,3,MIJA04,
2IFCnew,47,0,47,0,0.30024979997,1,No,9.6,-1,Hit,0.500669300032,True,False,stimulusMIJA04_2IFCnew_2019_Jun_18_1440_845,stimulusMIJA04_2IFCnew_2019_Jun_18_1440_846,True,2019_Jun_18_1440,2IFCnew,3,MIJA04,
2IFCnew,48,0,48,0,0.500350599992,1,No,6.6,-1,Hit,0.533967000025,True,False,stimulusMIJA04_2IFCnew_2019_Jun_18_1440_847,stimulusMIJA04_2IFCnew_2019_Jun_18_1440_848,True,2019_Jun_18_1440,2IFCnew,3,MIJA04,
2IFCnew,49,0,49,0,0.401052700006,2,Yes,9.6,-1,Correct Rejection,0.700764300011,False,True,stimulusMIJA04_2IFCnew_2019_Jun_18_1440_849,stimulusMIJA04_2IFCnew_2019_Jun_18_1440_850,True,2019_Jun_18_1440,2IFCnew,3,MIJA04,
2IFCnew,50,0,50,0,0.300623100018,2,Yes,4.9,-1,Correct Rejection,0.432954699965,False,True,stimulusMIJA04_2IFCnew_2019_Jun_18_1440_851,stimulusMIJA04_2IFCnew_2019_Jun_18_1440_852,True,2019_Jun_18_1440,2IFCnew,3,MIJA04,
2IFCnew,51,0,51,0,0.400479100004,4,Yes,1.7,-1,Miss,0.568247399991,True,False,stimulusMIJA04_2IFCnew_2019_Jun_18_1440_853,stimulusMIJA04_2IFCnew_2019_Jun_18_1440_854,True,2019_Jun_18_1440,2IFCnew,3,MIJA04,
2IFCnew,52,0,52,0,0.23385020002,1,No,11.5,-1,Hit,0.500527299999,True,False,stimulusMIJA04_2IFCnew_2019_Jun_18_1440_855,stimulusMIJA04_2IFCnew_2019_Jun_18_1440_856,True,2019_Jun_18_1440,2IFCnew,3,MIJA04,
2IFCnew,53,0,53,0,0.467141500034,8,No,1.7,-1,Correct Rejection,0.634262099979,False,True,stimulusMIJA04_2IFCnew_2019_Jun_18_1440_857,stimulusMIJA04_2IFCnew_2019_Jun_18_1440_858,True,2019_Jun_18_1440,2IFCnew,3,MIJA04,
2IFCnew,54,0,54,0,0.367304100015,2,Yes,3.3,-1,Correct Rejection,0.467537300021,False,True,stimulusMIJA04_2IFCnew_2019_Jun_18_1440_859,stimulusMIJA04_2IFCnew_2019_Jun_18_1440_860,True,2019_Jun_18_1440,2IFCnew,3,MIJA04,
2IFCnew,55,0,55,0,0.367512400029,3,No,11.5,-1,False Alarm,0.567253299989,False,True,stimulusMIJA04_2IFCnew_2019_Jun_18_1440_861,stimulusMIJA04_2IFCnew_2019_Jun_18_1440_862,True,2019_Jun_18_1440,2IFCnew,3,MIJA04,
2IFCnew,56,0,56,0,0.634008200024,5,Yes,9.6,-1,False Alarm,0.467184400011,False,True,stimulusMIJA04_2IFCnew_2019_Jun_18_1440_863,stimulusMIJA04_2IFCnew_2019_Jun_18_1440_864,True,2019_Jun_18_1440,2IFCnew,3,MIJA04,
2IFCnew,57,0,57,0,0.367096900009,2,Yes,11.5,-1,Correct Rejection,0.633949699986,False,True,stimulusMIJA04_2IFCnew_2019_Jun_18_1440_865,stimulusMIJA04_2IFCnew_2019_Jun_18_1440_866,True,2019_Jun_18_1440,2IFCnew,3,MIJA04,
2IFCnew,58,0,58,0,0.337870799995,2,Yes,3.3,-1,Correct Rejection,0.534309700015,False,True,stimulusMIJA04_2IFCnew_2019_Jun_18_1440_867,stimulusMIJA04_2IFCnew_2019_Jun_18_1440_868,True,2019_Jun_18_1440,2IFCnew,3,MIJA04,
2IFCnew,59,0,59,0,0.29828550003,2,Yes,8,-1,Correct Rejection,0.568896200042,False,True,stimulusMIJA04_2IFCnew_2019_Jun_18_1440_869,stimulusMIJA04_2IFCnew_2019_Jun_18_1440_870,True,2019_Jun_18_1440,2IFCnew,3,MIJA04,
2IFCnew,60,0,60,0,0.299879600003,1,No,9.6,-1,Hit,0.469233400014,True,False,stimulusMIJA04_2IFCnew_2019_Jun_18_1440_871,stimulusMIJA04_2IFCnew_2019_Jun_18_1440_872,True,2019_Jun_18_1440,2IFCnew,3,MIJA04,
2IFCnew,61,0,61,0,0.567692800018,1,No,4.9,-1,Hit,0.501389600046,True,False,stimulusMIJA04_2IFCnew_2019_Jun_18_1440_873,stimulusMIJA04_2IFCnew_2019_Jun_18_1440_874,True,2019_Jun_18_1440,2IFCnew,3,MIJA04,
2IFCnew,62,0,62,0,0.335969800013,4,Yes,1.7,-1,Miss,0.599001499999,True,False,stimulusMIJA04_2IFCnew_2019_Jun_18_1440_875,stimulusMIJA04_2IFCnew_2019_Jun_18_1440_876,True,2019_Jun_18_1440,2IFCnew,3,MIJA04,
2IFCnew,63,0,63,0,0.368277200032,7,Yes,4.9,-1,Hit,0.433237099962,True,False,stimulusMIJA04_2IFCnew_2019_Jun_18_1440_877,stimulusMIJA04_2IFCnew_2019_Jun_18_1440_878,True,2019_Jun_18_1440,2IFCnew,3,MIJA04,
2IFCnew,64,0,64,0,0.197721100005,1,No,11.5,-1,Hit,0.400728300039,True,False,stimulusMIJA04_2IFCnew_2019_Jun_18_1440_879,stimulusMIJA04_2IFCnew_2019_Jun_18_1440_880,True,2019_Jun_18_1440,2IFCnew,3,MIJA04,
2IFCnew,65,0,65,0,0.401045200008,2,Yes,6.6,-1,Correct Rejection,0.466009400028,False,True,stimulusMIJA04_2IFCnew_2019_Jun_18_1440_881,stimulusMIJA04_2IFCnew_2019_Jun_18_1440_882,True,2019_Jun_18_1440,2IFCnew,3,MIJA04,
2IFCnew,66,0,66,0,0.567145699984,4,Yes,1.7,-1,Miss,0.634841200022,True,False,stimulusMIJA04_2IFCnew_2019_Jun_18_1440_883,stimulusMIJA04_2IFCnew_2019_Jun_18_1440_884,True,2019_Jun_18_1440,2IFCnew,3,MIJA04,
2IFCnew,67,0,67,0,0.566902199993,1,No,4.9,-1,Hit,0.535393400001,True,False,stimulusMIJA04_2IFCnew_2019_Jun_18_1440_885,stimulusMIJA04_2IFCnew_2019_Jun_18_1440_886,True,2019_Jun_18_1440,2IFCnew,3,MIJA04,
2IFCnew,68,0,68,0,0.567404500034,2,Yes,6.6,-1,Correct Rejection,0.500381999998,False,True,stimulusMIJA04_2IFCnew_2019_Jun_18_1440_887,stimulusMIJA04_2IFCnew_2019_Jun_18_1440_888,True,2019_Jun_18_1440,2IFCnew,3,MIJA04,
2IFCnew,69,0,69,0,0.300411399978,2,Yes,6.6,-1,Correct Rejection,0.467151199991,False,True,stimulusMIJA04_2IFCnew_2019_Jun_18_1440_889,stimulusMIJA04_2IFCnew_2019_Jun_18_1440_890,True,2019_Jun_18_1440,2IFCnew,3,MIJA04,
2IFCnew,70,0,70,0,0.433822099993,4,Yes,3.3,-1,Miss,0.600433100015,True,False,stimulusMIJA04_2IFCnew_2019_Jun_18_1440_891,stimulusMIJA04_2IFCnew_2019_Jun_18_1440_892,True,2019_Jun_18_1440,2IFCnew,3,MIJA04,
2IFCnew,71,0,71,0,0.400351500022,5,Yes,1,-1,False Alarm,0.333144600037,False,True,stimulusMIJA04_2IFCnew_2019_Jun_18_1440_893,stimulusMIJA04_2IFCnew_2019_Jun_18_1440_894,True,2019_Jun_18_1440,2IFCnew,3,MIJA04,
2IFCnew,72,0,72,0,0.30191390001,2,Yes,3.3,-1,Correct Rejection,0.467058700044,False,True,stimulusMIJA04_2IFCnew_2019_Jun_18_1440_895,stimulusMIJA04_2IFCnew_2019_Jun_18_1440_896,True,2019_Jun_18_1440,2IFCnew,3,MIJA04,
2IFCnew,73,0,73,0,0.235139800003,4,Yes,1,-1,Miss,0.467020200042,True,False,stimulusMIJA04_2IFCnew_2019_Jun_18_1440_897,stimulusMIJA04_2IFCnew_2019_Jun_18_1440_898,True,2019_Jun_18_1440,2IFCnew,3,MIJA04,
2IFCnew,74,0,74,0,0.267992399982,3,No,1,-1,False Alarm,0.367193699989,False,True,stimulusMIJA04_2IFCnew_2019_Jun_18_1440_899,stimulusMIJA04_2IFCnew_2019_Jun_18_1440_900,True,2019_Jun_18_1440,2IFCnew,3,MIJA04,
2IFCnew,0,0,0,0,-1,0,No,3.3,-1,No Answer,-1,False,True,stimulusMIJA04_2IFCnew_2019_Jun_18_1440_901,stimulusMIJA04_2IFCnew_2019_Jun_18_1440_902,True,2019_Jun_18_1440,2IFCnew,3,MIJA04,
2IFCnew,1,0,1,0,0.333606500004,4,Yes,1.7,-1,Miss,0.467868900043,True,False,stimulusMIJA04_2IFCnew_2019_Jun_18_1440_903,stimulusMIJA04_2IFCnew_2019_Jun_18_1440_904,True,2019_Jun_18_1440,2IFCnew,3,MIJA04,
2IFCnew,2,0,2,0,0.200545799977,1,No,11.5,-1,Hit,0.467432000034,True,False,stimulusMIJA04_2IFCnew_2019_Jun_18_1440_905,stimulusMIJA04_2IFCnew_2019_Jun_18_1440_906,True,2019_Jun_18_1440,2IFCnew,3,MIJA04,
2IFCnew,3,0,3,0,0.167134699994,1,No,9.6,-1,Hit,0.468490900006,True,False,stimulusMIJA04_2IFCnew_2019_Jun_18_1440_907,stimulusMIJA04_2IFCnew_2019_Jun_18_1440_908,True,2019_Jun_18_1440,2IFCnew,3,MIJA04,
2IFCnew,4,0,4,0,0.267409199965,1,No,8,-1,Hit,0.567114000034,True,False,stimulusMIJA04_2IFCnew_2019_Jun_18_1440_909,stimulusMIJA04_2IFCnew_2019_Jun_18_1440_910,True,2019_Jun_18_1440,2IFCnew,3,MIJA04,
2IFCnew,5,0,5,0,0.501298899995,5,Yes,9.6,-1,False Alarm,0.533705300011,False,True,stimulusMIJA04_2IFCnew_2019_Jun_18_1440_911,stimulusMIJA04_2IFCnew_2019_Jun_18_1440_912,True,2019_Jun_18_1440,2IFCnew,3,MIJA04,
2IFCnew,6,0,6,0,0.50028019998,5,Yes,11.5,-1,False Alarm,0.53396630002,False,True,stimulusMIJA04_2IFCnew_2019_Jun_18_1440_913,stimulusMIJA04_2IFCnew_2019_Jun_18_1440_914,True,2019_Jun_18_1440,2IFCnew,3,MIJA04,
2IFCnew,7,0,7,0,0.232431699988,2,Yes,11.5,-1,Correct Rejection,0.399361799995,False,True,stimulusMIJA04_2IFCnew_2019_Jun_18_1440_915,stimulusMIJA04_2IFCnew_2019_Jun_18_1440_916,True,2019_Jun_18_1440,2IFCnew,3,MIJA04,
2IFCnew,8,0,8,0,0.30221330002,6,No,6.6,-1,Miss,0.434168999956,True,False,stimulusMIJA04_2IFCnew_2019_Jun_18_1440_917,stimulusMIJA04_2IFCnew_2019_Jun_18_1440_918,True,2019_Jun_18_1440,2IFCnew,3,MIJA04,
2IFCnew,9,0,9,0,0.467230300012,7,Yes,6.6,-1,Hit,0.500061300001,True,False,stimulusMIJA04_2IFCnew_2019_Jun_18_1440_919,stimulusMIJA04_2IFCnew_2019_Jun_18_1440_920,True,2019_Jun_18_1440,2IFCnew,3,MIJA04,
2IFCnew,10,0,10,0,0.600929900014,1,No,1,-1,Hit,0.700938299997,True,False,stimulusMIJA04_2IFCnew_2019_Jun_18_1440_921,stimulusMIJA04_2IFCnew_2019_Jun_18_1440_922,True,2019_Jun_18_1440,2IFCnew,3,MIJA04,
2IFCnew,11,0,11,0,0.400732600014,2,Yes,6.6,-1,Correct Rejection,0.53324259998,False,True,stimulusMIJA04_2IFCnew_2019_Jun_18_1440_923,stimulusMIJA04_2IFCnew_2019_Jun_18_1440_924,True,2019_Jun_18_1440,2IFCnew,3,MIJA04,
2IFCnew,12,0,12,0,0.234266199986,1,No,9.6,-1,Hit,0.500618199992,True,False,stimulusMIJA04_2IFCnew_2019_Jun_18_1440_925,stimulusMIJA04_2IFCnew_2019_Jun_18_1440_926,True,2019_Jun_18_1440,2IFCnew,3,MIJA04,
2IFCnew,13,0,13,0,0.267330400005,2,Yes,11.5,-1,Correct Rejection,0.368314800027,False,True,stimulusMIJA04_2IFCnew_2019_Jun_18_1440_927,stimulusMIJA04_2IFCnew_2019_Jun_18_1440_928,True,2019_Jun_18_1440,2IFCnew,3,MIJA04,
2IFCnew,14,0,14,0,0.334059800021,6,No,3.3,-1,Miss,0.400286299991,True,False,stimulusMIJA04_2IFCnew_2019_Jun_18_1440_929,stimulusMIJA04_2IFCnew_2019_Jun_18_1440_930,True,2019_Jun_18_1440,2IFCnew,3,MIJA04,
2IFCnew,15,0,15,0,0.333730800019,2,Yes,11.5,-1,Correct Rejection,0.43387269997,False,True,stimulusMIJA04_2IFCnew_2019_Jun_18_1440_931,stimulusMIJA04_2IFCnew_2019_Jun_18_1440_932,True,2019_Jun_18_1440,2IFCnew,3,MIJA04,
2IFCnew,16,0,16,0,0.46835770004,6,No,4.9,-1,Miss,0.434217700036,True,False,stimulusMIJA04_2IFCnew_2019_Jun_18_1440_933,stimulusMIJA04_2IFCnew_2019_Jun_18_1440_934,True,2019_Jun_18_1440,2IFCnew,3,MIJA04,
2IFCnew,17,0,17,0,0.299869899987,2,Yes,6.6,-1,Correct Rejection,0.43410980003,False,True,stimulusMIJA04_2IFCnew_2019_Jun_18_1440_935,stimulusMIJA04_2IFCnew_2019_Jun_18_1440_936,True,2019_Jun_18_1440,2IFCnew,3,MIJA04,
2IFCnew,18,0,18,0,0.268138200045,6,No,6.6,-1,Miss,0.43409689999,True,False,stimulusMIJA04_2IFCnew_2019_Jun_18_1440_937,stimulusMIJA04_2IFCnew_2019_Jun_18_1440_938,True,2019_Jun_18_1440,2IFCnew,3,MIJA04,
2IFCnew,19,0,19,0,0.300945400028,2,Yes,8,-1,Correct Rejection,0.534885499976,False,True,stimulusMIJA04_2IFCnew_2019_Jun_18_1440_939,stimulusMIJA04_2IFCnew_2019_Jun_18_1440_940,True,2019_Jun_18_1440,2IFCnew,3,MIJA04,
2IFCnew,20,0,20,0,0.333809399977,1,No,4.9,-1,Hit,0.603404399997,True,False,stimulusMIJA04_2IFCnew_2019_Jun_18_1440_941,stimulusMIJA04_2IFCnew_2019_Jun_18_1440_942,True,2019_Jun_18_1440,2IFCnew,3,MIJA04,
2IFCnew,21,0,21,0,0.299309200025,3,No,8,-1,False Alarm,0.500599399966,False,True,stimulusMIJA04_2IFCnew_2019_Jun_18_1440_943,stimulusMIJA04_2IFCnew_2019_Jun_18_1440_944,True,2019_Jun_18_1440,2IFCnew,3,MIJA04,
2IFCnew,22,0,22,0,0.233228600002,1,No,11.5,-1,Hit,0.533582500007,True,False,stimulusMIJA04_2IFCnew_2019_Jun_18_1440_945,stimulusMIJA04_2IFCnew_2019_Jun_18_1440_946,True,2019_Jun_18_1440,2IFCnew,3,MIJA04,
2IFCnew,23,0,23,0,0.234165700036,1,No,9.6,-1,Hit,0.502251299971,True,False,stimulusMIJA04_2IFCnew_2019_Jun_18_1440_947,stimulusMIJA04_2IFCnew_2019_Jun_18_1440_948,True,2019_Jun_18_1440,2IFCnew,3,MIJA04,
2IFCnew,24,0,24,0,0.233679099998,2,Yes,1,-1,Correct Rejection,0.468021499983,False,True,stimulusMIJA04_2IFCnew_2019_Jun_18_1440_949,stimulusMIJA04_2IFCnew_2019_Jun_18_1440_950,True,2019_Jun_18_1440,2IFCnew,3,MIJA04,
2IFCnew,25,0,25,0,0.300479999976,2,Yes,11.5,-1,Correct Rejection,0.5004128,False,True,stimulusMIJA04_2IFCnew_2019_Jun_18_1440_951,stimulusMIJA04_2IFCnew_2019_Jun_18_1440_952,True,2019_Jun_18_1440,2IFCnew,3,MIJA04,
2IFCnew,26,0,26,0,0.266764499946,1,No,11.5,-1,Hit,0.433260600024,True,False,stimulusMIJA04_2IFCnew_2019_Jun_18_1440_953,stimulusMIJA04_2IFCnew_2019_Jun_18_1440_954,True,2019_Jun_18_1440,2IFCnew,3,MIJA04,
