Task,trials.thisRepN,trials.thisTrialN,trials.thisN,trials.thisIndex,signal_intensity,constant Value,response,time_response,signal_on_stimuluspos1,signal_on_stimuluspos2,stimulus_name_pos1,stimulus_name_pos2,random_intensity,date,expName,session,participant,
2IFC,0,0,0,0,11.5,-1,correct answer,0.567244500009,True,False,stimulusMIJA04_2IFC_2019_Jun_17_1226_1,stimulusMIJA04_2IFC_2019_Jun_17_1226_2,False,2019_Jun_17_1226,2IFC,2,MIJA04,
2IFC,1,0,1,0,11.5,-1,correct answer,0.567319899972,True,False,stimulusMIJA04_2IFC_2019_Jun_17_1226_3,stimulusMIJA04_2IFC_2019_Jun_17_1226_4,False,2019_Jun_17_1226,2IFC,2,MIJA04,
2IFC,2,0,2,0,11.5,-1,correct answer,0.334904899995,True,False,stimulusMIJA04_2IFC_2019_Jun_17_1226_5,stimulusMIJA04_2IFC_2019_Jun_17_1226_6,False,2019_Jun_17_1226,2IFC,2,MIJA04,
2IFC,3,0,3,0,11.5,-1,correct answer,0.333862799976,True,False,stimulusMIJA04_2IFC_2019_Jun_17_1226_7,stimulusMIJA04_2IFC_2019_Jun_17_1226_8,False,2019_Jun_17_1226,2IFC,2,MIJA04,
2IFC,4,0,4,0,11.5,-1,correct answer,0.500629499991,True,False,stimulusMIJA04_2IFC_2019_Jun_17_1226_9,stimulusMIJA04_2IFC_2019_Jun_17_1226_10,False,2019_Jun_17_1226,2IFC,2,MIJA04,
2IFC,5,0,5,0,11.5,-1,correct answer,0.335028200003,True,False,stimulusMIJA04_2IFC_2019_Jun_17_1226_11,stimulusMIJA04_2IFC_2019_Jun_17_1226_12,False,2019_Jun_17_1226,2IFC,2,MIJA04,
2IFC,6,0,6,0,11.5,-1,correct answer,0.333942400001,False,True,stimulusMIJA04_2IFC_2019_Jun_17_1226_13,stimulusMIJA04_2IFC_2019_Jun_17_1226_14,False,2019_Jun_17_1226,2IFC,2,MIJA04,
2IFC,7,0,7,0,11.5,-1,wrong answer,0.467914000008,True,False,stimulusMIJA04_2IFC_2019_Jun_17_1226_15,stimulusMIJA04_2IFC_2019_Jun_17_1226_16,False,2019_Jun_17_1226,2IFC,2,MIJA04,
2IFC,8,0,8,0,11.5,-1,correct answer,0.400639899977,False,True,stimulusMIJA04_2IFC_2019_Jun_17_1226_17,stimulusMIJA04_2IFC_2019_Jun_17_1226_18,False,2019_Jun_17_1226,2IFC,2,MIJA04,
2IFC,9,0,9,0,11.5,-1,correct answer,0.433059300005,True,False,stimulusMIJA04_2IFC_2019_Jun_17_1226_19,stimulusMIJA04_2IFC_2019_Jun_17_1226_20,False,2019_Jun_17_1226,2IFC,2,MIJA04,
2IFC,10,0,10,0,11.5,-1,correct answer,0.433920300013,True,False,stimulusMIJA04_2IFC_2019_Jun_17_1226_21,stimulusMIJA04_2IFC_2019_Jun_17_1226_22,False,2019_Jun_17_1226,2IFC,2,MIJA04,
2IFC,11,0,11,0,11.5,-1,correct answer,0.433950000006,False,True,stimulusMIJA04_2IFC_2019_Jun_17_1226_23,stimulusMIJA04_2IFC_2019_Jun_17_1226_24,False,2019_Jun_17_1226,2IFC,2,MIJA04,
2IFC,12,0,12,0,11.5,-1,correct answer,0.433748399984,True,False,stimulusMIJA04_2IFC_2019_Jun_17_1226_25,stimulusMIJA04_2IFC_2019_Jun_17_1226_26,False,2019_Jun_17_1226,2IFC,2,MIJA04,
2IFC,13,0,13,0,11.5,-1,correct answer,0.433920800016,True,False,stimulusMIJA04_2IFC_2019_Jun_17_1226_27,stimulusMIJA04_2IFC_2019_Jun_17_1226_28,False,2019_Jun_17_1226,2IFC,2,MIJA04,
2IFC,14,0,14,0,11.5,-1,correct answer,0.433804800006,False,True,stimulusMIJA04_2IFC_2019_Jun_17_1226_29,stimulusMIJA04_2IFC_2019_Jun_17_1226_30,False,2019_Jun_17_1226,2IFC,2,MIJA04,
2IFC,15,0,15,0,11.5,-1,correct answer,0.367176299973,True,False,stimulusMIJA04_2IFC_2019_Jun_17_1226_31,stimulusMIJA04_2IFC_2019_Jun_17_1226_32,False,2019_Jun_17_1226,2IFC,2,MIJA04,
2IFC,16,0,16,0,11.5,-1,correct answer,0.367031600006,False,True,stimulusMIJA04_2IFC_2019_Jun_17_1226_33,stimulusMIJA04_2IFC_2019_Jun_17_1226_34,False,2019_Jun_17_1226,2IFC,2,MIJA04,
2IFC,17,0,17,0,11.5,-1,correct answer,0.334345899988,True,False,stimulusMIJA04_2IFC_2019_Jun_17_1226_35,stimulusMIJA04_2IFC_2019_Jun_17_1226_36,False,2019_Jun_17_1226,2IFC,2,MIJA04,
2IFC,18,0,18,0,11.5,-1,correct answer,0.366260100011,True,False,stimulusMIJA04_2IFC_2019_Jun_17_1226_37,stimulusMIJA04_2IFC_2019_Jun_17_1226_38,False,2019_Jun_17_1226,2IFC,2,MIJA04,
2IFC,19,0,19,0,11.5,-1,correct answer,0.397718299995,True,False,stimulusMIJA04_2IFC_2019_Jun_17_1226_39,stimulusMIJA04_2IFC_2019_Jun_17_1226_40,False,2019_Jun_17_1226,2IFC,2,MIJA04,
2IFC,20,0,20,0,11.5,-1,correct answer,0.467214100005,True,False,stimulusMIJA04_2IFC_2019_Jun_17_1226_41,stimulusMIJA04_2IFC_2019_Jun_17_1226_42,False,2019_Jun_17_1226,2IFC,2,MIJA04,
2IFC,21,0,21,0,11.5,-1,correct answer,0.333933499991,False,True,stimulusMIJA04_2IFC_2019_Jun_17_1226_43,stimulusMIJA04_2IFC_2019_Jun_17_1226_44,False,2019_Jun_17_1226,2IFC,2,MIJA04,
2IFC,22,0,22,0,11.5,-1,correct answer,0.334027200006,True,False,stimulusMIJA04_2IFC_2019_Jun_17_1226_45,stimulusMIJA04_2IFC_2019_Jun_17_1226_46,False,2019_Jun_17_1226,2IFC,2,MIJA04,
2IFC,23,0,23,0,11.5,-1,correct answer,0.263980299991,False,True,stimulusMIJA04_2IFC_2019_Jun_17_1226_47,stimulusMIJA04_2IFC_2019_Jun_17_1226_48,False,2019_Jun_17_1226,2IFC,2,MIJA04,
2IFC,24,0,24,0,11.5,-1,correct answer,0.434232,True,False,stimulusMIJA04_2IFC_2019_Jun_17_1226_49,stimulusMIJA04_2IFC_2019_Jun_17_1226_50,False,2019_Jun_17_1226,2IFC,2,MIJA04,
2IFC,25,0,25,0,11.5,-1,correct answer,0.266991399985,False,True,stimulusMIJA04_2IFC_2019_Jun_17_1226_51,stimulusMIJA04_2IFC_2019_Jun_17_1226_52,False,2019_Jun_17_1226,2IFC,2,MIJA04,
2IFC,26,0,26,0,11.5,-1,correct answer,0.300603600015,True,False,stimulusMIJA04_2IFC_2019_Jun_17_1226_53,stimulusMIJA04_2IFC_2019_Jun_17_1226_54,False,2019_Jun_17_1226,2IFC,2,MIJA04,
2IFC,27,0,27,0,11.5,-1,correct answer,0.400395499979,True,False,stimulusMIJA04_2IFC_2019_Jun_17_1226_55,stimulusMIJA04_2IFC_2019_Jun_17_1226_56,False,2019_Jun_17_1226,2IFC,2,MIJA04,
2IFC,28,0,28,0,11.5,-1,correct answer,0.300362000009,False,True,stimulusMIJA04_2IFC_2019_Jun_17_1226_57,stimulusMIJA04_2IFC_2019_Jun_17_1226_58,False,2019_Jun_17_1226,2IFC,2,MIJA04,
2IFC,29,0,29,0,11.5,-1,correct answer,0.267130299995,True,False,stimulusMIJA04_2IFC_2019_Jun_17_1226_59,stimulusMIJA04_2IFC_2019_Jun_17_1226_60,False,2019_Jun_17_1226,2IFC,2,MIJA04,
2IFC,30,0,30,0,11.5,-1,correct answer,0.400069099996,False,True,stimulusMIJA04_2IFC_2019_Jun_17_1226_61,stimulusMIJA04_2IFC_2019_Jun_17_1226_62,False,2019_Jun_17_1226,2IFC,2,MIJA04,
2IFC,31,0,31,0,11.5,-1,correct answer,0.467140499997,False,True,stimulusMIJA04_2IFC_2019_Jun_17_1226_63,stimulusMIJA04_2IFC_2019_Jun_17_1226_64,False,2019_Jun_17_1226,2IFC,2,MIJA04,
2IFC,32,0,32,0,11.5,-1,correct answer,0.434388599999,False,True,stimulusMIJA04_2IFC_2019_Jun_17_1226_65,stimulusMIJA04_2IFC_2019_Jun_17_1226_66,False,2019_Jun_17_1226,2IFC,2,MIJA04,
2IFC,33,0,33,0,11.5,-1,correct answer,0.499039100017,True,False,stimulusMIJA04_2IFC_2019_Jun_17_1226_67,stimulusMIJA04_2IFC_2019_Jun_17_1226_68,False,2019_Jun_17_1226,2IFC,2,MIJA04,
2IFC,34,0,34,0,11.5,-1,correct answer,0.30043990002,False,True,stimulusMIJA04_2IFC_2019_Jun_17_1226_69,stimulusMIJA04_2IFC_2019_Jun_17_1226_70,False,2019_Jun_17_1226,2IFC,2,MIJA04,
2IFC,35,0,35,0,11.5,-1,wrong answer,0.367057700001,False,True,stimulusMIJA04_2IFC_2019_Jun_17_1226_71,stimulusMIJA04_2IFC_2019_Jun_17_1226_72,False,2019_Jun_17_1226,2IFC,2,MIJA04,
2IFC,36,0,36,0,11.5,-1,correct answer,0.333758300025,False,True,stimulusMIJA04_2IFC_2019_Jun_17_1226_73,stimulusMIJA04_2IFC_2019_Jun_17_1226_74,False,2019_Jun_17_1226,2IFC,2,MIJA04,
2IFC,37,0,37,0,11.5,-1,correct answer,0.3666791,True,False,stimulusMIJA04_2IFC_2019_Jun_17_1226_75,stimulusMIJA04_2IFC_2019_Jun_17_1226_76,False,2019_Jun_17_1226,2IFC,2,MIJA04,
2IFC,38,0,38,0,11.5,-1,correct answer,0.334896999993,True,False,stimulusMIJA04_2IFC_2019_Jun_17_1226_77,stimulusMIJA04_2IFC_2019_Jun_17_1226_78,False,2019_Jun_17_1226,2IFC,2,MIJA04,
2IFC,39,0,39,0,11.5,-1,correct answer,0.400341800007,True,False,stimulusMIJA04_2IFC_2019_Jun_17_1226_79,stimulusMIJA04_2IFC_2019_Jun_17_1226_80,False,2019_Jun_17_1226,2IFC,2,MIJA04,
2IFC,40,0,40,0,11.5,-1,correct answer,0.334087099996,False,True,stimulusMIJA04_2IFC_2019_Jun_17_1226_81,stimulusMIJA04_2IFC_2019_Jun_17_1226_82,False,2019_Jun_17_1226,2IFC,2,MIJA04,
2IFC,41,0,41,0,11.5,-1,correct answer,0.433995600004,False,True,stimulusMIJA04_2IFC_2019_Jun_17_1226_83,stimulusMIJA04_2IFC_2019_Jun_17_1226_84,False,2019_Jun_17_1226,2IFC,2,MIJA04,
2IFC,42,0,42,0,11.5,-1,correct answer,0.334162400017,False,True,stimulusMIJA04_2IFC_2019_Jun_17_1226_85,stimulusMIJA04_2IFC_2019_Jun_17_1226_86,False,2019_Jun_17_1226,2IFC,2,MIJA04,
2IFC,43,0,43,0,11.5,-1,correct answer,0.266768100002,True,False,stimulusMIJA04_2IFC_2019_Jun_17_1226_87,stimulusMIJA04_2IFC_2019_Jun_17_1226_88,False,2019_Jun_17_1226,2IFC,2,MIJA04,
2IFC,44,0,44,0,11.5,-1,correct answer,0.435514800018,False,True,stimulusMIJA04_2IFC_2019_Jun_17_1226_89,stimulusMIJA04_2IFC_2019_Jun_17_1226_90,False,2019_Jun_17_1226,2IFC,2,MIJA04,
2IFC,45,0,45,0,11.5,-1,correct answer,0.4005817,True,False,stimulusMIJA04_2IFC_2019_Jun_17_1226_91,stimulusMIJA04_2IFC_2019_Jun_17_1226_92,False,2019_Jun_17_1226,2IFC,2,MIJA04,
2IFC,46,0,46,0,11.5,-1,correct answer,0.267294299992,False,True,stimulusMIJA04_2IFC_2019_Jun_17_1226_93,stimulusMIJA04_2IFC_2019_Jun_17_1226_94,False,2019_Jun_17_1226,2IFC,2,MIJA04,
2IFC,47,0,47,0,11.5,-1,correct answer,0.300854900008,False,True,stimulusMIJA04_2IFC_2019_Jun_17_1226_95,stimulusMIJA04_2IFC_2019_Jun_17_1226_96,False,2019_Jun_17_1226,2IFC,2,MIJA04,
2IFC,48,0,48,0,11.5,-1,correct answer,0.333897100005,False,True,stimulusMIJA04_2IFC_2019_Jun_17_1226_97,stimulusMIJA04_2IFC_2019_Jun_17_1226_98,False,2019_Jun_17_1226,2IFC,2,MIJA04,
2IFC,49,0,49,0,11.5,-1,correct answer,0.467723700014,True,False,stimulusMIJA04_2IFC_2019_Jun_17_1226_99,stimulusMIJA04_2IFC_2019_Jun_17_1226_100,False,2019_Jun_17_1226,2IFC,2,MIJA04,
2IFC,50,0,50,0,11.5,-1,correct answer,0.300254300004,False,True,stimulusMIJA04_2IFC_2019_Jun_17_1226_101,stimulusMIJA04_2IFC_2019_Jun_17_1226_102,False,2019_Jun_17_1226,2IFC,2,MIJA04,
2IFC,51,0,51,0,11.5,-1,correct answer,0.3327422,False,True,stimulusMIJA04_2IFC_2019_Jun_17_1226_103,stimulusMIJA04_2IFC_2019_Jun_17_1226_104,False,2019_Jun_17_1226,2IFC,2,MIJA04,
2IFC,52,0,52,0,11.5,-1,correct answer,0.402295200009,False,True,stimulusMIJA04_2IFC_2019_Jun_17_1226_105,stimulusMIJA04_2IFC_2019_Jun_17_1226_106,False,2019_Jun_17_1226,2IFC,2,MIJA04,
2IFC,53,0,53,0,11.5,-1,wrong answer,0.433760000014,False,True,stimulusMIJA04_2IFC_2019_Jun_17_1226_107,stimulusMIJA04_2IFC_2019_Jun_17_1226_108,False,2019_Jun_17_1226,2IFC,2,MIJA04,
2IFC,54,0,54,0,11.5,-1,correct answer,0.300674099999,False,True,stimulusMIJA04_2IFC_2019_Jun_17_1226_109,stimulusMIJA04_2IFC_2019_Jun_17_1226_110,False,2019_Jun_17_1226,2IFC,2,MIJA04,
2IFC,55,0,55,0,11.5,-1,correct answer,0.400656999991,False,True,stimulusMIJA04_2IFC_2019_Jun_17_1226_111,stimulusMIJA04_2IFC_2019_Jun_17_1226_112,False,2019_Jun_17_1226,2IFC,2,MIJA04,
2IFC,56,0,56,0,11.5,-1,correct answer,0.233799199981,True,False,stimulusMIJA04_2IFC_2019_Jun_17_1226_113,stimulusMIJA04_2IFC_2019_Jun_17_1226_114,False,2019_Jun_17_1226,2IFC,2,MIJA04,
2IFC,57,0,57,0,11.5,-1,correct answer,0.400559700007,True,False,stimulusMIJA04_2IFC_2019_Jun_17_1226_115,stimulusMIJA04_2IFC_2019_Jun_17_1226_116,False,2019_Jun_17_1226,2IFC,2,MIJA04,
2IFC,58,0,58,0,11.5,-1,correct answer,0.402604800009,True,False,stimulusMIJA04_2IFC_2019_Jun_17_1226_117,stimulusMIJA04_2IFC_2019_Jun_17_1226_118,False,2019_Jun_17_1226,2IFC,2,MIJA04,
2IFC,59,0,59,0,11.5,-1,correct answer,0.400748400018,False,True,stimulusMIJA04_2IFC_2019_Jun_17_1226_119,stimulusMIJA04_2IFC_2019_Jun_17_1226_120,False,2019_Jun_17_1226,2IFC,2,MIJA04,
2IFC,60,0,60,0,11.5,-1,correct answer,0.267354299984,True,False,stimulusMIJA04_2IFC_2019_Jun_17_1226_121,stimulusMIJA04_2IFC_2019_Jun_17_1226_122,False,2019_Jun_17_1226,2IFC,2,MIJA04,
2IFC,61,0,61,0,11.5,-1,correct answer,0.400606299983,False,True,stimulusMIJA04_2IFC_2019_Jun_17_1226_123,stimulusMIJA04_2IFC_2019_Jun_17_1226_124,False,2019_Jun_17_1226,2IFC,2,MIJA04,
2IFC,62,0,62,0,11.5,-1,correct answer,0.333580400009,True,False,stimulusMIJA04_2IFC_2019_Jun_17_1226_125,stimulusMIJA04_2IFC_2019_Jun_17_1226_126,False,2019_Jun_17_1226,2IFC,2,MIJA04,
2IFC,63,0,63,0,11.5,-1,correct answer,0.299859799998,False,True,stimulusMIJA04_2IFC_2019_Jun_17_1226_127,stimulusMIJA04_2IFC_2019_Jun_17_1226_128,False,2019_Jun_17_1226,2IFC,2,MIJA04,
2IFC,64,0,64,0,11.5,-1,correct answer,0.400184700004,False,True,stimulusMIJA04_2IFC_2019_Jun_17_1226_129,stimulusMIJA04_2IFC_2019_Jun_17_1226_130,False,2019_Jun_17_1226,2IFC,2,MIJA04,
2IFC,65,0,65,0,11.5,-1,correct answer,0.334040800022,False,True,stimulusMIJA04_2IFC_2019_Jun_17_1226_131,stimulusMIJA04_2IFC_2019_Jun_17_1226_132,False,2019_Jun_17_1226,2IFC,2,MIJA04,
2IFC,66,0,66,0,11.5,-1,correct answer,0.401323799975,False,True,stimulusMIJA04_2IFC_2019_Jun_17_1226_133,stimulusMIJA04_2IFC_2019_Jun_17_1226_134,False,2019_Jun_17_1226,2IFC,2,MIJA04,
2IFC,67,0,67,0,11.5,-1,correct answer,0.43561429999,False,True,stimulusMIJA04_2IFC_2019_Jun_17_1226_135,stimulusMIJA04_2IFC_2019_Jun_17_1226_136,False,2019_Jun_17_1226,2IFC,2,MIJA04,
2IFC,68,0,68,0,11.5,-1,correct answer,0.36728169999,True,False,stimulusMIJA04_2IFC_2019_Jun_17_1226_137,stimulusMIJA04_2IFC_2019_Jun_17_1226_138,False,2019_Jun_17_1226,2IFC,2,MIJA04,
2IFC,69,0,69,0,11.5,-1,correct answer,0.433608299994,False,True,stimulusMIJA04_2IFC_2019_Jun_17_1226_139,stimulusMIJA04_2IFC_2019_Jun_17_1226_140,False,2019_Jun_17_1226,2IFC,2,MIJA04,
2IFC,70,0,70,0,11.5,-1,correct answer,0.367327099986,True,False,stimulusMIJA04_2IFC_2019_Jun_17_1226_141,stimulusMIJA04_2IFC_2019_Jun_17_1226_142,False,2019_Jun_17_1226,2IFC,2,MIJA04,
2IFC,71,0,71,0,11.5,-1,correct answer,0.33349390002,True,False,stimulusMIJA04_2IFC_2019_Jun_17_1226_143,stimulusMIJA04_2IFC_2019_Jun_17_1226_144,False,2019_Jun_17_1226,2IFC,2,MIJA04,
2IFC,72,0,72,0,11.5,-1,correct answer,0.366420100007,True,False,stimulusMIJA04_2IFC_2019_Jun_17_1226_145,stimulusMIJA04_2IFC_2019_Jun_17_1226_146,False,2019_Jun_17_1226,2IFC,2,MIJA04,
2IFC,73,0,73,0,11.5,-1,correct answer,0.333830499992,True,False,stimulusMIJA04_2IFC_2019_Jun_17_1226_147,stimulusMIJA04_2IFC_2019_Jun_17_1226_148,False,2019_Jun_17_1226,2IFC,2,MIJA04,
2IFC,74,0,74,0,11.5,-1,correct answer,0.300986899994,False,True,stimulusMIJA04_2IFC_2019_Jun_17_1226_149,stimulusMIJA04_2IFC_2019_Jun_17_1226_150,False,2019_Jun_17_1226,2IFC,2,MIJA04,
2IFC,0,0,0,0,9.6,-1,correct answer,0.602614099975,True,False,stimulusMIJA04_2IFC_2019_Jun_17_1226_151,stimulusMIJA04_2IFC_2019_Jun_17_1226_152,False,2019_Jun_17_1226,2IFC,2,MIJA04,
2IFC,1,0,1,0,9.6,-1,correct answer,0.400691799994,True,False,stimulusMIJA04_2IFC_2019_Jun_17_1226_153,stimulusMIJA04_2IFC_2019_Jun_17_1226_154,False,2019_Jun_17_1226,2IFC,2,MIJA04,
2IFC,2,0,2,0,9.6,-1,correct answer,0.367194799997,True,False,stimulusMIJA04_2IFC_2019_Jun_17_1226_155,stimulusMIJA04_2IFC_2019_Jun_17_1226_156,False,2019_Jun_17_1226,2IFC,2,MIJA04,
2IFC,3,0,3,0,9.6,-1,correct answer,0.399470600008,True,False,stimulusMIJA04_2IFC_2019_Jun_17_1226_157,stimulusMIJA04_2IFC_2019_Jun_17_1226_158,False,2019_Jun_17_1226,2IFC,2,MIJA04,
2IFC,4,0,4,0,9.6,-1,correct answer,0.300428799994,True,False,stimulusMIJA04_2IFC_2019_Jun_17_1226_159,stimulusMIJA04_2IFC_2019_Jun_17_1226_160,False,2019_Jun_17_1226,2IFC,2,MIJA04,
2IFC,5,0,5,0,9.6,-1,correct answer,0.334061199974,False,True,stimulusMIJA04_2IFC_2019_Jun_17_1226_161,stimulusMIJA04_2IFC_2019_Jun_17_1226_162,False,2019_Jun_17_1226,2IFC,2,MIJA04,
2IFC,6,0,6,0,9.6,-1,correct answer,0.367537399987,False,True,stimulusMIJA04_2IFC_2019_Jun_17_1226_163,stimulusMIJA04_2IFC_2019_Jun_17_1226_164,False,2019_Jun_17_1226,2IFC,2,MIJA04,
2IFC,7,0,7,0,9.6,-1,correct answer,0.302079399989,False,True,stimulusMIJA04_2IFC_2019_Jun_17_1226_165,stimulusMIJA04_2IFC_2019_Jun_17_1226_166,False,2019_Jun_17_1226,2IFC,2,MIJA04,
2IFC,8,0,8,0,9.6,-1,correct answer,0.299931999994,True,False,stimulusMIJA04_2IFC_2019_Jun_17_1226_167,stimulusMIJA04_2IFC_2019_Jun_17_1226_168,False,2019_Jun_17_1226,2IFC,2,MIJA04,
2IFC,9,0,9,0,9.6,-1,correct answer,0.500522499991,False,True,stimulusMIJA04_2IFC_2019_Jun_17_1226_169,stimulusMIJA04_2IFC_2019_Jun_17_1226_170,False,2019_Jun_17_1226,2IFC,2,MIJA04,
2IFC,10,0,10,0,9.6,-1,correct answer,0.334697099985,True,False,stimulusMIJA04_2IFC_2019_Jun_17_1226_171,stimulusMIJA04_2IFC_2019_Jun_17_1226_172,False,2019_Jun_17_1226,2IFC,2,MIJA04,
2IFC,11,0,11,0,9.6,-1,correct answer,0.46803769999,False,True,stimulusMIJA04_2IFC_2019_Jun_17_1226_173,stimulusMIJA04_2IFC_2019_Jun_17_1226_174,False,2019_Jun_17_1226,2IFC,2,MIJA04,
2IFC,12,0,12,0,9.6,-1,correct answer,0.334014199994,False,True,stimulusMIJA04_2IFC_2019_Jun_17_1226_175,stimulusMIJA04_2IFC_2019_Jun_17_1226_176,False,2019_Jun_17_1226,2IFC,2,MIJA04,
2IFC,13,0,13,0,9.6,-1,correct answer,0.367365300015,True,False,stimulusMIJA04_2IFC_2019_Jun_17_1226_177,stimulusMIJA04_2IFC_2019_Jun_17_1226_178,False,2019_Jun_17_1226,2IFC,2,MIJA04,
2IFC,14,0,14,0,9.6,-1,correct answer,0.19969400001,False,True,stimulusMIJA04_2IFC_2019_Jun_17_1226_179,stimulusMIJA04_2IFC_2019_Jun_17_1226_180,False,2019_Jun_17_1226,2IFC,2,MIJA04,
2IFC,15,0,15,0,9.6,-1,correct answer,0.233891300013,True,False,stimulusMIJA04_2IFC_2019_Jun_17_1226_181,stimulusMIJA04_2IFC_2019_Jun_17_1226_182,False,2019_Jun_17_1226,2IFC,2,MIJA04,
2IFC,16,0,16,0,9.6,-1,correct answer,0.301296700025,False,True,stimulusMIJA04_2IFC_2019_Jun_17_1226_183,stimulusMIJA04_2IFC_2019_Jun_17_1226_184,False,2019_Jun_17_1226,2IFC,2,MIJA04,
2IFC,17,0,17,0,9.6,-1,correct answer,0.400431599992,False,True,stimulusMIJA04_2IFC_2019_Jun_17_1226_185,stimulusMIJA04_2IFC_2019_Jun_17_1226_186,False,2019_Jun_17_1226,2IFC,2,MIJA04,
2IFC,18,0,18,0,9.6,-1,correct answer,0.467686699994,True,False,stimulusMIJA04_2IFC_2019_Jun_17_1226_187,stimulusMIJA04_2IFC_2019_Jun_17_1226_188,False,2019_Jun_17_1226,2IFC,2,MIJA04,
2IFC,19,0,19,0,9.6,-1,correct answer,0.50117969999,True,False,stimulusMIJA04_2IFC_2019_Jun_17_1226_189,stimulusMIJA04_2IFC_2019_Jun_17_1226_190,False,2019_Jun_17_1226,2IFC,2,MIJA04,
2IFC,20,0,20,0,9.6,-1,correct answer,0.500755999994,False,True,stimulusMIJA04_2IFC_2019_Jun_17_1226_191,stimulusMIJA04_2IFC_2019_Jun_17_1226_192,False,2019_Jun_17_1226,2IFC,2,MIJA04,
2IFC,21,0,21,0,9.6,-1,correct answer,0.366959699983,True,False,stimulusMIJA04_2IFC_2019_Jun_17_1226_193,stimulusMIJA04_2IFC_2019_Jun_17_1226_194,False,2019_Jun_17_1226,2IFC,2,MIJA04,
2IFC,22,0,22,0,9.6,-1,correct answer,0.300838099996,False,True,stimulusMIJA04_2IFC_2019_Jun_17_1226_195,stimulusMIJA04_2IFC_2019_Jun_17_1226_196,False,2019_Jun_17_1226,2IFC,2,MIJA04,
2IFC,23,0,23,0,9.6,-1,correct answer,0.334495000017,True,False,stimulusMIJA04_2IFC_2019_Jun_17_1226_197,stimulusMIJA04_2IFC_2019_Jun_17_1226_198,False,2019_Jun_17_1226,2IFC,2,MIJA04,
2IFC,24,0,24,0,9.6,-1,correct answer,0.401005199994,False,True,stimulusMIJA04_2IFC_2019_Jun_17_1226_199,stimulusMIJA04_2IFC_2019_Jun_17_1226_200,False,2019_Jun_17_1226,2IFC,2,MIJA04,
2IFC,25,0,25,0,9.6,-1,correct answer,0.166983800009,False,True,stimulusMIJA04_2IFC_2019_Jun_17_1226_201,stimulusMIJA04_2IFC_2019_Jun_17_1226_202,False,2019_Jun_17_1226,2IFC,2,MIJA04,
2IFC,26,0,26,0,9.6,-1,correct answer,0.335949600005,False,True,stimulusMIJA04_2IFC_2019_Jun_17_1226_203,stimulusMIJA04_2IFC_2019_Jun_17_1226_204,False,2019_Jun_17_1226,2IFC,2,MIJA04,
2IFC,27,0,27,0,9.6,-1,correct answer,0.300659099972,True,False,stimulusMIJA04_2IFC_2019_Jun_17_1226_205,stimulusMIJA04_2IFC_2019_Jun_17_1226_206,False,2019_Jun_17_1226,2IFC,2,MIJA04,
2IFC,28,0,28,0,9.6,-1,correct answer,0.403298899997,True,False,stimulusMIJA04_2IFC_2019_Jun_17_1226_207,stimulusMIJA04_2IFC_2019_Jun_17_1226_208,False,2019_Jun_17_1226,2IFC,2,MIJA04,
2IFC,29,0,29,0,9.6,-1,correct answer,0.300477500015,True,False,stimulusMIJA04_2IFC_2019_Jun_17_1226_209,stimulusMIJA04_2IFC_2019_Jun_17_1226_210,False,2019_Jun_17_1226,2IFC,2,MIJA04,
2IFC,30,0,30,0,9.6,-1,correct answer,0.301843499998,True,False,stimulusMIJA04_2IFC_2019_Jun_17_1226_211,stimulusMIJA04_2IFC_2019_Jun_17_1226_212,False,2019_Jun_17_1226,2IFC,2,MIJA04,
2IFC,31,0,31,0,9.6,-1,correct answer,0.333903999999,False,True,stimulusMIJA04_2IFC_2019_Jun_17_1226_213,stimulusMIJA04_2IFC_2019_Jun_17_1226_214,False,2019_Jun_17_1226,2IFC,2,MIJA04,
2IFC,32,0,32,0,9.6,-1,correct answer,0.367773999984,True,False,stimulusMIJA04_2IFC_2019_Jun_17_1226_215,stimulusMIJA04_2IFC_2019_Jun_17_1226_216,False,2019_Jun_17_1226,2IFC,2,MIJA04,
2IFC,33,0,33,0,9.6,-1,correct answer,0.333879300015,True,False,stimulusMIJA04_2IFC_2019_Jun_17_1226_217,stimulusMIJA04_2IFC_2019_Jun_17_1226_218,False,2019_Jun_17_1226,2IFC,2,MIJA04,
2IFC,34,0,34,0,9.6,-1,correct answer,0.333586399996,False,True,stimulusMIJA04_2IFC_2019_Jun_17_1226_219,stimulusMIJA04_2IFC_2019_Jun_17_1226_220,False,2019_Jun_17_1226,2IFC,2,MIJA04,
2IFC,35,0,35,0,9.6,-1,correct answer,0.33594759999,True,False,stimulusMIJA04_2IFC_2019_Jun_17_1226_221,stimulusMIJA04_2IFC_2019_Jun_17_1226_222,False,2019_Jun_17_1226,2IFC,2,MIJA04,
2IFC,36,0,36,0,9.6,-1,correct answer,0.334923999995,False,True,stimulusMIJA04_2IFC_2019_Jun_17_1226_223,stimulusMIJA04_2IFC_2019_Jun_17_1226_224,False,2019_Jun_17_1226,2IFC,2,MIJA04,
2IFC,37,0,37,0,9.6,-1,correct answer,0.301172700012,False,True,stimulusMIJA04_2IFC_2019_Jun_17_1226_225,stimulusMIJA04_2IFC_2019_Jun_17_1226_226,False,2019_Jun_17_1226,2IFC,2,MIJA04,
2IFC,38,0,38,0,9.6,-1,correct answer,0.3339308,True,False,stimulusMIJA04_2IFC_2019_Jun_17_1226_227,stimulusMIJA04_2IFC_2019_Jun_17_1226_228,False,2019_Jun_17_1226,2IFC,2,MIJA04,
2IFC,39,0,39,0,9.6,-1,correct answer,0.334353500017,True,False,stimulusMIJA04_2IFC_2019_Jun_17_1226_229,stimulusMIJA04_2IFC_2019_Jun_17_1226_230,False,2019_Jun_17_1226,2IFC,2,MIJA04,
2IFC,40,0,40,0,9.6,-1,correct answer,0.267069199996,False,True,stimulusMIJA04_2IFC_2019_Jun_17_1226_231,stimulusMIJA04_2IFC_2019_Jun_17_1226_232,False,2019_Jun_17_1226,2IFC,2,MIJA04,
2IFC,41,0,41,0,9.6,-1,correct answer,0.333779699984,True,False,stimulusMIJA04_2IFC_2019_Jun_17_1226_233,stimulusMIJA04_2IFC_2019_Jun_17_1226_234,False,2019_Jun_17_1226,2IFC,2,MIJA04,
2IFC,42,0,42,0,9.6,-1,correct answer,0.4351532,True,False,stimulusMIJA04_2IFC_2019_Jun_17_1226_235,stimulusMIJA04_2IFC_2019_Jun_17_1226_236,False,2019_Jun_17_1226,2IFC,2,MIJA04,
2IFC,43,0,43,0,9.6,-1,correct answer,0.433819400001,True,False,stimulusMIJA04_2IFC_2019_Jun_17_1226_237,stimulusMIJA04_2IFC_2019_Jun_17_1226_238,False,2019_Jun_17_1226,2IFC,2,MIJA04,
2IFC,44,0,44,0,9.6,-1,correct answer,0.401152200007,True,False,stimulusMIJA04_2IFC_2019_Jun_17_1226_239,stimulusMIJA04_2IFC_2019_Jun_17_1226_240,False,2019_Jun_17_1226,2IFC,2,MIJA04,
2IFC,45,0,45,0,9.6,-1,correct answer,0.334387699986,False,True,stimulusMIJA04_2IFC_2019_Jun_17_1226_241,stimulusMIJA04_2IFC_2019_Jun_17_1226_242,False,2019_Jun_17_1226,2IFC,2,MIJA04,
2IFC,46,0,46,0,9.6,-1,correct answer,0.369500300003,True,False,stimulusMIJA04_2IFC_2019_Jun_17_1226_243,stimulusMIJA04_2IFC_2019_Jun_17_1226_244,False,2019_Jun_17_1226,2IFC,2,MIJA04,
2IFC,47,0,47,0,9.6,-1,correct answer,0.334596800007,False,True,stimulusMIJA04_2IFC_2019_Jun_17_1226_245,stimulusMIJA04_2IFC_2019_Jun_17_1226_246,False,2019_Jun_17_1226,2IFC,2,MIJA04,
2IFC,48,0,48,0,9.6,-1,correct answer,0.365376200003,True,False,stimulusMIJA04_2IFC_2019_Jun_17_1226_247,stimulusMIJA04_2IFC_2019_Jun_17_1226_248,False,2019_Jun_17_1226,2IFC,2,MIJA04,
2IFC,49,0,49,0,9.6,-1,correct answer,0.402876299981,True,False,stimulusMIJA04_2IFC_2019_Jun_17_1226_249,stimulusMIJA04_2IFC_2019_Jun_17_1226_250,False,2019_Jun_17_1226,2IFC,2,MIJA04,
2IFC,50,0,50,0,9.6,-1,correct answer,0.36711240001,False,True,stimulusMIJA04_2IFC_2019_Jun_17_1226_251,stimulusMIJA04_2IFC_2019_Jun_17_1226_252,False,2019_Jun_17_1226,2IFC,2,MIJA04,
2IFC,51,0,51,0,9.6,-1,correct answer,0.434275100008,False,True,stimulusMIJA04_2IFC_2019_Jun_17_1226_253,stimulusMIJA04_2IFC_2019_Jun_17_1226_254,False,2019_Jun_17_1226,2IFC,2,MIJA04,
2IFC,52,0,52,0,9.6,-1,correct answer,0.334166500019,True,False,stimulusMIJA04_2IFC_2019_Jun_17_1226_255,stimulusMIJA04_2IFC_2019_Jun_17_1226_256,False,2019_Jun_17_1226,2IFC,2,MIJA04,
2IFC,53,0,53,0,9.6,-1,correct answer,0.367254799989,True,False,stimulusMIJA04_2IFC_2019_Jun_17_1226_257,stimulusMIJA04_2IFC_2019_Jun_17_1226_258,False,2019_Jun_17_1226,2IFC,2,MIJA04,
2IFC,54,0,54,0,9.6,-1,correct answer,0.334812200017,False,True,stimulusMIJA04_2IFC_2019_Jun_17_1226_259,stimulusMIJA04_2IFC_2019_Jun_17_1226_260,False,2019_Jun_17_1226,2IFC,2,MIJA04,
2IFC,55,0,55,0,9.6,-1,correct answer,0.4675154,False,True,stimulusMIJA04_2IFC_2019_Jun_17_1226_261,stimulusMIJA04_2IFC_2019_Jun_17_1226_262,False,2019_Jun_17_1226,2IFC,2,MIJA04,
2IFC,56,0,56,0,9.6,-1,wrong answer,0.400566600001,True,False,stimulusMIJA04_2IFC_2019_Jun_17_1226_263,stimulusMIJA04_2IFC_2019_Jun_17_1226_264,False,2019_Jun_17_1226,2IFC,2,MIJA04,
2IFC,57,0,57,0,9.6,-1,correct answer,0.333438399975,True,False,stimulusMIJA04_2IFC_2019_Jun_17_1226_265,stimulusMIJA04_2IFC_2019_Jun_17_1226_266,False,2019_Jun_17_1226,2IFC,2,MIJA04,
2IFC,58,0,58,0,9.6,-1,correct answer,0.333705800003,True,False,stimulusMIJA04_2IFC_2019_Jun_17_1226_267,stimulusMIJA04_2IFC_2019_Jun_17_1226_268,False,2019_Jun_17_1226,2IFC,2,MIJA04,
2IFC,59,0,59,0,9.6,-1,correct answer,0.5347932,False,True,stimulusMIJA04_2IFC_2019_Jun_17_1226_269,stimulusMIJA04_2IFC_2019_Jun_17_1226_270,False,2019_Jun_17_1226,2IFC,2,MIJA04,
2IFC,60,0,60,0,9.6,-1,correct answer,0.300191699993,True,False,stimulusMIJA04_2IFC_2019_Jun_17_1226_271,stimulusMIJA04_2IFC_2019_Jun_17_1226_272,False,2019_Jun_17_1226,2IFC,2,MIJA04,
2IFC,61,0,61,0,9.6,-1,correct answer,0.332899200002,True,False,stimulusMIJA04_2IFC_2019_Jun_17_1226_273,stimulusMIJA04_2IFC_2019_Jun_17_1226_274,False,2019_Jun_17_1226,2IFC,2,MIJA04,
2IFC,62,0,62,0,9.6,-1,correct answer,0.334004900011,True,False,stimulusMIJA04_2IFC_2019_Jun_17_1226_275,stimulusMIJA04_2IFC_2019_Jun_17_1226_276,False,2019_Jun_17_1226,2IFC,2,MIJA04,
2IFC,63,0,63,0,9.6,-1,correct answer,0.334944900009,False,True,stimulusMIJA04_2IFC_2019_Jun_17_1226_277,stimulusMIJA04_2IFC_2019_Jun_17_1226_278,False,2019_Jun_17_1226,2IFC,2,MIJA04,
2IFC,64,0,64,0,9.6,-1,correct answer,0.367593800009,True,False,stimulusMIJA04_2IFC_2019_Jun_17_1226_279,stimulusMIJA04_2IFC_2019_Jun_17_1226_280,False,2019_Jun_17_1226,2IFC,2,MIJA04,
2IFC,65,0,65,0,9.6,-1,correct answer,0.367930599983,True,False,stimulusMIJA04_2IFC_2019_Jun_17_1226_281,stimulusMIJA04_2IFC_2019_Jun_17_1226_282,False,2019_Jun_17_1226,2IFC,2,MIJA04,
2IFC,66,0,66,0,9.6,-1,correct answer,0.267172500025,False,True,stimulusMIJA04_2IFC_2019_Jun_17_1226_283,stimulusMIJA04_2IFC_2019_Jun_17_1226_284,False,2019_Jun_17_1226,2IFC,2,MIJA04,
2IFC,67,0,67,0,9.6,-1,wrong answer,0.333520900022,False,True,stimulusMIJA04_2IFC_2019_Jun_17_1226_285,stimulusMIJA04_2IFC_2019_Jun_17_1226_286,False,2019_Jun_17_1226,2IFC,2,MIJA04,
2IFC,68,0,68,0,9.6,-1,correct answer,0.200617899973,False,True,stimulusMIJA04_2IFC_2019_Jun_17_1226_287,stimulusMIJA04_2IFC_2019_Jun_17_1226_288,False,2019_Jun_17_1226,2IFC,2,MIJA04,
2IFC,69,0,69,0,9.6,-1,correct answer,0.30088200001,False,True,stimulusMIJA04_2IFC_2019_Jun_17_1226_289,stimulusMIJA04_2IFC_2019_Jun_17_1226_290,False,2019_Jun_17_1226,2IFC,2,MIJA04,
2IFC,70,0,70,0,9.6,-1,correct answer,0.401969400002,False,True,stimulusMIJA04_2IFC_2019_Jun_17_1226_291,stimulusMIJA04_2IFC_2019_Jun_17_1226_292,False,2019_Jun_17_1226,2IFC,2,MIJA04,
2IFC,71,0,71,0,9.6,-1,correct answer,0.401030699984,True,False,stimulusMIJA04_2IFC_2019_Jun_17_1226_293,stimulusMIJA04_2IFC_2019_Jun_17_1226_294,False,2019_Jun_17_1226,2IFC,2,MIJA04,
2IFC,72,0,72,0,9.6,-1,correct answer,0.333866999979,True,False,stimulusMIJA04_2IFC_2019_Jun_17_1226_295,stimulusMIJA04_2IFC_2019_Jun_17_1226_296,False,2019_Jun_17_1226,2IFC,2,MIJA04,
2IFC,73,0,73,0,9.6,-1,correct answer,0.300616499997,True,False,stimulusMIJA04_2IFC_2019_Jun_17_1226_297,stimulusMIJA04_2IFC_2019_Jun_17_1226_298,False,2019_Jun_17_1226,2IFC,2,MIJA04,
2IFC,74,0,74,0,9.6,-1,correct answer,0.301033299998,True,False,stimulusMIJA04_2IFC_2019_Jun_17_1226_299,stimulusMIJA04_2IFC_2019_Jun_17_1226_300,False,2019_Jun_17_1226,2IFC,2,MIJA04,
2IFC,0,0,0,0,4.9,-1,correct answer,0.534635600023,True,False,stimulusMIJA04_2IFC_2019_Jun_17_1226_301,stimulusMIJA04_2IFC_2019_Jun_17_1226_302,False,2019_Jun_17_1226,2IFC,2,MIJA04,
2IFC,1,0,1,0,4.9,-1,correct answer,0.434210599982,False,True,stimulusMIJA04_2IFC_2019_Jun_17_1226_303,stimulusMIJA04_2IFC_2019_Jun_17_1226_304,False,2019_Jun_17_1226,2IFC,2,MIJA04,
2IFC,2,0,2,0,4.9,-1,correct answer,0.601520800003,False,True,stimulusMIJA04_2IFC_2019_Jun_17_1226_305,stimulusMIJA04_2IFC_2019_Jun_17_1226_306,False,2019_Jun_17_1226,2IFC,2,MIJA04,
2IFC,3,0,3,0,4.9,-1,correct answer,0.400674000004,False,True,stimulusMIJA04_2IFC_2019_Jun_17_1226_307,stimulusMIJA04_2IFC_2019_Jun_17_1226_308,False,2019_Jun_17_1226,2IFC,2,MIJA04,
2IFC,4,0,4,0,4.9,-1,correct answer,0.433735300001,True,False,stimulusMIJA04_2IFC_2019_Jun_17_1226_309,stimulusMIJA04_2IFC_2019_Jun_17_1226_310,False,2019_Jun_17_1226,2IFC,2,MIJA04,
2IFC,5,0,5,0,4.9,-1,correct answer,0.534067500004,True,False,stimulusMIJA04_2IFC_2019_Jun_17_1226_311,stimulusMIJA04_2IFC_2019_Jun_17_1226_312,False,2019_Jun_17_1226,2IFC,2,MIJA04,
2IFC,6,0,6,0,4.9,-1,correct answer,0.334230600012,False,True,stimulusMIJA04_2IFC_2019_Jun_17_1226_313,stimulusMIJA04_2IFC_2019_Jun_17_1226_314,False,2019_Jun_17_1226,2IFC,2,MIJA04,
2IFC,7,0,7,0,4.9,-1,wrong answer,0.466723699996,False,True,stimulusMIJA04_2IFC_2019_Jun_17_1226_315,stimulusMIJA04_2IFC_2019_Jun_17_1226_316,False,2019_Jun_17_1226,2IFC,2,MIJA04,
2IFC,8,0,8,0,4.9,-1,correct answer,0.400644900015,False,True,stimulusMIJA04_2IFC_2019_Jun_17_1226_317,stimulusMIJA04_2IFC_2019_Jun_17_1226_318,False,2019_Jun_17_1226,2IFC,2,MIJA04,
2IFC,9,0,9,0,4.9,-1,correct answer,0.533911800012,False,True,stimulusMIJA04_2IFC_2019_Jun_17_1226_319,stimulusMIJA04_2IFC_2019_Jun_17_1226_320,False,2019_Jun_17_1226,2IFC,2,MIJA04,
2IFC,10,0,10,0,4.9,-1,correct answer,0.6683472,False,True,stimulusMIJA04_2IFC_2019_Jun_17_1226_321,stimulusMIJA04_2IFC_2019_Jun_17_1226_322,False,2019_Jun_17_1226,2IFC,2,MIJA04,
2IFC,11,0,11,0,4.9,-1,correct answer,0.467211099982,True,False,stimulusMIJA04_2IFC_2019_Jun_17_1226_323,stimulusMIJA04_2IFC_2019_Jun_17_1226_324,False,2019_Jun_17_1226,2IFC,2,MIJA04,
2IFC,12,0,12,0,4.9,-1,correct answer,0.56740510001,False,True,stimulusMIJA04_2IFC_2019_Jun_17_1226_325,stimulusMIJA04_2IFC_2019_Jun_17_1226_326,False,2019_Jun_17_1226,2IFC,2,MIJA04,
2IFC,13,0,13,0,4.9,-1,wrong answer,0.600098900002,False,True,stimulusMIJA04_2IFC_2019_Jun_17_1226_327,stimulusMIJA04_2IFC_2019_Jun_17_1226_328,False,2019_Jun_17_1226,2IFC,2,MIJA04,
2IFC,14,0,14,0,4.9,-1,correct answer,0.568523399998,True,False,stimulusMIJA04_2IFC_2019_Jun_17_1226_329,stimulusMIJA04_2IFC_2019_Jun_17_1226_330,False,2019_Jun_17_1226,2IFC,2,MIJA04,
2IFC,15,0,15,0,4.9,-1,correct answer,0.43387009998,True,False,stimulusMIJA04_2IFC_2019_Jun_17_1226_331,stimulusMIJA04_2IFC_2019_Jun_17_1226_332,False,2019_Jun_17_1226,2IFC,2,MIJA04,
2IFC,16,0,16,0,4.9,-1,correct answer,0.267447200022,False,True,stimulusMIJA04_2IFC_2019_Jun_17_1226_333,stimulusMIJA04_2IFC_2019_Jun_17_1226_334,False,2019_Jun_17_1226,2IFC,2,MIJA04,
2IFC,17,0,17,0,4.9,-1,correct answer,0.467678200017,True,False,stimulusMIJA04_2IFC_2019_Jun_17_1226_335,stimulusMIJA04_2IFC_2019_Jun_17_1226_336,False,2019_Jun_17_1226,2IFC,2,MIJA04,
2IFC,18,0,18,0,4.9,-1,correct answer,0.600799000007,False,True,stimulusMIJA04_2IFC_2019_Jun_17_1226_337,stimulusMIJA04_2IFC_2019_Jun_17_1226_338,False,2019_Jun_17_1226,2IFC,2,MIJA04,
2IFC,19,0,19,0,4.9,-1,correct answer,0.567589200014,False,True,stimulusMIJA04_2IFC_2019_Jun_17_1226_339,stimulusMIJA04_2IFC_2019_Jun_17_1226_340,False,2019_Jun_17_1226,2IFC,2,MIJA04,
2IFC,20,0,20,0,4.9,-1,correct answer,0.367285000015,False,True,stimulusMIJA04_2IFC_2019_Jun_17_1226_341,stimulusMIJA04_2IFC_2019_Jun_17_1226_342,False,2019_Jun_17_1226,2IFC,2,MIJA04,
2IFC,21,0,21,0,4.9,-1,correct answer,0.367194999999,True,False,stimulusMIJA04_2IFC_2019_Jun_17_1226_343,stimulusMIJA04_2IFC_2019_Jun_17_1226_344,False,2019_Jun_17_1226,2IFC,2,MIJA04,
2IFC,22,0,22,0,4.9,-1,correct answer,0.600411799998,False,True,stimulusMIJA04_2IFC_2019_Jun_17_1226_345,stimulusMIJA04_2IFC_2019_Jun_17_1226_346,False,2019_Jun_17_1226,2IFC,2,MIJA04,
2IFC,23,0,23,0,4.9,-1,correct answer,0.500553199992,False,True,stimulusMIJA04_2IFC_2019_Jun_17_1226_347,stimulusMIJA04_2IFC_2019_Jun_17_1226_348,False,2019_Jun_17_1226,2IFC,2,MIJA04,
2IFC,24,0,24,0,4.9,-1,correct answer,0.400479400007,False,True,stimulusMIJA04_2IFC_2019_Jun_17_1226_349,stimulusMIJA04_2IFC_2019_Jun_17_1226_350,False,2019_Jun_17_1226,2IFC,2,MIJA04,
2IFC,25,0,25,0,4.9,-1,wrong answer,0.466991299996,False,True,stimulusMIJA04_2IFC_2019_Jun_17_1226_351,stimulusMIJA04_2IFC_2019_Jun_17_1226_352,False,2019_Jun_17_1226,2IFC,2,MIJA04,
2IFC,26,0,26,0,4.9,-1,correct answer,0.433629200008,False,True,stimulusMIJA04_2IFC_2019_Jun_17_1226_353,stimulusMIJA04_2IFC_2019_Jun_17_1226_354,False,2019_Jun_17_1226,2IFC,2,MIJA04,
2IFC,27,0,27,0,4.9,-1,wrong answer,0.467529899994,True,False,stimulusMIJA04_2IFC_2019_Jun_17_1226_355,stimulusMIJA04_2IFC_2019_Jun_17_1226_356,False,2019_Jun_17_1226,2IFC,2,MIJA04,
2IFC,28,0,28,0,4.9,-1,correct answer,0.300541200006,False,True,stimulusMIJA04_2IFC_2019_Jun_17_1226_357,stimulusMIJA04_2IFC_2019_Jun_17_1226_358,False,2019_Jun_17_1226,2IFC,2,MIJA04,
2IFC,29,0,29,0,4.9,-1,wrong answer,0.534923200001,False,True,stimulusMIJA04_2IFC_2019_Jun_17_1226_359,stimulusMIJA04_2IFC_2019_Jun_17_1226_360,False,2019_Jun_17_1226,2IFC,2,MIJA04,
2IFC,30,0,30,0,4.9,-1,correct answer,0.300654599996,False,True,stimulusMIJA04_2IFC_2019_Jun_17_1226_361,stimulusMIJA04_2IFC_2019_Jun_17_1226_362,False,2019_Jun_17_1226,2IFC,2,MIJA04,
2IFC,31,0,31,0,4.9,-1,wrong answer,0.467936100002,True,False,stimulusMIJA04_2IFC_2019_Jun_17_1226_363,stimulusMIJA04_2IFC_2019_Jun_17_1226_364,False,2019_Jun_17_1226,2IFC,2,MIJA04,
2IFC,32,0,32,0,4.9,-1,correct answer,0.500780399976,False,True,stimulusMIJA04_2IFC_2019_Jun_17_1226_365,stimulusMIJA04_2IFC_2019_Jun_17_1226_366,False,2019_Jun_17_1226,2IFC,2,MIJA04,
2IFC,33,0,33,0,4.9,-1,wrong answer,0.500157199975,False,True,stimulusMIJA04_2IFC_2019_Jun_17_1226_367,stimulusMIJA04_2IFC_2019_Jun_17_1226_368,False,2019_Jun_17_1226,2IFC,2,MIJA04,
2IFC,34,0,34,0,4.9,-1,wrong answer,0.366581600014,True,False,stimulusMIJA04_2IFC_2019_Jun_17_1226_369,stimulusMIJA04_2IFC_2019_Jun_17_1226_370,False,2019_Jun_17_1226,2IFC,2,MIJA04,
2IFC,35,0,35,0,4.9,-1,correct answer,0.300651500002,False,True,stimulusMIJA04_2IFC_2019_Jun_17_1226_371,stimulusMIJA04_2IFC_2019_Jun_17_1226_372,False,2019_Jun_17_1226,2IFC,2,MIJA04,
2IFC,36,0,36,0,4.9,-1,correct answer,0.600340000005,True,False,stimulusMIJA04_2IFC_2019_Jun_17_1226_373,stimulusMIJA04_2IFC_2019_Jun_17_1226_374,False,2019_Jun_17_1226,2IFC,2,MIJA04,
2IFC,37,0,37,0,4.9,-1,correct answer,0.500716999988,False,True,stimulusMIJA04_2IFC_2019_Jun_17_1226_375,stimulusMIJA04_2IFC_2019_Jun_17_1226_376,False,2019_Jun_17_1226,2IFC,2,MIJA04,
2IFC,38,0,38,0,4.9,-1,correct answer,0.301707300008,False,True,stimulusMIJA04_2IFC_2019_Jun_17_1226_377,stimulusMIJA04_2IFC_2019_Jun_17_1226_378,False,2019_Jun_17_1226,2IFC,2,MIJA04,
2IFC,39,0,39,0,4.9,-1,correct answer,0.334622900002,False,True,stimulusMIJA04_2IFC_2019_Jun_17_1226_379,stimulusMIJA04_2IFC_2019_Jun_17_1226_380,False,2019_Jun_17_1226,2IFC,2,MIJA04,
2IFC,40,0,40,0,4.9,-1,wrong answer,0.367156799999,False,True,stimulusMIJA04_2IFC_2019_Jun_17_1226_381,stimulusMIJA04_2IFC_2019_Jun_17_1226_382,False,2019_Jun_17_1226,2IFC,2,MIJA04,
2IFC,41,0,41,0,4.9,-1,wrong answer,0.567922100017,True,False,stimulusMIJA04_2IFC_2019_Jun_17_1226_383,stimulusMIJA04_2IFC_2019_Jun_17_1226_384,False,2019_Jun_17_1226,2IFC,2,MIJA04,
2IFC,42,0,42,0,4.9,-1,wrong answer,0.332124799985,True,False,stimulusMIJA04_2IFC_2019_Jun_17_1226_385,stimulusMIJA04_2IFC_2019_Jun_17_1226_386,False,2019_Jun_17_1226,2IFC,2,MIJA04,
2IFC,43,0,43,0,4.9,-1,correct answer,0.233671599999,False,True,stimulusMIJA04_2IFC_2019_Jun_17_1226_387,stimulusMIJA04_2IFC_2019_Jun_17_1226_388,False,2019_Jun_17_1226,2IFC,2,MIJA04,
2IFC,44,0,44,0,4.9,-1,correct answer,0.299953400012,False,True,stimulusMIJA04_2IFC_2019_Jun_17_1226_389,stimulusMIJA04_2IFC_2019_Jun_17_1226_390,False,2019_Jun_17_1226,2IFC,2,MIJA04,
2IFC,45,0,45,0,4.9,-1,correct answer,0.433757600025,True,False,stimulusMIJA04_2IFC_2019_Jun_17_1226_391,stimulusMIJA04_2IFC_2019_Jun_17_1226_392,False,2019_Jun_17_1226,2IFC,2,MIJA04,
2IFC,46,0,46,0,4.9,-1,correct answer,0.40191309998,False,True,stimulusMIJA04_2IFC_2019_Jun_17_1226_393,stimulusMIJA04_2IFC_2019_Jun_17_1226_394,False,2019_Jun_17_1226,2IFC,2,MIJA04,
2IFC,47,0,47,0,4.9,-1,correct answer,0.434525999997,True,False,stimulusMIJA04_2IFC_2019_Jun_17_1226_395,stimulusMIJA04_2IFC_2019_Jun_17_1226_396,False,2019_Jun_17_1226,2IFC,2,MIJA04,
2IFC,48,0,48,0,4.9,-1,correct answer,0.200458399981,True,False,stimulusMIJA04_2IFC_2019_Jun_17_1226_397,stimulusMIJA04_2IFC_2019_Jun_17_1226_398,False,2019_Jun_17_1226,2IFC,2,MIJA04,
2IFC,49,0,49,0,4.9,-1,correct answer,0.331627600011,True,False,stimulusMIJA04_2IFC_2019_Jun_17_1226_399,stimulusMIJA04_2IFC_2019_Jun_17_1226_400,False,2019_Jun_17_1226,2IFC,2,MIJA04,
2IFC,50,0,50,0,4.9,-1,correct answer,0.267107099993,False,True,stimulusMIJA04_2IFC_2019_Jun_17_1226_401,stimulusMIJA04_2IFC_2019_Jun_17_1226_402,False,2019_Jun_17_1226,2IFC,2,MIJA04,
2IFC,51,0,51,0,4.9,-1,correct answer,0.434024899994,False,True,stimulusMIJA04_2IFC_2019_Jun_17_1226_403,stimulusMIJA04_2IFC_2019_Jun_17_1226_404,False,2019_Jun_17_1226,2IFC,2,MIJA04,
2IFC,52,0,52,0,4.9,-1,wrong answer,0.300436899997,False,True,stimulusMIJA04_2IFC_2019_Jun_17_1226_405,stimulusMIJA04_2IFC_2019_Jun_17_1226_406,False,2019_Jun_17_1226,2IFC,2,MIJA04,
2IFC,53,0,53,0,4.9,-1,wrong answer,0.46843020001,True,False,stimulusMIJA04_2IFC_2019_Jun_17_1226_407,stimulusMIJA04_2IFC_2019_Jun_17_1226_408,False,2019_Jun_17_1226,2IFC,2,MIJA04,
2IFC,54,0,54,0,4.9,-1,correct answer,0.331867800007,False,True,stimulusMIJA04_2IFC_2019_Jun_17_1226_409,stimulusMIJA04_2IFC_2019_Jun_17_1226_410,False,2019_Jun_17_1226,2IFC,2,MIJA04,
2IFC,55,0,55,0,4.9,-1,correct answer,0.333520200016,False,True,stimulusMIJA04_2IFC_2019_Jun_17_1226_411,stimulusMIJA04_2IFC_2019_Jun_17_1226_412,False,2019_Jun_17_1226,2IFC,2,MIJA04,
2IFC,56,0,56,0,4.9,-1,correct answer,0.333680000011,True,False,stimulusMIJA04_2IFC_2019_Jun_17_1226_413,stimulusMIJA04_2IFC_2019_Jun_17_1226_414,False,2019_Jun_17_1226,2IFC,2,MIJA04,
2IFC,57,0,57,0,4.9,-1,wrong answer,0.367270199989,False,True,stimulusMIJA04_2IFC_2019_Jun_17_1226_415,stimulusMIJA04_2IFC_2019_Jun_17_1226_416,False,2019_Jun_17_1226,2IFC,2,MIJA04,
2IFC,58,0,58,0,4.9,-1,correct answer,0.501273000002,True,False,stimulusMIJA04_2IFC_2019_Jun_17_1226_417,stimulusMIJA04_2IFC_2019_Jun_17_1226_418,False,2019_Jun_17_1226,2IFC,2,MIJA04,
2IFC,59,0,59,0,4.9,-1,correct answer,0.433438999986,True,False,stimulusMIJA04_2IFC_2019_Jun_17_1226_419,stimulusMIJA04_2IFC_2019_Jun_17_1226_420,False,2019_Jun_17_1226,2IFC,2,MIJA04,
2IFC,60,0,60,0,4.9,-1,wrong answer,0.402847700025,False,True,stimulusMIJA04_2IFC_2019_Jun_17_1226_421,stimulusMIJA04_2IFC_2019_Jun_17_1226_422,False,2019_Jun_17_1226,2IFC,2,MIJA04,
2IFC,61,0,61,0,4.9,-1,correct answer,0.300324499985,False,True,stimulusMIJA04_2IFC_2019_Jun_17_1226_423,stimulusMIJA04_2IFC_2019_Jun_17_1226_424,False,2019_Jun_17_1226,2IFC,2,MIJA04,
2IFC,62,0,62,0,4.9,-1,correct answer,0.467385299999,False,True,stimulusMIJA04_2IFC_2019_Jun_17_1226_425,stimulusMIJA04_2IFC_2019_Jun_17_1226_426,False,2019_Jun_17_1226,2IFC,2,MIJA04,
2IFC,63,0,63,0,4.9,-1,correct answer,0.300362299982,False,True,stimulusMIJA04_2IFC_2019_Jun_17_1226_427,stimulusMIJA04_2IFC_2019_Jun_17_1226_428,False,2019_Jun_17_1226,2IFC,2,MIJA04,
2IFC,64,0,64,0,4.9,-1,correct answer,0.466976199998,True,False,stimulusMIJA04_2IFC_2019_Jun_17_1226_429,stimulusMIJA04_2IFC_2019_Jun_17_1226_430,False,2019_Jun_17_1226,2IFC,2,MIJA04,
2IFC,65,0,65,0,4.9,-1,correct answer,0.267380800011,False,True,stimulusMIJA04_2IFC_2019_Jun_17_1226_431,stimulusMIJA04_2IFC_2019_Jun_17_1226_432,False,2019_Jun_17_1226,2IFC,2,MIJA04,
2IFC,66,0,66,0,4.9,-1,wrong answer,0.1671279,True,False,stimulusMIJA04_2IFC_2019_Jun_17_1226_433,stimulusMIJA04_2IFC_2019_Jun_17_1226_434,False,2019_Jun_17_1226,2IFC,2,MIJA04,
2IFC,67,0,67,0,4.9,-1,correct answer,0.334289500024,True,False,stimulusMIJA04_2IFC_2019_Jun_17_1226_435,stimulusMIJA04_2IFC_2019_Jun_17_1226_436,False,2019_Jun_17_1226,2IFC,2,MIJA04,
2IFC,68,0,68,0,4.9,-1,wrong answer,0.333970900014,True,False,stimulusMIJA04_2IFC_2019_Jun_17_1226_437,stimulusMIJA04_2IFC_2019_Jun_17_1226_438,False,2019_Jun_17_1226,2IFC,2,MIJA04,
2IFC,69,0,69,0,4.9,-1,correct answer,0.267312399985,False,True,stimulusMIJA04_2IFC_2019_Jun_17_1226_439,stimulusMIJA04_2IFC_2019_Jun_17_1226_440,False,2019_Jun_17_1226,2IFC,2,MIJA04,
2IFC,70,0,70,0,4.9,-1,correct answer,0.333351300011,False,True,stimulusMIJA04_2IFC_2019_Jun_17_1226_441,stimulusMIJA04_2IFC_2019_Jun_17_1226_442,False,2019_Jun_17_1226,2IFC,2,MIJA04,
2IFC,71,0,71,0,4.9,-1,wrong answer,0.300681099994,False,True,stimulusMIJA04_2IFC_2019_Jun_17_1226_443,stimulusMIJA04_2IFC_2019_Jun_17_1226_444,False,2019_Jun_17_1226,2IFC,2,MIJA04,
2IFC,72,0,72,0,4.9,-1,correct answer,0.367192300007,True,False,stimulusMIJA04_2IFC_2019_Jun_17_1226_445,stimulusMIJA04_2IFC_2019_Jun_17_1226_446,False,2019_Jun_17_1226,2IFC,2,MIJA04,
2IFC,73,0,73,0,4.9,-1,correct answer,0.266929900012,True,False,stimulusMIJA04_2IFC_2019_Jun_17_1226_447,stimulusMIJA04_2IFC_2019_Jun_17_1226_448,False,2019_Jun_17_1226,2IFC,2,MIJA04,
2IFC,74,0,74,0,4.9,-1,correct answer,0.300558000017,False,True,stimulusMIJA04_2IFC_2019_Jun_17_1226_449,stimulusMIJA04_2IFC_2019_Jun_17_1226_450,False,2019_Jun_17_1226,2IFC,2,MIJA04,
2IFC,0,0,0,0,1,-1,wrong answer,0.367131200008,True,False,stimulusMIJA04_2IFC_2019_Jun_17_1226_451,stimulusMIJA04_2IFC_2019_Jun_17_1226_452,False,2019_Jun_17_1226,2IFC,2,MIJA04,
2IFC,1,0,1,0,1,-1,correct answer,0.300526600011,True,False,stimulusMIJA04_2IFC_2019_Jun_17_1226_453,stimulusMIJA04_2IFC_2019_Jun_17_1226_454,False,2019_Jun_17_1226,2IFC,2,MIJA04,
2IFC,2,0,2,0,1,-1,correct answer,0.135206900013,False,True,stimulusMIJA04_2IFC_2019_Jun_17_1226_455,stimulusMIJA04_2IFC_2019_Jun_17_1226_456,False,2019_Jun_17_1226,2IFC,2,MIJA04,
2IFC,3,0,3,0,1,-1,wrong answer,0.300469300011,False,True,stimulusMIJA04_2IFC_2019_Jun_17_1226_457,stimulusMIJA04_2IFC_2019_Jun_17_1226_458,False,2019_Jun_17_1226,2IFC,2,MIJA04,
2IFC,4,0,4,0,1,-1,wrong answer,0.100564000022,True,False,stimulusMIJA04_2IFC_2019_Jun_17_1226_459,stimulusMIJA04_2IFC_2019_Jun_17_1226_460,False,2019_Jun_17_1226,2IFC,2,MIJA04,
2IFC,5,0,5,0,1,-1,correct answer,0.233910800016,True,False,stimulusMIJA04_2IFC_2019_Jun_17_1226_461,stimulusMIJA04_2IFC_2019_Jun_17_1226_462,False,2019_Jun_17_1226,2IFC,2,MIJA04,
2IFC,6,0,6,0,1,-1,wrong answer,0.167497899994,True,False,stimulusMIJA04_2IFC_2019_Jun_17_1226_463,stimulusMIJA04_2IFC_2019_Jun_17_1226_464,False,2019_Jun_17_1226,2IFC,2,MIJA04,
2IFC,7,0,7,0,1,-1,wrong answer,0.10042599999,False,True,stimulusMIJA04_2IFC_2019_Jun_17_1226_465,stimulusMIJA04_2IFC_2019_Jun_17_1226_466,False,2019_Jun_17_1226,2IFC,2,MIJA04,
2IFC,8,0,8,0,1,-1,correct answer,0.601143899985,True,False,stimulusMIJA04_2IFC_2019_Jun_17_1226_467,stimulusMIJA04_2IFC_2019_Jun_17_1226_468,False,2019_Jun_17_1226,2IFC,2,MIJA04,
2IFC,9,0,9,0,1,-1,wrong answer,0.301742900017,True,False,stimulusMIJA04_2IFC_2019_Jun_17_1226_469,stimulusMIJA04_2IFC_2019_Jun_17_1226_470,False,2019_Jun_17_1226,2IFC,2,MIJA04,
2IFC,10,0,10,0,1,-1,correct answer,0.400672299991,True,False,stimulusMIJA04_2IFC_2019_Jun_17_1226_471,stimulusMIJA04_2IFC_2019_Jun_17_1226_472,False,2019_Jun_17_1226,2IFC,2,MIJA04,
2IFC,11,0,11,0,1,-1,wrong answer,0.267044999986,True,False,stimulusMIJA04_2IFC_2019_Jun_17_1226_473,stimulusMIJA04_2IFC_2019_Jun_17_1226_474,False,2019_Jun_17_1226,2IFC,2,MIJA04,
2IFC,12,0,12,0,1,-1,correct answer,0.36723209999,True,False,stimulusMIJA04_2IFC_2019_Jun_17_1226_475,stimulusMIJA04_2IFC_2019_Jun_17_1226_476,False,2019_Jun_17_1226,2IFC,2,MIJA04,
2IFC,13,0,13,0,1,-1,wrong answer,0.333941799996,True,False,stimulusMIJA04_2IFC_2019_Jun_17_1226_477,stimulusMIJA04_2IFC_2019_Jun_17_1226_478,False,2019_Jun_17_1226,2IFC,2,MIJA04,
2IFC,14,0,14,0,1,-1,wrong answer,0.634213800018,True,False,stimulusMIJA04_2IFC_2019_Jun_17_1226_479,stimulusMIJA04_2IFC_2019_Jun_17_1226_480,False,2019_Jun_17_1226,2IFC,2,MIJA04,
2IFC,15,0,15,0,1,-1,wrong answer,0.633992600022,True,False,stimulusMIJA04_2IFC_2019_Jun_17_1226_481,stimulusMIJA04_2IFC_2019_Jun_17_1226_482,False,2019_Jun_17_1226,2IFC,2,MIJA04,
2IFC,16,0,16,0,1,-1,correct answer,0.300619999995,False,True,stimulusMIJA04_2IFC_2019_Jun_17_1226_483,stimulusMIJA04_2IFC_2019_Jun_17_1226_484,False,2019_Jun_17_1226,2IFC,2,MIJA04,
2IFC,17,0,17,0,1,-1,wrong answer,0.434059499996,False,True,stimulusMIJA04_2IFC_2019_Jun_17_1226_485,stimulusMIJA04_2IFC_2019_Jun_17_1226_486,False,2019_Jun_17_1226,2IFC,2,MIJA04,
2IFC,18,0,18,0,1,-1,wrong answer,0.367246600013,True,False,stimulusMIJA04_2IFC_2019_Jun_17_1226_487,stimulusMIJA04_2IFC_2019_Jun_17_1226_488,False,2019_Jun_17_1226,2IFC,2,MIJA04,
2IFC,19,0,19,0,1,-1,wrong answer,0.300766400003,False,True,stimulusMIJA04_2IFC_2019_Jun_17_1226_489,stimulusMIJA04_2IFC_2019_Jun_17_1226_490,False,2019_Jun_17_1226,2IFC,2,MIJA04,
2IFC,20,0,20,0,1,-1,correct answer,0.466341699997,True,False,stimulusMIJA04_2IFC_2019_Jun_17_1226_491,stimulusMIJA04_2IFC_2019_Jun_17_1226_492,False,2019_Jun_17_1226,2IFC,2,MIJA04,
2IFC,21,0,21,0,1,-1,wrong answer,0.467236700002,True,False,stimulusMIJA04_2IFC_2019_Jun_17_1226_493,stimulusMIJA04_2IFC_2019_Jun_17_1226_494,False,2019_Jun_17_1226,2IFC,2,MIJA04,
2IFC,22,0,22,0,1,-1,wrong answer,0.233605000016,True,False,stimulusMIJA04_2IFC_2019_Jun_17_1226_495,stimulusMIJA04_2IFC_2019_Jun_17_1226_496,False,2019_Jun_17_1226,2IFC,2,MIJA04,
2IFC,23,0,23,0,1,-1,correct answer,0.367689300008,True,False,stimulusMIJA04_2IFC_2019_Jun_17_1226_497,stimulusMIJA04_2IFC_2019_Jun_17_1226_498,False,2019_Jun_17_1226,2IFC,2,MIJA04,
2IFC,24,0,24,0,1,-1,wrong answer,0.466905000008,True,False,stimulusMIJA04_2IFC_2019_Jun_17_1226_499,stimulusMIJA04_2IFC_2019_Jun_17_1226_500,False,2019_Jun_17_1226,2IFC,2,MIJA04,
2IFC,25,0,25,0,1,-1,correct answer,0.366903800023,True,False,stimulusMIJA04_2IFC_2019_Jun_17_1226_501,stimulusMIJA04_2IFC_2019_Jun_17_1226_502,False,2019_Jun_17_1226,2IFC,2,MIJA04,
2IFC,26,0,26,0,1,-1,wrong answer,0.434010800003,True,False,stimulusMIJA04_2IFC_2019_Jun_17_1226_503,stimulusMIJA04_2IFC_2019_Jun_17_1226_504,False,2019_Jun_17_1226,2IFC,2,MIJA04,
2IFC,27,0,27,0,1,-1,correct answer,0.534113600006,False,True,stimulusMIJA04_2IFC_2019_Jun_17_1226_505,stimulusMIJA04_2IFC_2019_Jun_17_1226_506,False,2019_Jun_17_1226,2IFC,2,MIJA04,
2IFC,28,0,28,0,1,-1,correct answer,0.500544500013,False,True,stimulusMIJA04_2IFC_2019_Jun_17_1226_507,stimulusMIJA04_2IFC_2019_Jun_17_1226_508,False,2019_Jun_17_1226,2IFC,2,MIJA04,
2IFC,29,0,29,0,1,-1,wrong answer,0.435274500021,False,True,stimulusMIJA04_2IFC_2019_Jun_17_1226_509,stimulusMIJA04_2IFC_2019_Jun_17_1226_510,False,2019_Jun_17_1226,2IFC,2,MIJA04,
2IFC,30,0,30,0,1,-1,correct answer,0.399963600008,False,True,stimulusMIJA04_2IFC_2019_Jun_17_1226_511,stimulusMIJA04_2IFC_2019_Jun_17_1226_512,False,2019_Jun_17_1226,2IFC,2,MIJA04,
2IFC,31,0,31,0,1,-1,correct answer,0.400848399993,False,True,stimulusMIJA04_2IFC_2019_Jun_17_1226_513,stimulusMIJA04_2IFC_2019_Jun_17_1226_514,False,2019_Jun_17_1226,2IFC,2,MIJA04,
2IFC,32,0,32,0,1,-1,wrong answer,0.334629599995,False,True,stimulusMIJA04_2IFC_2019_Jun_17_1226_515,stimulusMIJA04_2IFC_2019_Jun_17_1226_516,False,2019_Jun_17_1226,2IFC,2,MIJA04,
2IFC,33,0,33,0,1,-1,wrong answer,0.301724599994,True,False,stimulusMIJA04_2IFC_2019_Jun_17_1226_517,stimulusMIJA04_2IFC_2019_Jun_17_1226_518,False,2019_Jun_17_1226,2IFC,2,MIJA04,
2IFC,34,0,34,0,1,-1,wrong answer,0.333994200017,False,True,stimulusMIJA04_2IFC_2019_Jun_17_1226_519,stimulusMIJA04_2IFC_2019_Jun_17_1226_520,False,2019_Jun_17_1226,2IFC,2,MIJA04,
2IFC,35,0,35,0,1,-1,correct answer,0.233876600018,False,True,stimulusMIJA04_2IFC_2019_Jun_17_1226_521,stimulusMIJA04_2IFC_2019_Jun_17_1226_522,False,2019_Jun_17_1226,2IFC,2,MIJA04,
2IFC,36,0,36,0,1,-1,wrong answer,0.434402300016,False,True,stimulusMIJA04_2IFC_2019_Jun_17_1226_523,stimulusMIJA04_2IFC_2019_Jun_17_1226_524,False,2019_Jun_17_1226,2IFC,2,MIJA04,
2IFC,37,0,37,0,1,-1,wrong answer,0.533963199996,True,False,stimulusMIJA04_2IFC_2019_Jun_17_1226_525,stimulusMIJA04_2IFC_2019_Jun_17_1226_526,False,2019_Jun_17_1226,2IFC,2,MIJA04,
2IFC,38,0,38,0,1,-1,correct answer,0.200500800012,True,False,stimulusMIJA04_2IFC_2019_Jun_17_1226_527,stimulusMIJA04_2IFC_2019_Jun_17_1226_528,False,2019_Jun_17_1226,2IFC,2,MIJA04,
2IFC,39,0,39,0,1,-1,correct answer,0.500633899996,True,False,stimulusMIJA04_2IFC_2019_Jun_17_1226_529,stimulusMIJA04_2IFC_2019_Jun_17_1226_530,False,2019_Jun_17_1226,2IFC,2,MIJA04,
2IFC,40,0,40,0,1,-1,wrong answer,0.534007099981,True,False,stimulusMIJA04_2IFC_2019_Jun_17_1226_531,stimulusMIJA04_2IFC_2019_Jun_17_1226_532,False,2019_Jun_17_1226,2IFC,2,MIJA04,
2IFC,41,0,41,0,1,-1,wrong answer,0.233591099997,True,False,stimulusMIJA04_2IFC_2019_Jun_17_1226_533,stimulusMIJA04_2IFC_2019_Jun_17_1226_534,False,2019_Jun_17_1226,2IFC,2,MIJA04,
2IFC,42,0,42,0,1,-1,correct answer,0.534023899992,False,True,stimulusMIJA04_2IFC_2019_Jun_17_1226_535,stimulusMIJA04_2IFC_2019_Jun_17_1226_536,False,2019_Jun_17_1226,2IFC,2,MIJA04,
2IFC,43,0,43,0,1,-1,wrong answer,0.635540299991,True,False,stimulusMIJA04_2IFC_2019_Jun_17_1226_537,stimulusMIJA04_2IFC_2019_Jun_17_1226_538,False,2019_Jun_17_1226,2IFC,2,MIJA04,
2IFC,44,0,44,0,1,-1,wrong answer,0.401002500003,False,True,stimulusMIJA04_2IFC_2019_Jun_17_1226_539,stimulusMIJA04_2IFC_2019_Jun_17_1226_540,False,2019_Jun_17_1226,2IFC,2,MIJA04,
2IFC,45,0,45,0,1,-1,correct answer,0.367145299999,True,False,stimulusMIJA04_2IFC_2019_Jun_17_1226_541,stimulusMIJA04_2IFC_2019_Jun_17_1226_542,False,2019_Jun_17_1226,2IFC,2,MIJA04,
2IFC,46,0,46,0,1,-1,correct answer,0.535157699982,True,False,stimulusMIJA04_2IFC_2019_Jun_17_1226_543,stimulusMIJA04_2IFC_2019_Jun_17_1226_544,False,2019_Jun_17_1226,2IFC,2,MIJA04,
2IFC,47,0,47,0,1,-1,correct answer,0.367399799987,True,False,stimulusMIJA04_2IFC_2019_Jun_17_1226_545,stimulusMIJA04_2IFC_2019_Jun_17_1226_546,False,2019_Jun_17_1226,2IFC,2,MIJA04,
2IFC,48,0,48,0,1,-1,correct answer,0.400230900006,True,False,stimulusMIJA04_2IFC_2019_Jun_17_1226_547,stimulusMIJA04_2IFC_2019_Jun_17_1226_548,False,2019_Jun_17_1226,2IFC,2,MIJA04,
2IFC,49,0,49,0,1,-1,correct answer,0.46718539999,False,True,stimulusMIJA04_2IFC_2019_Jun_17_1226_549,stimulusMIJA04_2IFC_2019_Jun_17_1226_550,False,2019_Jun_17_1226,2IFC,2,MIJA04,
2IFC,50,0,50,0,1,-1,correct answer,0.402341700013,True,False,stimulusMIJA04_2IFC_2019_Jun_17_1226_551,stimulusMIJA04_2IFC_2019_Jun_17_1226_552,False,2019_Jun_17_1226,2IFC,2,MIJA04,
2IFC,51,0,51,0,1,-1,wrong answer,0.233889199997,True,False,stimulusMIJA04_2IFC_2019_Jun_17_1226_553,stimulusMIJA04_2IFC_2019_Jun_17_1226_554,False,2019_Jun_17_1226,2IFC,2,MIJA04,
2IFC,52,0,52,0,1,-1,correct answer,0.4005779,True,False,stimulusMIJA04_2IFC_2019_Jun_17_1226_555,stimulusMIJA04_2IFC_2019_Jun_17_1226_556,False,2019_Jun_17_1226,2IFC,2,MIJA04,
2IFC,53,0,53,0,1,-1,correct answer,0.733914500015,False,True,stimulusMIJA04_2IFC_2019_Jun_17_1226_557,stimulusMIJA04_2IFC_2019_Jun_17_1226_558,False,2019_Jun_17_1226,2IFC,2,MIJA04,
2IFC,54,0,54,0,1,-1,correct answer,0.700712899998,False,True,stimulusMIJA04_2IFC_2019_Jun_17_1226_559,stimulusMIJA04_2IFC_2019_Jun_17_1226_560,False,2019_Jun_17_1226,2IFC,2,MIJA04,
2IFC,55,0,55,0,1,-1,correct answer,0.367346899991,True,False,stimulusMIJA04_2IFC_2019_Jun_17_1226_561,stimulusMIJA04_2IFC_2019_Jun_17_1226_562,False,2019_Jun_17_1226,2IFC,2,MIJA04,
2IFC,56,0,56,0,1,-1,wrong answer,0.401374100009,False,True,stimulusMIJA04_2IFC_2019_Jun_17_1226_563,stimulusMIJA04_2IFC_2019_Jun_17_1226_564,False,2019_Jun_17_1226,2IFC,2,MIJA04,
2IFC,57,0,57,0,1,-1,wrong answer,0.732808100001,False,True,stimulusMIJA04_2IFC_2019_Jun_17_1226_565,stimulusMIJA04_2IFC_2019_Jun_17_1226_566,False,2019_Jun_17_1226,2IFC,2,MIJA04,
2IFC,58,0,58,0,1,-1,wrong answer,0.467106199998,True,False,stimulusMIJA04_2IFC_2019_Jun_17_1226_567,stimulusMIJA04_2IFC_2019_Jun_17_1226_568,False,2019_Jun_17_1226,2IFC,2,MIJA04,
2IFC,59,0,59,0,1,-1,wrong answer,0.567413699988,True,False,stimulusMIJA04_2IFC_2019_Jun_17_1226_569,stimulusMIJA04_2IFC_2019_Jun_17_1226_570,False,2019_Jun_17_1226,2IFC,2,MIJA04,
2IFC,60,0,60,0,1,-1,wrong answer,0.30071000001,False,True,stimulusMIJA04_2IFC_2019_Jun_17_1226_571,stimulusMIJA04_2IFC_2019_Jun_17_1226_572,False,2019_Jun_17_1226,2IFC,2,MIJA04,
2IFC,61,0,61,0,1,-1,correct answer,0.333874199976,False,True,stimulusMIJA04_2IFC_2019_Jun_17_1226_573,stimulusMIJA04_2IFC_2019_Jun_17_1226_574,False,2019_Jun_17_1226,2IFC,2,MIJA04,
2IFC,62,0,62,0,1,-1,wrong answer,0.33360849999,False,True,stimulusMIJA04_2IFC_2019_Jun_17_1226_575,stimulusMIJA04_2IFC_2019_Jun_17_1226_576,False,2019_Jun_17_1226,2IFC,2,MIJA04,
2IFC,63,0,63,0,1,-1,wrong answer,0.635871599981,True,False,stimulusMIJA04_2IFC_2019_Jun_17_1226_577,stimulusMIJA04_2IFC_2019_Jun_17_1226_578,False,2019_Jun_17_1226,2IFC,2,MIJA04,
2IFC,64,0,64,0,1,-1,correct answer,0.368242900004,True,False,stimulusMIJA04_2IFC_2019_Jun_17_1226_579,stimulusMIJA04_2IFC_2019_Jun_17_1226_580,False,2019_Jun_17_1226,2IFC,2,MIJA04,
2IFC,65,0,65,0,1,-1,correct answer,0.270768499991,False,True,stimulusMIJA04_2IFC_2019_Jun_17_1226_581,stimulusMIJA04_2IFC_2019_Jun_17_1226_582,False,2019_Jun_17_1226,2IFC,2,MIJA04,
2IFC,66,0,66,0,1,-1,wrong answer,0.434007599979,False,True,stimulusMIJA04_2IFC_2019_Jun_17_1226_583,stimulusMIJA04_2IFC_2019_Jun_17_1226_584,False,2019_Jun_17_1226,2IFC,2,MIJA04,
2IFC,67,0,67,0,1,-1,correct answer,0.267349800008,True,False,stimulusMIJA04_2IFC_2019_Jun_17_1226_585,stimulusMIJA04_2IFC_2019_Jun_17_1226_586,False,2019_Jun_17_1226,2IFC,2,MIJA04,
2IFC,68,0,68,0,1,-1,correct answer,0.4676072,True,False,stimulusMIJA04_2IFC_2019_Jun_17_1226_587,stimulusMIJA04_2IFC_2019_Jun_17_1226_588,False,2019_Jun_17_1226,2IFC,2,MIJA04,
2IFC,69,0,69,0,1,-1,correct answer,0.534120600001,False,True,stimulusMIJA04_2IFC_2019_Jun_17_1226_589,stimulusMIJA04_2IFC_2019_Jun_17_1226_590,False,2019_Jun_17_1226,2IFC,2,MIJA04,
2IFC,70,0,70,0,1,-1,correct answer,0.3012399,True,False,stimulusMIJA04_2IFC_2019_Jun_17_1226_591,stimulusMIJA04_2IFC_2019_Jun_17_1226_592,False,2019_Jun_17_1226,2IFC,2,MIJA04,
2IFC,71,0,71,0,1,-1,wrong answer,0.367683400022,False,True,stimulusMIJA04_2IFC_2019_Jun_17_1226_593,stimulusMIJA04_2IFC_2019_Jun_17_1226_594,False,2019_Jun_17_1226,2IFC,2,MIJA04,
2IFC,72,0,72,0,1,-1,wrong answer,0.100558899983,True,False,stimulusMIJA04_2IFC_2019_Jun_17_1226_595,stimulusMIJA04_2IFC_2019_Jun_17_1226_596,False,2019_Jun_17_1226,2IFC,2,MIJA04,
2IFC,73,0,73,0,1,-1,wrong answer,0.133341000008,False,True,stimulusMIJA04_2IFC_2019_Jun_17_1226_597,stimulusMIJA04_2IFC_2019_Jun_17_1226_598,False,2019_Jun_17_1226,2IFC,2,MIJA04,
2IFC,74,0,74,0,1,-1,correct answer,0.200593599991,True,False,stimulusMIJA04_2IFC_2019_Jun_17_1226_599,stimulusMIJA04_2IFC_2019_Jun_17_1226_600,False,2019_Jun_17_1226,2IFC,2,MIJA04,
2IFC,0,0,0,0,1.7,-1,correct answer,0.634006100008,False,True,stimulusMIJA04_2IFC_2019_Jun_17_1226_601,stimulusMIJA04_2IFC_2019_Jun_17_1226_602,False,2019_Jun_17_1226,2IFC,2,MIJA04,
2IFC,1,0,1,0,1.7,-1,correct answer,0.500817199994,True,False,stimulusMIJA04_2IFC_2019_Jun_17_1226_603,stimulusMIJA04_2IFC_2019_Jun_17_1226_604,False,2019_Jun_17_1226,2IFC,2,MIJA04,
2IFC,2,0,2,0,1.7,-1,wrong answer,0.300322700001,True,False,stimulusMIJA04_2IFC_2019_Jun_17_1226_605,stimulusMIJA04_2IFC_2019_Jun_17_1226_606,False,2019_Jun_17_1226,2IFC,2,MIJA04,
2IFC,3,0,3,0,1.7,-1,correct answer,0.267269999982,False,True,stimulusMIJA04_2IFC_2019_Jun_17_1226_607,stimulusMIJA04_2IFC_2019_Jun_17_1226_608,False,2019_Jun_17_1226,2IFC,2,MIJA04,
2IFC,4,0,4,0,1.7,-1,wrong answer,0.334232000023,False,True,stimulusMIJA04_2IFC_2019_Jun_17_1226_609,stimulusMIJA04_2IFC_2019_Jun_17_1226_610,False,2019_Jun_17_1226,2IFC,2,MIJA04,
2IFC,5,0,5,0,1.7,-1,correct answer,0.300913600018,True,False,stimulusMIJA04_2IFC_2019_Jun_17_1226_611,stimulusMIJA04_2IFC_2019_Jun_17_1226_612,False,2019_Jun_17_1226,2IFC,2,MIJA04,
2IFC,6,0,6,0,1.7,-1,correct answer,0.300392600009,False,True,stimulusMIJA04_2IFC_2019_Jun_17_1226_613,stimulusMIJA04_2IFC_2019_Jun_17_1226_614,False,2019_Jun_17_1226,2IFC,2,MIJA04,
2IFC,7,0,7,0,1.7,-1,wrong answer,0.367622299993,False,True,stimulusMIJA04_2IFC_2019_Jun_17_1226_615,stimulusMIJA04_2IFC_2019_Jun_17_1226_616,False,2019_Jun_17_1226,2IFC,2,MIJA04,
2IFC,8,0,8,0,1.7,-1,wrong answer,0.266473100026,False,True,stimulusMIJA04_2IFC_2019_Jun_17_1226_617,stimulusMIJA04_2IFC_2019_Jun_17_1226_618,False,2019_Jun_17_1226,2IFC,2,MIJA04,
2IFC,9,0,9,0,1.7,-1,correct answer,0.467113199993,False,True,stimulusMIJA04_2IFC_2019_Jun_17_1226_619,stimulusMIJA04_2IFC_2019_Jun_17_1226_620,False,2019_Jun_17_1226,2IFC,2,MIJA04,
2IFC,10,0,10,0,1.7,-1,correct answer,0.566436599998,True,False,stimulusMIJA04_2IFC_2019_Jun_17_1226_621,stimulusMIJA04_2IFC_2019_Jun_17_1226_622,False,2019_Jun_17_1226,2IFC,2,MIJA04,
2IFC,11,0,11,0,1.7,-1,correct answer,0.400898899999,True,False,stimulusMIJA04_2IFC_2019_Jun_17_1226_623,stimulusMIJA04_2IFC_2019_Jun_17_1226_624,False,2019_Jun_17_1226,2IFC,2,MIJA04,
2IFC,12,0,12,0,1.7,-1,wrong answer,0.600572099996,False,True,stimulusMIJA04_2IFC_2019_Jun_17_1226_625,stimulusMIJA04_2IFC_2019_Jun_17_1226_626,False,2019_Jun_17_1226,2IFC,2,MIJA04,
2IFC,13,0,13,0,1.7,-1,wrong answer,0.567609500024,False,True,stimulusMIJA04_2IFC_2019_Jun_17_1226_627,stimulusMIJA04_2IFC_2019_Jun_17_1226_628,False,2019_Jun_17_1226,2IFC,2,MIJA04,
2IFC,14,0,14,0,1.7,-1,correct answer,0.434369399998,False,True,stimulusMIJA04_2IFC_2019_Jun_17_1226_629,stimulusMIJA04_2IFC_2019_Jun_17_1226_630,False,2019_Jun_17_1226,2IFC,2,MIJA04,
2IFC,15,0,15,0,1.7,-1,wrong answer,0.434579000022,False,True,stimulusMIJA04_2IFC_2019_Jun_17_1226_631,stimulusMIJA04_2IFC_2019_Jun_17_1226_632,False,2019_Jun_17_1226,2IFC,2,MIJA04,
2IFC,16,0,16,0,1.7,-1,wrong answer,0.600810400007,False,True,stimulusMIJA04_2IFC_2019_Jun_17_1226_633,stimulusMIJA04_2IFC_2019_Jun_17_1226_634,False,2019_Jun_17_1226,2IFC,2,MIJA04,
2IFC,17,0,17,0,1.7,-1,correct answer,0.466488000005,True,False,stimulusMIJA04_2IFC_2019_Jun_17_1226_635,stimulusMIJA04_2IFC_2019_Jun_17_1226_636,False,2019_Jun_17_1226,2IFC,2,MIJA04,
2IFC,18,0,18,0,1.7,-1,correct answer,0.500738200004,True,False,stimulusMIJA04_2IFC_2019_Jun_17_1226_637,stimulusMIJA04_2IFC_2019_Jun_17_1226_638,False,2019_Jun_17_1226,2IFC,2,MIJA04,
2IFC,19,0,19,0,1.7,-1,correct answer,0.433656699985,True,False,stimulusMIJA04_2IFC_2019_Jun_17_1226_639,stimulusMIJA04_2IFC_2019_Jun_17_1226_640,False,2019_Jun_17_1226,2IFC,2,MIJA04,
2IFC,20,0,20,0,1.7,-1,wrong answer,0.367272700008,False,True,stimulusMIJA04_2IFC_2019_Jun_17_1226_641,stimulusMIJA04_2IFC_2019_Jun_17_1226_642,False,2019_Jun_17_1226,2IFC,2,MIJA04,
2IFC,21,0,21,0,1.7,-1,wrong answer,0.434027200012,True,False,stimulusMIJA04_2IFC_2019_Jun_17_1226_643,stimulusMIJA04_2IFC_2019_Jun_17_1226_644,False,2019_Jun_17_1226,2IFC,2,MIJA04,
2IFC,22,0,22,0,1.7,-1,correct answer,0.0670196999854,False,True,stimulusMIJA04_2IFC_2019_Jun_17_1226_645,stimulusMIJA04_2IFC_2019_Jun_17_1226_646,False,2019_Jun_17_1226,2IFC,2,MIJA04,
2IFC,23,0,23,0,1.7,-1,wrong answer,0.500417100004,True,False,stimulusMIJA04_2IFC_2019_Jun_17_1226_647,stimulusMIJA04_2IFC_2019_Jun_17_1226_648,False,2019_Jun_17_1226,2IFC,2,MIJA04,
2IFC,24,0,24,0,1.7,-1,correct answer,0.565079199994,True,False,stimulusMIJA04_2IFC_2019_Jun_17_1226_649,stimulusMIJA04_2IFC_2019_Jun_17_1226_650,False,2019_Jun_17_1226,2IFC,2,MIJA04,
2IFC,25,0,25,0,1.7,-1,wrong answer,0.467951400002,False,True,stimulusMIJA04_2IFC_2019_Jun_17_1226_651,stimulusMIJA04_2IFC_2019_Jun_17_1226_652,False,2019_Jun_17_1226,2IFC,2,MIJA04,
2IFC,26,0,26,0,1.7,-1,correct answer,0.667302300018,True,False,stimulusMIJA04_2IFC_2019_Jun_17_1226_653,stimulusMIJA04_2IFC_2019_Jun_17_1226_654,False,2019_Jun_17_1226,2IFC,2,MIJA04,
2IFC,27,0,27,0,1.7,-1,wrong answer,0.800774000003,True,False,stimulusMIJA04_2IFC_2019_Jun_17_1226_655,stimulusMIJA04_2IFC_2019_Jun_17_1226_656,False,2019_Jun_17_1226,2IFC,2,MIJA04,
2IFC,28,0,28,0,1.7,-1,correct answer,0.634227400005,True,False,stimulusMIJA04_2IFC_2019_Jun_17_1226_657,stimulusMIJA04_2IFC_2019_Jun_17_1226_658,False,2019_Jun_17_1226,2IFC,2,MIJA04,
2IFC,29,0,29,0,1.7,-1,correct answer,0.500543900009,False,True,stimulusMIJA04_2IFC_2019_Jun_17_1226_659,stimulusMIJA04_2IFC_2019_Jun_17_1226_660,False,2019_Jun_17_1226,2IFC,2,MIJA04,
2IFC,30,0,30,0,1.7,-1,correct answer,0.400213000015,True,False,stimulusMIJA04_2IFC_2019_Jun_17_1226_661,stimulusMIJA04_2IFC_2019_Jun_17_1226_662,False,2019_Jun_17_1226,2IFC,2,MIJA04,
2IFC,31,0,31,0,1.7,-1,wrong answer,0.435170299985,False,True,stimulusMIJA04_2IFC_2019_Jun_17_1226_663,stimulusMIJA04_2IFC_2019_Jun_17_1226_664,False,2019_Jun_17_1226,2IFC,2,MIJA04,
2IFC,32,0,32,0,1.7,-1,correct answer,0.600582000014,True,False,stimulusMIJA04_2IFC_2019_Jun_17_1226_665,stimulusMIJA04_2IFC_2019_Jun_17_1226_666,False,2019_Jun_17_1226,2IFC,2,MIJA04,
2IFC,33,0,33,0,1.7,-1,wrong answer,0.433506899979,True,False,stimulusMIJA04_2IFC_2019_Jun_17_1226_667,stimulusMIJA04_2IFC_2019_Jun_17_1226_668,False,2019_Jun_17_1226,2IFC,2,MIJA04,
2IFC,34,0,34,0,1.7,-1,wrong answer,0.834338599991,True,False,stimulusMIJA04_2IFC_2019_Jun_17_1226_669,stimulusMIJA04_2IFC_2019_Jun_17_1226_670,False,2019_Jun_17_1226,2IFC,2,MIJA04,
2IFC,35,0,35,0,1.7,-1,correct answer,0.200484000001,True,False,stimulusMIJA04_2IFC_2019_Jun_17_1226_671,stimulusMIJA04_2IFC_2019_Jun_17_1226_672,False,2019_Jun_17_1226,2IFC,2,MIJA04,
2IFC,36,0,36,0,1.7,-1,correct answer,0.600515700004,False,True,stimulusMIJA04_2IFC_2019_Jun_17_1226_673,stimulusMIJA04_2IFC_2019_Jun_17_1226_674,False,2019_Jun_17_1226,2IFC,2,MIJA04,
2IFC,37,0,37,0,1.7,-1,wrong answer,0.367179399997,False,True,stimulusMIJA04_2IFC_2019_Jun_17_1226_675,stimulusMIJA04_2IFC_2019_Jun_17_1226_676,False,2019_Jun_17_1226,2IFC,2,MIJA04,
2IFC,38,0,38,0,1.7,-1,correct answer,0.234844899998,False,True,stimulusMIJA04_2IFC_2019_Jun_17_1226_677,stimulusMIJA04_2IFC_2019_Jun_17_1226_678,False,2019_Jun_17_1226,2IFC,2,MIJA04,
2IFC,39,0,39,0,1.7,-1,correct answer,0.5674229,False,True,stimulusMIJA04_2IFC_2019_Jun_17_1226_679,stimulusMIJA04_2IFC_2019_Jun_17_1226_680,False,2019_Jun_17_1226,2IFC,2,MIJA04,
2IFC,40,0,40,0,1.7,-1,wrong answer,0.267286499991,False,True,stimulusMIJA04_2IFC_2019_Jun_17_1226_681,stimulusMIJA04_2IFC_2019_Jun_17_1226_682,False,2019_Jun_17_1226,2IFC,2,MIJA04,
2IFC,41,0,41,0,1.7,-1,correct answer,0.600780500012,True,False,stimulusMIJA04_2IFC_2019_Jun_17_1226_683,stimulusMIJA04_2IFC_2019_Jun_17_1226_684,False,2019_Jun_17_1226,2IFC,2,MIJA04,
2IFC,42,0,42,0,1.7,-1,correct answer,0.433803400025,True,False,stimulusMIJA04_2IFC_2019_Jun_17_1226_685,stimulusMIJA04_2IFC_2019_Jun_17_1226_686,False,2019_Jun_17_1226,2IFC,2,MIJA04,
2IFC,43,0,43,0,1.7,-1,correct answer,0.669274799991,True,False,stimulusMIJA04_2IFC_2019_Jun_17_1226_687,stimulusMIJA04_2IFC_2019_Jun_17_1226_688,False,2019_Jun_17_1226,2IFC,2,MIJA04,
2IFC,44,0,44,0,1.7,-1,wrong answer,0.332961200009,False,True,stimulusMIJA04_2IFC_2019_Jun_17_1226_689,stimulusMIJA04_2IFC_2019_Jun_17_1226_690,False,2019_Jun_17_1226,2IFC,2,MIJA04,
2IFC,45,0,45,0,1.7,-1,correct answer,0.300803099992,False,True,stimulusMIJA04_2IFC_2019_Jun_17_1226_691,stimulusMIJA04_2IFC_2019_Jun_17_1226_692,False,2019_Jun_17_1226,2IFC,2,MIJA04,
2IFC,46,0,46,0,1.7,-1,correct answer,0.501243899984,True,False,stimulusMIJA04_2IFC_2019_Jun_17_1226_693,stimulusMIJA04_2IFC_2019_Jun_17_1226_694,False,2019_Jun_17_1226,2IFC,2,MIJA04,
2IFC,47,0,47,0,1.7,-1,correct answer,0.33368380001,False,True,stimulusMIJA04_2IFC_2019_Jun_17_1226_695,stimulusMIJA04_2IFC_2019_Jun_17_1226_696,False,2019_Jun_17_1226,2IFC,2,MIJA04,
2IFC,48,0,48,0,1.7,-1,correct answer,0.4337772,True,False,stimulusMIJA04_2IFC_2019_Jun_17_1226_697,stimulusMIJA04_2IFC_2019_Jun_17_1226_698,False,2019_Jun_17_1226,2IFC,2,MIJA04,
2IFC,49,0,49,0,1.7,-1,wrong answer,0.433959699993,False,True,stimulusMIJA04_2IFC_2019_Jun_17_1226_699,stimulusMIJA04_2IFC_2019_Jun_17_1226_700,False,2019_Jun_17_1226,2IFC,2,MIJA04,
2IFC,50,0,50,0,1.7,-1,correct answer,0.267197600013,True,False,stimulusMIJA04_2IFC_2019_Jun_17_1226_701,stimulusMIJA04_2IFC_2019_Jun_17_1226_702,False,2019_Jun_17_1226,2IFC,2,MIJA04,
2IFC,51,0,51,0,1.7,-1,correct answer,0.400069199997,True,False,stimulusMIJA04_2IFC_2019_Jun_17_1226_703,stimulusMIJA04_2IFC_2019_Jun_17_1226_704,False,2019_Jun_17_1226,2IFC,2,MIJA04,
2IFC,52,0,52,0,1.7,-1,correct answer,0.434053699981,True,False,stimulusMIJA04_2IFC_2019_Jun_17_1226_705,stimulusMIJA04_2IFC_2019_Jun_17_1226_706,False,2019_Jun_17_1226,2IFC,2,MIJA04,
2IFC,53,0,53,0,1.7,-1,correct answer,0.466916900012,True,False,stimulusMIJA04_2IFC_2019_Jun_17_1226_707,stimulusMIJA04_2IFC_2019_Jun_17_1226_708,False,2019_Jun_17_1226,2IFC,2,MIJA04,
2IFC,54,0,54,0,1.7,-1,correct answer,0.100261399988,False,True,stimulusMIJA04_2IFC_2019_Jun_17_1226_709,stimulusMIJA04_2IFC_2019_Jun_17_1226_710,False,2019_Jun_17_1226,2IFC,2,MIJA04,
2IFC,55,0,55,0,1.7,-1,correct answer,0.700947500009,True,False,stimulusMIJA04_2IFC_2019_Jun_17_1226_711,stimulusMIJA04_2IFC_2019_Jun_17_1226_712,False,2019_Jun_17_1226,2IFC,2,MIJA04,
2IFC,56,0,56,0,1.7,-1,wrong answer,0.33335239999,False,True,stimulusMIJA04_2IFC_2019_Jun_17_1226_713,stimulusMIJA04_2IFC_2019_Jun_17_1226_714,False,2019_Jun_17_1226,2IFC,2,MIJA04,
2IFC,57,0,57,0,1.7,-1,wrong answer,0.700863699982,False,True,stimulusMIJA04_2IFC_2019_Jun_17_1226_715,stimulusMIJA04_2IFC_2019_Jun_17_1226_716,False,2019_Jun_17_1226,2IFC,2,MIJA04,
2IFC,58,0,58,0,1.7,-1,correct answer,0.60083380001,True,False,stimulusMIJA04_2IFC_2019_Jun_17_1226_717,stimulusMIJA04_2IFC_2019_Jun_17_1226_718,False,2019_Jun_17_1226,2IFC,2,MIJA04,
2IFC,59,0,59,0,1.7,-1,correct answer,0.401043499995,False,True,stimulusMIJA04_2IFC_2019_Jun_17_1226_719,stimulusMIJA04_2IFC_2019_Jun_17_1226_720,False,2019_Jun_17_1226,2IFC,2,MIJA04,
2IFC,60,0,60,0,1.7,-1,wrong answer,0.567378799984,False,True,stimulusMIJA04_2IFC_2019_Jun_17_1226_721,stimulusMIJA04_2IFC_2019_Jun_17_1226_722,False,2019_Jun_17_1226,2IFC,2,MIJA04,
2IFC,61,0,61,0,1.7,-1,correct answer,0.36735049999,False,True,stimulusMIJA04_2IFC_2019_Jun_17_1226_723,stimulusMIJA04_2IFC_2019_Jun_17_1226_724,False,2019_Jun_17_1226,2IFC,2,MIJA04,
2IFC,62,0,62,0,1.7,-1,correct answer,0.367212600017,True,False,stimulusMIJA04_2IFC_2019_Jun_17_1226_725,stimulusMIJA04_2IFC_2019_Jun_17_1226_726,False,2019_Jun_17_1226,2IFC,2,MIJA04,
2IFC,63,0,63,0,1.7,-1,correct answer,0.300077400025,False,True,stimulusMIJA04_2IFC_2019_Jun_17_1226_727,stimulusMIJA04_2IFC_2019_Jun_17_1226_728,False,2019_Jun_17_1226,2IFC,2,MIJA04,
2IFC,64,0,64,0,1.7,-1,correct answer,0.36681170002,True,False,stimulusMIJA04_2IFC_2019_Jun_17_1226_729,stimulusMIJA04_2IFC_2019_Jun_17_1226_730,False,2019_Jun_17_1226,2IFC,2,MIJA04,
2IFC,65,0,65,0,1.7,-1,wrong answer,0.633911199984,False,True,stimulusMIJA04_2IFC_2019_Jun_17_1226_731,stimulusMIJA04_2IFC_2019_Jun_17_1226_732,False,2019_Jun_17_1226,2IFC,2,MIJA04,
2IFC,66,0,66,0,1.7,-1,correct answer,0.23321169999,False,True,stimulusMIJA04_2IFC_2019_Jun_17_1226_733,stimulusMIJA04_2IFC_2019_Jun_17_1226_734,False,2019_Jun_17_1226,2IFC,2,MIJA04,
2IFC,67,0,67,0,1.7,-1,correct answer,0.533886699995,True,False,stimulusMIJA04_2IFC_2019_Jun_17_1226_735,stimulusMIJA04_2IFC_2019_Jun_17_1226_736,False,2019_Jun_17_1226,2IFC,2,MIJA04,
2IFC,68,0,68,0,1.7,-1,wrong answer,0.300028400001,True,False,stimulusMIJA04_2IFC_2019_Jun_17_1226_737,stimulusMIJA04_2IFC_2019_Jun_17_1226_738,False,2019_Jun_17_1226,2IFC,2,MIJA04,
2IFC,69,0,69,0,1.7,-1,wrong answer,0.533848899999,False,True,stimulusMIJA04_2IFC_2019_Jun_17_1226_739,stimulusMIJA04_2IFC_2019_Jun_17_1226_740,False,2019_Jun_17_1226,2IFC,2,MIJA04,
2IFC,70,0,70,0,1.7,-1,wrong answer,0.30177250001,True,False,stimulusMIJA04_2IFC_2019_Jun_17_1226_741,stimulusMIJA04_2IFC_2019_Jun_17_1226_742,False,2019_Jun_17_1226,2IFC,2,MIJA04,
2IFC,71,0,71,0,1.7,-1,correct answer,0.0337491999962,False,True,stimulusMIJA04_2IFC_2019_Jun_17_1226_743,stimulusMIJA04_2IFC_2019_Jun_17_1226_744,False,2019_Jun_17_1226,2IFC,2,MIJA04,
2IFC,72,0,72,0,1.7,-1,correct answer,0.300573899993,True,False,stimulusMIJA04_2IFC_2019_Jun_17_1226_745,stimulusMIJA04_2IFC_2019_Jun_17_1226_746,False,2019_Jun_17_1226,2IFC,2,MIJA04,
2IFC,73,0,73,0,1.7,-1,correct answer,0.434020699991,False,True,stimulusMIJA04_2IFC_2019_Jun_17_1226_747,stimulusMIJA04_2IFC_2019_Jun_17_1226_748,False,2019_Jun_17_1226,2IFC,2,MIJA04,
2IFC,74,0,74,0,1.7,-1,wrong answer,0.200602899975,True,False,stimulusMIJA04_2IFC_2019_Jun_17_1226_749,stimulusMIJA04_2IFC_2019_Jun_17_1226_750,False,2019_Jun_17_1226,2IFC,2,MIJA04,
2IFC,0,0,0,0,8,-1,no answer,-1,False,True,stimulusMIJA04_2IFC_2019_Jun_17_1226_751,stimulusMIJA04_2IFC_2019_Jun_17_1226_752,False,2019_Jun_17_1226,2IFC,2,MIJA04,
2IFC,1,0,1,0,8,-1,wrong answer,0.433942700009,False,True,stimulusMIJA04_2IFC_2019_Jun_17_1226_753,stimulusMIJA04_2IFC_2019_Jun_17_1226_754,False,2019_Jun_17_1226,2IFC,2,MIJA04,
2IFC,2,0,2,0,8,-1,correct answer,0.500778900023,False,True,stimulusMIJA04_2IFC_2019_Jun_17_1226_755,stimulusMIJA04_2IFC_2019_Jun_17_1226_756,False,2019_Jun_17_1226,2IFC,2,MIJA04,
2IFC,3,0,3,0,8,-1,correct answer,0.299457799993,True,False,stimulusMIJA04_2IFC_2019_Jun_17_1226_757,stimulusMIJA04_2IFC_2019_Jun_17_1226_758,False,2019_Jun_17_1226,2IFC,2,MIJA04,
2IFC,4,0,4,0,8,-1,correct answer,0.233870199998,False,True,stimulusMIJA04_2IFC_2019_Jun_17_1226_759,stimulusMIJA04_2IFC_2019_Jun_17_1226_760,False,2019_Jun_17_1226,2IFC,2,MIJA04,
2IFC,5,0,5,0,8,-1,correct answer,0.400295900006,False,True,stimulusMIJA04_2IFC_2019_Jun_17_1226_761,stimulusMIJA04_2IFC_2019_Jun_17_1226_762,False,2019_Jun_17_1226,2IFC,2,MIJA04,
2IFC,6,0,6,0,8,-1,correct answer,0.267210300022,False,True,stimulusMIJA04_2IFC_2019_Jun_17_1226_763,stimulusMIJA04_2IFC_2019_Jun_17_1226_764,False,2019_Jun_17_1226,2IFC,2,MIJA04,
2IFC,7,0,7,0,8,-1,correct answer,0.300307600002,True,False,stimulusMIJA04_2IFC_2019_Jun_17_1226_765,stimulusMIJA04_2IFC_2019_Jun_17_1226_766,False,2019_Jun_17_1226,2IFC,2,MIJA04,
2IFC,8,0,8,0,8,-1,correct answer,0.300763600011,True,False,stimulusMIJA04_2IFC_2019_Jun_17_1226_767,stimulusMIJA04_2IFC_2019_Jun_17_1226_768,False,2019_Jun_17_1226,2IFC,2,MIJA04,
2IFC,9,0,9,0,8,-1,correct answer,0.467192799988,False,True,stimulusMIJA04_2IFC_2019_Jun_17_1226_769,stimulusMIJA04_2IFC_2019_Jun_17_1226_770,False,2019_Jun_17_1226,2IFC,2,MIJA04,
2IFC,10,0,10,0,8,-1,correct answer,0.400418200006,False,True,stimulusMIJA04_2IFC_2019_Jun_17_1226_771,stimulusMIJA04_2IFC_2019_Jun_17_1226_772,False,2019_Jun_17_1226,2IFC,2,MIJA04,
2IFC,11,0,11,0,8,-1,correct answer,0.332726399996,False,True,stimulusMIJA04_2IFC_2019_Jun_17_1226_773,stimulusMIJA04_2IFC_2019_Jun_17_1226_774,False,2019_Jun_17_1226,2IFC,2,MIJA04,
2IFC,12,0,12,0,8,-1,correct answer,0.2667181,True,False,stimulusMIJA04_2IFC_2019_Jun_17_1226_775,stimulusMIJA04_2IFC_2019_Jun_17_1226_776,False,2019_Jun_17_1226,2IFC,2,MIJA04,
2IFC,13,0,13,0,8,-1,correct answer,0.267217999994,False,True,stimulusMIJA04_2IFC_2019_Jun_17_1226_777,stimulusMIJA04_2IFC_2019_Jun_17_1226_778,False,2019_Jun_17_1226,2IFC,2,MIJA04,
2IFC,14,0,14,0,8,-1,correct answer,0.399776100006,True,False,stimulusMIJA04_2IFC_2019_Jun_17_1226_779,stimulusMIJA04_2IFC_2019_Jun_17_1226_780,False,2019_Jun_17_1226,2IFC,2,MIJA04,
2IFC,15,0,15,0,8,-1,correct answer,0.700635899993,False,True,stimulusMIJA04_2IFC_2019_Jun_17_1226_781,stimulusMIJA04_2IFC_2019_Jun_17_1226_782,False,2019_Jun_17_1226,2IFC,2,MIJA04,
2IFC,16,0,16,0,8,-1,wrong answer,0.300547699997,False,True,stimulusMIJA04_2IFC_2019_Jun_17_1226_783,stimulusMIJA04_2IFC_2019_Jun_17_1226_784,False,2019_Jun_17_1226,2IFC,2,MIJA04,
2IFC,17,0,17,0,8,-1,correct answer,0.400531599997,False,True,stimulusMIJA04_2IFC_2019_Jun_17_1226_785,stimulusMIJA04_2IFC_2019_Jun_17_1226_786,False,2019_Jun_17_1226,2IFC,2,MIJA04,
2IFC,18,0,18,0,8,-1,correct answer,0.600371900015,True,False,stimulusMIJA04_2IFC_2019_Jun_17_1226_787,stimulusMIJA04_2IFC_2019_Jun_17_1226_788,False,2019_Jun_17_1226,2IFC,2,MIJA04,
2IFC,19,0,19,0,8,-1,correct answer,0.466904300003,True,False,stimulusMIJA04_2IFC_2019_Jun_17_1226_789,stimulusMIJA04_2IFC_2019_Jun_17_1226_790,False,2019_Jun_17_1226,2IFC,2,MIJA04,
2IFC,20,0,20,0,8,-1,correct answer,0.433501599997,True,False,stimulusMIJA04_2IFC_2019_Jun_17_1226_791,stimulusMIJA04_2IFC_2019_Jun_17_1226_792,False,2019_Jun_17_1226,2IFC,2,MIJA04,
2IFC,21,0,21,0,8,-1,correct answer,0.366428400012,True,False,stimulusMIJA04_2IFC_2019_Jun_17_1226_793,stimulusMIJA04_2IFC_2019_Jun_17_1226_794,False,2019_Jun_17_1226,2IFC,2,MIJA04,
2IFC,22,0,22,0,8,-1,correct answer,0.467323699995,True,False,stimulusMIJA04_2IFC_2019_Jun_17_1226_795,stimulusMIJA04_2IFC_2019_Jun_17_1226_796,False,2019_Jun_17_1226,2IFC,2,MIJA04,
2IFC,23,0,23,0,8,-1,correct answer,0.500529000012,True,False,stimulusMIJA04_2IFC_2019_Jun_17_1226_797,stimulusMIJA04_2IFC_2019_Jun_17_1226_798,False,2019_Jun_17_1226,2IFC,2,MIJA04,
2IFC,24,0,24,0,8,-1,correct answer,0.333838999999,False,True,stimulusMIJA04_2IFC_2019_Jun_17_1226_799,stimulusMIJA04_2IFC_2019_Jun_17_1226_800,False,2019_Jun_17_1226,2IFC,2,MIJA04,
2IFC,25,0,25,0,8,-1,correct answer,0.468936399993,False,True,stimulusMIJA04_2IFC_2019_Jun_17_1226_801,stimulusMIJA04_2IFC_2019_Jun_17_1226_802,False,2019_Jun_17_1226,2IFC,2,MIJA04,
2IFC,26,0,26,0,8,-1,correct answer,0.333768900018,False,True,stimulusMIJA04_2IFC_2019_Jun_17_1226_803,stimulusMIJA04_2IFC_2019_Jun_17_1226_804,False,2019_Jun_17_1226,2IFC,2,MIJA04,
2IFC,27,0,27,0,8,-1,correct answer,0.333807999996,False,True,stimulusMIJA04_2IFC_2019_Jun_17_1226_805,stimulusMIJA04_2IFC_2019_Jun_17_1226_806,False,2019_Jun_17_1226,2IFC,2,MIJA04,
2IFC,28,0,28,0,8,-1,correct answer,0.467810399976,False,True,stimulusMIJA04_2IFC_2019_Jun_17_1226_807,stimulusMIJA04_2IFC_2019_Jun_17_1226_808,False,2019_Jun_17_1226,2IFC,2,MIJA04,
2IFC,29,0,29,0,8,-1,correct answer,0.433847600012,True,False,stimulusMIJA04_2IFC_2019_Jun_17_1226_809,stimulusMIJA04_2IFC_2019_Jun_17_1226_810,False,2019_Jun_17_1226,2IFC,2,MIJA04,
2IFC,30,0,30,0,8,-1,correct answer,0.367174499988,False,True,stimulusMIJA04_2IFC_2019_Jun_17_1226_811,stimulusMIJA04_2IFC_2019_Jun_17_1226_812,False,2019_Jun_17_1226,2IFC,2,MIJA04,
2IFC,31,0,31,0,8,-1,correct answer,0.367300199985,True,False,stimulusMIJA04_2IFC_2019_Jun_17_1226_813,stimulusMIJA04_2IFC_2019_Jun_17_1226_814,False,2019_Jun_17_1226,2IFC,2,MIJA04,
2IFC,32,0,32,0,8,-1,correct answer,0.268093999999,False,True,stimulusMIJA04_2IFC_2019_Jun_17_1226_815,stimulusMIJA04_2IFC_2019_Jun_17_1226_816,False,2019_Jun_17_1226,2IFC,2,MIJA04,
2IFC,33,0,33,0,8,-1,correct answer,0.300612799998,True,False,stimulusMIJA04_2IFC_2019_Jun_17_1226_817,stimulusMIJA04_2IFC_2019_Jun_17_1226_818,False,2019_Jun_17_1226,2IFC,2,MIJA04,
2IFC,34,0,34,0,8,-1,correct answer,0.334431900003,True,False,stimulusMIJA04_2IFC_2019_Jun_17_1226_819,stimulusMIJA04_2IFC_2019_Jun_17_1226_820,False,2019_Jun_17_1226,2IFC,2,MIJA04,
2IFC,35,0,35,0,8,-1,correct answer,0.300561100012,True,False,stimulusMIJA04_2IFC_2019_Jun_17_1226_821,stimulusMIJA04_2IFC_2019_Jun_17_1226_822,False,2019_Jun_17_1226,2IFC,2,MIJA04,
2IFC,36,0,36,0,8,-1,correct answer,0.367207200004,False,True,stimulusMIJA04_2IFC_2019_Jun_17_1226_823,stimulusMIJA04_2IFC_2019_Jun_17_1226_824,False,2019_Jun_17_1226,2IFC,2,MIJA04,
2IFC,37,0,37,0,8,-1,correct answer,0.333459999994,False,True,stimulusMIJA04_2IFC_2019_Jun_17_1226_825,stimulusMIJA04_2IFC_2019_Jun_17_1226_826,False,2019_Jun_17_1226,2IFC,2,MIJA04,
2IFC,38,0,38,0,8,-1,correct answer,0.233953699993,True,False,stimulusMIJA04_2IFC_2019_Jun_17_1226_827,stimulusMIJA04_2IFC_2019_Jun_17_1226_828,False,2019_Jun_17_1226,2IFC,2,MIJA04,
2IFC,39,0,39,0,8,-1,correct answer,0.269356400007,False,True,stimulusMIJA04_2IFC_2019_Jun_17_1226_829,stimulusMIJA04_2IFC_2019_Jun_17_1226_830,False,2019_Jun_17_1226,2IFC,2,MIJA04,
2IFC,40,0,40,0,8,-1,correct answer,0.267618199985,True,False,stimulusMIJA04_2IFC_2019_Jun_17_1226_831,stimulusMIJA04_2IFC_2019_Jun_17_1226_832,False,2019_Jun_17_1226,2IFC,2,MIJA04,
2IFC,41,0,41,0,8,-1,correct answer,0.167146399996,False,True,stimulusMIJA04_2IFC_2019_Jun_17_1226_833,stimulusMIJA04_2IFC_2019_Jun_17_1226_834,False,2019_Jun_17_1226,2IFC,2,MIJA04,
2IFC,42,0,42,0,8,-1,correct answer,0.267099299992,False,True,stimulusMIJA04_2IFC_2019_Jun_17_1226_835,stimulusMIJA04_2IFC_2019_Jun_17_1226_836,False,2019_Jun_17_1226,2IFC,2,MIJA04,
2IFC,43,0,43,0,8,-1,correct answer,0.300623100018,True,False,stimulusMIJA04_2IFC_2019_Jun_17_1226_837,stimulusMIJA04_2IFC_2019_Jun_17_1226_838,False,2019_Jun_17_1226,2IFC,2,MIJA04,
2IFC,44,0,44,0,8,-1,correct answer,0.267240199988,True,False,stimulusMIJA04_2IFC_2019_Jun_17_1226_839,stimulusMIJA04_2IFC_2019_Jun_17_1226_840,False,2019_Jun_17_1226,2IFC,2,MIJA04,
2IFC,45,0,45,0,8,-1,correct answer,0.367392999993,True,False,stimulusMIJA04_2IFC_2019_Jun_17_1226_841,stimulusMIJA04_2IFC_2019_Jun_17_1226_842,False,2019_Jun_17_1226,2IFC,2,MIJA04,
2IFC,46,0,46,0,8,-1,correct answer,0.300630799989,True,False,stimulusMIJA04_2IFC_2019_Jun_17_1226_843,stimulusMIJA04_2IFC_2019_Jun_17_1226_844,False,2019_Jun_17_1226,2IFC,2,MIJA04,
2IFC,47,0,47,0,8,-1,correct answer,0.400116699981,True,False,stimulusMIJA04_2IFC_2019_Jun_17_1226_845,stimulusMIJA04_2IFC_2019_Jun_17_1226_846,False,2019_Jun_17_1226,2IFC,2,MIJA04,
2IFC,48,0,48,0,8,-1,correct answer,0.300464800006,False,True,stimulusMIJA04_2IFC_2019_Jun_17_1226_847,stimulusMIJA04_2IFC_2019_Jun_17_1226_848,False,2019_Jun_17_1226,2IFC,2,MIJA04,
2IFC,49,0,49,0,8,-1,correct answer,0.300484200008,True,False,stimulusMIJA04_2IFC_2019_Jun_17_1226_849,stimulusMIJA04_2IFC_2019_Jun_17_1226_850,False,2019_Jun_17_1226,2IFC,2,MIJA04,
2IFC,50,0,50,0,8,-1,correct answer,0.300328399986,True,False,stimulusMIJA04_2IFC_2019_Jun_17_1226_851,stimulusMIJA04_2IFC_2019_Jun_17_1226_852,False,2019_Jun_17_1226,2IFC,2,MIJA04,
2IFC,51,0,51,0,8,-1,correct answer,0.333974300011,True,False,stimulusMIJA04_2IFC_2019_Jun_17_1226_853,stimulusMIJA04_2IFC_2019_Jun_17_1226_854,False,2019_Jun_17_1226,2IFC,2,MIJA04,
2IFC,52,0,52,0,8,-1,correct answer,0.266658700013,True,False,stimulusMIJA04_2IFC_2019_Jun_17_1226_855,stimulusMIJA04_2IFC_2019_Jun_17_1226_856,False,2019_Jun_17_1226,2IFC,2,MIJA04,
2IFC,53,0,53,0,8,-1,correct answer,0.300722400018,True,False,stimulusMIJA04_2IFC_2019_Jun_17_1226_857,stimulusMIJA04_2IFC_2019_Jun_17_1226_858,False,2019_Jun_17_1226,2IFC,2,MIJA04,
2IFC,54,0,54,0,8,-1,wrong answer,0.467717299995,True,False,stimulusMIJA04_2IFC_2019_Jun_17_1226_859,stimulusMIJA04_2IFC_2019_Jun_17_1226_860,False,2019_Jun_17_1226,2IFC,2,MIJA04,
2IFC,55,0,55,0,8,-1,correct answer,0.334069500008,False,True,stimulusMIJA04_2IFC_2019_Jun_17_1226_861,stimulusMIJA04_2IFC_2019_Jun_17_1226_862,False,2019_Jun_17_1226,2IFC,2,MIJA04,
2IFC,56,0,56,0,8,-1,correct answer,0.334010999999,False,True,stimulusMIJA04_2IFC_2019_Jun_17_1226_863,stimulusMIJA04_2IFC_2019_Jun_17_1226_864,False,2019_Jun_17_1226,2IFC,2,MIJA04,
2IFC,57,0,57,0,8,-1,correct answer,0.333994799992,True,False,stimulusMIJA04_2IFC_2019_Jun_17_1226_865,stimulusMIJA04_2IFC_2019_Jun_17_1226_866,False,2019_Jun_17_1226,2IFC,2,MIJA04,
2IFC,58,0,58,0,8,-1,correct answer,0.299195500003,False,True,stimulusMIJA04_2IFC_2019_Jun_17_1226_867,stimulusMIJA04_2IFC_2019_Jun_17_1226_868,False,2019_Jun_17_1226,2IFC,2,MIJA04,
2IFC,59,0,59,0,8,-1,correct answer,0.431815799995,True,False,stimulusMIJA04_2IFC_2019_Jun_17_1226_869,stimulusMIJA04_2IFC_2019_Jun_17_1226_870,False,2019_Jun_17_1226,2IFC,2,MIJA04,
2IFC,60,0,60,0,8,-1,correct answer,0.200511999981,False,True,stimulusMIJA04_2IFC_2019_Jun_17_1226_871,stimulusMIJA04_2IFC_2019_Jun_17_1226_872,False,2019_Jun_17_1226,2IFC,2,MIJA04,
2IFC,61,0,61,0,8,-1,correct answer,0.334759999998,True,False,stimulusMIJA04_2IFC_2019_Jun_17_1226_873,stimulusMIJA04_2IFC_2019_Jun_17_1226_874,False,2019_Jun_17_1226,2IFC,2,MIJA04,
2IFC,62,0,62,0,8,-1,correct answer,0.301867000002,False,True,stimulusMIJA04_2IFC_2019_Jun_17_1226_875,stimulusMIJA04_2IFC_2019_Jun_17_1226_876,False,2019_Jun_17_1226,2IFC,2,MIJA04,
2IFC,63,0,63,0,8,-1,correct answer,0.40054979999,True,False,stimulusMIJA04_2IFC_2019_Jun_17_1226_877,stimulusMIJA04_2IFC_2019_Jun_17_1226_878,False,2019_Jun_17_1226,2IFC,2,MIJA04,
2IFC,64,0,64,0,8,-1,correct answer,0.534089699999,True,False,stimulusMIJA04_2IFC_2019_Jun_17_1226_879,stimulusMIJA04_2IFC_2019_Jun_17_1226_880,False,2019_Jun_17_1226,2IFC,2,MIJA04,
2IFC,65,0,65,0,8,-1,correct answer,0.434257399989,False,True,stimulusMIJA04_2IFC_2019_Jun_17_1226_881,stimulusMIJA04_2IFC_2019_Jun_17_1226_882,False,2019_Jun_17_1226,2IFC,2,MIJA04,
2IFC,66,0,66,0,8,-1,correct answer,0.367465500021,True,False,stimulusMIJA04_2IFC_2019_Jun_17_1226_883,stimulusMIJA04_2IFC_2019_Jun_17_1226_884,False,2019_Jun_17_1226,2IFC,2,MIJA04,
2IFC,67,0,67,0,8,-1,correct answer,0.4348894,False,True,stimulusMIJA04_2IFC_2019_Jun_17_1226_885,stimulusMIJA04_2IFC_2019_Jun_17_1226_886,False,2019_Jun_17_1226,2IFC,2,MIJA04,
2IFC,68,0,68,0,8,-1,correct answer,0.3324823,False,True,stimulusMIJA04_2IFC_2019_Jun_17_1226_887,stimulusMIJA04_2IFC_2019_Jun_17_1226_888,False,2019_Jun_17_1226,2IFC,2,MIJA04,
2IFC,69,0,69,0,8,-1,correct answer,0.267387999978,True,False,stimulusMIJA04_2IFC_2019_Jun_17_1226_889,stimulusMIJA04_2IFC_2019_Jun_17_1226_890,False,2019_Jun_17_1226,2IFC,2,MIJA04,
2IFC,70,0,70,0,8,-1,correct answer,0.267322500004,False,True,stimulusMIJA04_2IFC_2019_Jun_17_1226_891,stimulusMIJA04_2IFC_2019_Jun_17_1226_892,False,2019_Jun_17_1226,2IFC,2,MIJA04,
2IFC,71,0,71,0,8,-1,correct answer,0.300773900002,True,False,stimulusMIJA04_2IFC_2019_Jun_17_1226_893,stimulusMIJA04_2IFC_2019_Jun_17_1226_894,False,2019_Jun_17_1226,2IFC,2,MIJA04,
2IFC,72,0,72,0,8,-1,correct answer,0.233796400018,False,True,stimulusMIJA04_2IFC_2019_Jun_17_1226_895,stimulusMIJA04_2IFC_2019_Jun_17_1226_896,False,2019_Jun_17_1226,2IFC,2,MIJA04,
2IFC,73,0,73,0,8,-1,correct answer,0.267195299995,False,True,stimulusMIJA04_2IFC_2019_Jun_17_1226_897,stimulusMIJA04_2IFC_2019_Jun_17_1226_898,False,2019_Jun_17_1226,2IFC,2,MIJA04,
2IFC,74,0,74,0,8,-1,correct answer,0.333473000006,False,True,stimulusMIJA04_2IFC_2019_Jun_17_1226_899,stimulusMIJA04_2IFC_2019_Jun_17_1226_900,False,2019_Jun_17_1226,2IFC,2,MIJA04,
2IFC,0,0,0,0,6.6,-1,correct answer,0.434125900007,False,True,stimulusMIJA04_2IFC_2019_Jun_17_1226_901,stimulusMIJA04_2IFC_2019_Jun_17_1226_902,False,2019_Jun_17_1226,2IFC,2,MIJA04,
2IFC,1,0,1,0,6.6,-1,correct answer,0.300883700023,True,False,stimulusMIJA04_2IFC_2019_Jun_17_1226_903,stimulusMIJA04_2IFC_2019_Jun_17_1226_904,False,2019_Jun_17_1226,2IFC,2,MIJA04,
2IFC,2,0,2,0,6.6,-1,correct answer,0.300171400013,True,False,stimulusMIJA04_2IFC_2019_Jun_17_1226_905,stimulusMIJA04_2IFC_2019_Jun_17_1226_906,False,2019_Jun_17_1226,2IFC,2,MIJA04,
2IFC,3,0,3,0,6.6,-1,correct answer,0.304205799999,False,True,stimulusMIJA04_2IFC_2019_Jun_17_1226_907,stimulusMIJA04_2IFC_2019_Jun_17_1226_908,False,2019_Jun_17_1226,2IFC,2,MIJA04,
2IFC,4,0,4,0,6.6,-1,correct answer,0.433743400004,False,True,stimulusMIJA04_2IFC_2019_Jun_17_1226_909,stimulusMIJA04_2IFC_2019_Jun_17_1226_910,False,2019_Jun_17_1226,2IFC,2,MIJA04,
2IFC,5,0,5,0,6.6,-1,correct answer,0.700253699993,True,False,stimulusMIJA04_2IFC_2019_Jun_17_1226_911,stimulusMIJA04_2IFC_2019_Jun_17_1226_912,False,2019_Jun_17_1226,2IFC,2,MIJA04,
2IFC,6,0,6,0,6.6,-1,correct answer,0.600679399999,True,False,stimulusMIJA04_2IFC_2019_Jun_17_1226_913,stimulusMIJA04_2IFC_2019_Jun_17_1226_914,False,2019_Jun_17_1226,2IFC,2,MIJA04,
2IFC,7,0,7,0,6.6,-1,correct answer,0.367152300023,True,False,stimulusMIJA04_2IFC_2019_Jun_17_1226_915,stimulusMIJA04_2IFC_2019_Jun_17_1226_916,False,2019_Jun_17_1226,2IFC,2,MIJA04,
2IFC,8,0,8,0,6.6,-1,correct answer,0.333076699986,False,True,stimulusMIJA04_2IFC_2019_Jun_17_1226_917,stimulusMIJA04_2IFC_2019_Jun_17_1226_918,False,2019_Jun_17_1226,2IFC,2,MIJA04,
2IFC,9,0,9,0,6.6,-1,correct answer,0.469557900011,True,False,stimulusMIJA04_2IFC_2019_Jun_17_1226_919,stimulusMIJA04_2IFC_2019_Jun_17_1226_920,False,2019_Jun_17_1226,2IFC,2,MIJA04,
2IFC,10,0,10,0,6.6,-1,correct answer,0.400765400002,False,True,stimulusMIJA04_2IFC_2019_Jun_17_1226_921,stimulusMIJA04_2IFC_2019_Jun_17_1226_922,False,2019_Jun_17_1226,2IFC,2,MIJA04,
2IFC,11,0,11,0,6.6,-1,correct answer,0.234162399982,True,False,stimulusMIJA04_2IFC_2019_Jun_17_1226_923,stimulusMIJA04_2IFC_2019_Jun_17_1226_924,False,2019_Jun_17_1226,2IFC,2,MIJA04,
2IFC,12,0,12,0,6.6,-1,correct answer,0.267850899982,False,True,stimulusMIJA04_2IFC_2019_Jun_17_1226_925,stimulusMIJA04_2IFC_2019_Jun_17_1226_926,False,2019_Jun_17_1226,2IFC,2,MIJA04,
2IFC,13,0,13,0,6.6,-1,correct answer,0.433803799999,True,False,stimulusMIJA04_2IFC_2019_Jun_17_1226_927,stimulusMIJA04_2IFC_2019_Jun_17_1226_928,False,2019_Jun_17_1226,2IFC,2,MIJA04,
2IFC,14,0,14,0,6.6,-1,correct answer,0.400478099997,True,False,stimulusMIJA04_2IFC_2019_Jun_17_1226_929,stimulusMIJA04_2IFC_2019_Jun_17_1226_930,False,2019_Jun_17_1226,2IFC,2,MIJA04,
2IFC,15,0,15,0,6.6,-1,correct answer,0.300605700002,False,True,stimulusMIJA04_2IFC_2019_Jun_17_1226_931,stimulusMIJA04_2IFC_2019_Jun_17_1226_932,False,2019_Jun_17_1226,2IFC,2,MIJA04,
2IFC,16,0,16,0,6.6,-1,correct answer,0.301904799999,True,False,stimulusMIJA04_2IFC_2019_Jun_17_1226_933,stimulusMIJA04_2IFC_2019_Jun_17_1226_934,False,2019_Jun_17_1226,2IFC,2,MIJA04,
2IFC,17,0,17,0,6.6,-1,wrong answer,0.40218830001,False,True,stimulusMIJA04_2IFC_2019_Jun_17_1226_935,stimulusMIJA04_2IFC_2019_Jun_17_1226_936,False,2019_Jun_17_1226,2IFC,2,MIJA04,
2IFC,18,0,18,0,6.6,-1,correct answer,0.467423599999,True,False,stimulusMIJA04_2IFC_2019_Jun_17_1226_937,stimulusMIJA04_2IFC_2019_Jun_17_1226_938,False,2019_Jun_17_1226,2IFC,2,MIJA04,
2IFC,19,0,19,0,6.6,-1,correct answer,0.367268900009,True,False,stimulusMIJA04_2IFC_2019_Jun_17_1226_939,stimulusMIJA04_2IFC_2019_Jun_17_1226_940,False,2019_Jun_17_1226,2IFC,2,MIJA04,
2IFC,20,0,20,0,6.6,-1,correct answer,0.467670599988,True,False,stimulusMIJA04_2IFC_2019_Jun_17_1226_941,stimulusMIJA04_2IFC_2019_Jun_17_1226_942,False,2019_Jun_17_1226,2IFC,2,MIJA04,
2IFC,21,0,21,0,6.6,-1,correct answer,0.301195499982,False,True,stimulusMIJA04_2IFC_2019_Jun_17_1226_943,stimulusMIJA04_2IFC_2019_Jun_17_1226_944,False,2019_Jun_17_1226,2IFC,2,MIJA04,
2IFC,22,0,22,0,6.6,-1,correct answer,0.400557299989,True,False,stimulusMIJA04_2IFC_2019_Jun_17_1226_945,stimulusMIJA04_2IFC_2019_Jun_17_1226_946,False,2019_Jun_17_1226,2IFC,2,MIJA04,
2IFC,23,0,23,0,6.6,-1,correct answer,0.500521599984,False,True,stimulusMIJA04_2IFC_2019_Jun_17_1226_947,stimulusMIJA04_2IFC_2019_Jun_17_1226_948,False,2019_Jun_17_1226,2IFC,2,MIJA04,
2IFC,24,0,24,0,6.6,-1,correct answer,0.567162800027,False,True,stimulusMIJA04_2IFC_2019_Jun_17_1226_949,stimulusMIJA04_2IFC_2019_Jun_17_1226_950,False,2019_Jun_17_1226,2IFC,2,MIJA04,
2IFC,25,0,25,0,6.6,-1,correct answer,0.3338582,True,False,stimulusMIJA04_2IFC_2019_Jun_17_1226_951,stimulusMIJA04_2IFC_2019_Jun_17_1226_952,False,2019_Jun_17_1226,2IFC,2,MIJA04,
2IFC,26,0,26,0,6.6,-1,correct answer,0.167142699996,False,True,stimulusMIJA04_2IFC_2019_Jun_17_1226_953,stimulusMIJA04_2IFC_2019_Jun_17_1226_954,False,2019_Jun_17_1226,2IFC,2,MIJA04,
2IFC,27,0,27,0,6.6,-1,correct answer,0.233319300023,False,True,stimulusMIJA04_2IFC_2019_Jun_17_1226_955,stimulusMIJA04_2IFC_2019_Jun_17_1226_956,False,2019_Jun_17_1226,2IFC,2,MIJA04,
2IFC,28,0,28,0,6.6,-1,correct answer,0.567427800008,True,False,stimulusMIJA04_2IFC_2019_Jun_17_1226_957,stimulusMIJA04_2IFC_2019_Jun_17_1226_958,False,2019_Jun_17_1226,2IFC,2,MIJA04,
2IFC,29,0,29,0,6.6,-1,correct answer,0.300445600005,False,True,stimulusMIJA04_2IFC_2019_Jun_17_1226_959,stimulusMIJA04_2IFC_2019_Jun_17_1226_960,False,2019_Jun_17_1226,2IFC,2,MIJA04,
2IFC,30,0,30,0,6.6,-1,correct answer,0.266696300008,False,True,stimulusMIJA04_2IFC_2019_Jun_17_1226_961,stimulusMIJA04_2IFC_2019_Jun_17_1226_962,False,2019_Jun_17_1226,2IFC,2,MIJA04,
2IFC,31,0,31,0,6.6,-1,correct answer,0.433885999984,False,True,stimulusMIJA04_2IFC_2019_Jun_17_1226_963,stimulusMIJA04_2IFC_2019_Jun_17_1226_964,False,2019_Jun_17_1226,2IFC,2,MIJA04,
2IFC,32,0,32,0,6.6,-1,correct answer,0.301034700009,True,False,stimulusMIJA04_2IFC_2019_Jun_17_1226_965,stimulusMIJA04_2IFC_2019_Jun_17_1226_966,False,2019_Jun_17_1226,2IFC,2,MIJA04,
2IFC,33,0,33,0,6.6,-1,correct answer,0.301696599985,True,False,stimulusMIJA04_2IFC_2019_Jun_17_1226_967,stimulusMIJA04_2IFC_2019_Jun_17_1226_968,False,2019_Jun_17_1226,2IFC,2,MIJA04,
2IFC,34,0,34,0,6.6,-1,correct answer,0.26709009998,False,True,stimulusMIJA04_2IFC_2019_Jun_17_1226_969,stimulusMIJA04_2IFC_2019_Jun_17_1226_970,False,2019_Jun_17_1226,2IFC,2,MIJA04,
2IFC,35,0,35,0,6.6,-1,correct answer,0.267122099991,True,False,stimulusMIJA04_2IFC_2019_Jun_17_1226_971,stimulusMIJA04_2IFC_2019_Jun_17_1226_972,False,2019_Jun_17_1226,2IFC,2,MIJA04,
2IFC,36,0,36,0,6.6,-1,correct answer,0.233770199993,True,False,stimulusMIJA04_2IFC_2019_Jun_17_1226_973,stimulusMIJA04_2IFC_2019_Jun_17_1226_974,False,2019_Jun_17_1226,2IFC,2,MIJA04,
2IFC,37,0,37,0,6.6,-1,correct answer,0.0659786000033,False,True,stimulusMIJA04_2IFC_2019_Jun_17_1226_975,stimulusMIJA04_2IFC_2019_Jun_17_1226_976,False,2019_Jun_17_1226,2IFC,2,MIJA04,
2IFC,38,0,38,0,6.6,-1,correct answer,0.267098500015,False,True,stimulusMIJA04_2IFC_2019_Jun_17_1226_977,stimulusMIJA04_2IFC_2019_Jun_17_1226_978,False,2019_Jun_17_1226,2IFC,2,MIJA04,
2IFC,39,0,39,0,6.6,-1,correct answer,0.367306200002,True,False,stimulusMIJA04_2IFC_2019_Jun_17_1226_979,stimulusMIJA04_2IFC_2019_Jun_17_1226_980,False,2019_Jun_17_1226,2IFC,2,MIJA04,
2IFC,40,0,40,0,6.6,-1,correct answer,0.266369199991,True,False,stimulusMIJA04_2IFC_2019_Jun_17_1226_981,stimulusMIJA04_2IFC_2019_Jun_17_1226_982,False,2019_Jun_17_1226,2IFC,2,MIJA04,
2IFC,41,0,41,0,6.6,-1,correct answer,0.367327800021,True,False,stimulusMIJA04_2IFC_2019_Jun_17_1226_983,stimulusMIJA04_2IFC_2019_Jun_17_1226_984,False,2019_Jun_17_1226,2IFC,2,MIJA04,
2IFC,42,0,42,0,6.6,-1,wrong answer,0.367827899987,False,True,stimulusMIJA04_2IFC_2019_Jun_17_1226_985,stimulusMIJA04_2IFC_2019_Jun_17_1226_986,False,2019_Jun_17_1226,2IFC,2,MIJA04,
2IFC,43,0,43,0,6.6,-1,correct answer,0.301704299985,False,True,stimulusMIJA04_2IFC_2019_Jun_17_1226_987,stimulusMIJA04_2IFC_2019_Jun_17_1226_988,False,2019_Jun_17_1226,2IFC,2,MIJA04,
2IFC,44,0,44,0,6.6,-1,correct answer,0.333455199987,True,False,stimulusMIJA04_2IFC_2019_Jun_17_1226_989,stimulusMIJA04_2IFC_2019_Jun_17_1226_990,False,2019_Jun_17_1226,2IFC,2,MIJA04,
2IFC,45,0,45,0,6.6,-1,correct answer,0.233309499978,True,False,stimulusMIJA04_2IFC_2019_Jun_17_1226_991,stimulusMIJA04_2IFC_2019_Jun_17_1226_992,False,2019_Jun_17_1226,2IFC,2,MIJA04,
2IFC,46,0,46,0,6.6,-1,correct answer,0.401375999994,True,False,stimulusMIJA04_2IFC_2019_Jun_17_1226_993,stimulusMIJA04_2IFC_2019_Jun_17_1226_994,False,2019_Jun_17_1226,2IFC,2,MIJA04,
2IFC,47,0,47,0,6.6,-1,correct answer,0.235465399979,False,True,stimulusMIJA04_2IFC_2019_Jun_17_1226_995,stimulusMIJA04_2IFC_2019_Jun_17_1226_996,False,2019_Jun_17_1226,2IFC,2,MIJA04,
2IFC,48,0,48,0,6.6,-1,correct answer,0.266578599985,True,False,stimulusMIJA04_2IFC_2019_Jun_17_1226_997,stimulusMIJA04_2IFC_2019_Jun_17_1226_998,False,2019_Jun_17_1226,2IFC,2,MIJA04,
2IFC,49,0,49,0,6.6,-1,correct answer,0.300369500008,True,False,stimulusMIJA04_2IFC_2019_Jun_17_1226_999,stimulusMIJA04_2IFC_2019_Jun_17_1226_1000,False,2019_Jun_17_1226,2IFC,2,MIJA04,
2IFC,50,0,50,0,6.6,-1,correct answer,0.334202099999,False,True,stimulusMIJA04_2IFC_2019_Jun_17_1226_1001,stimulusMIJA04_2IFC_2019_Jun_17_1226_1002,False,2019_Jun_17_1226,2IFC,2,MIJA04,
2IFC,51,0,51,0,6.6,-1,correct answer,0.334018599999,True,False,stimulusMIJA04_2IFC_2019_Jun_17_1226_1003,stimulusMIJA04_2IFC_2019_Jun_17_1226_1004,False,2019_Jun_17_1226,2IFC,2,MIJA04,
2IFC,52,0,52,0,6.6,-1,correct answer,0.199005700008,False,True,stimulusMIJA04_2IFC_2019_Jun_17_1226_1005,stimulusMIJA04_2IFC_2019_Jun_17_1226_1006,False,2019_Jun_17_1226,2IFC,2,MIJA04,
2IFC,53,0,53,0,6.6,-1,wrong answer,0.400262199983,False,True,stimulusMIJA04_2IFC_2019_Jun_17_1226_1007,stimulusMIJA04_2IFC_2019_Jun_17_1226_1008,False,2019_Jun_17_1226,2IFC,2,MIJA04,
2IFC,54,0,54,0,6.6,-1,correct answer,0.233807700017,False,True,stimulusMIJA04_2IFC_2019_Jun_17_1226_1009,stimulusMIJA04_2IFC_2019_Jun_17_1226_1010,False,2019_Jun_17_1226,2IFC,2,MIJA04,
2IFC,55,0,55,0,6.6,-1,correct answer,0.333263699984,True,False,stimulusMIJA04_2IFC_2019_Jun_17_1226_1011,stimulusMIJA04_2IFC_2019_Jun_17_1226_1012,False,2019_Jun_17_1226,2IFC,2,MIJA04,
2IFC,56,0,56,0,6.6,-1,correct answer,0.232541800011,False,True,stimulusMIJA04_2IFC_2019_Jun_17_1226_1013,stimulusMIJA04_2IFC_2019_Jun_17_1226_1014,False,2019_Jun_17_1226,2IFC,2,MIJA04,
2IFC,57,0,57,0,6.6,-1,correct answer,0.200764300011,True,False,stimulusMIJA04_2IFC_2019_Jun_17_1226_1015,stimulusMIJA04_2IFC_2019_Jun_17_1226_1016,False,2019_Jun_17_1226,2IFC,2,MIJA04,
2IFC,58,0,58,0,6.6,-1,correct answer,0.367310400004,True,False,stimulusMIJA04_2IFC_2019_Jun_17_1226_1017,stimulusMIJA04_2IFC_2019_Jun_17_1226_1018,False,2019_Jun_17_1226,2IFC,2,MIJA04,
2IFC,59,0,59,0,6.6,-1,correct answer,0.334153700009,True,False,stimulusMIJA04_2IFC_2019_Jun_17_1226_1019,stimulusMIJA04_2IFC_2019_Jun_17_1226_1020,False,2019_Jun_17_1226,2IFC,2,MIJA04,
2IFC,60,0,60,0,6.6,-1,correct answer,0.4004556,True,False,stimulusMIJA04_2IFC_2019_Jun_17_1226_1021,stimulusMIJA04_2IFC_2019_Jun_17_1226_1022,False,2019_Jun_17_1226,2IFC,2,MIJA04,
2IFC,61,0,61,0,6.6,-1,wrong answer,0.233017399994,True,False,stimulusMIJA04_2IFC_2019_Jun_17_1226_1023,stimulusMIJA04_2IFC_2019_Jun_17_1226_1024,False,2019_Jun_17_1226,2IFC,2,MIJA04,
2IFC,62,0,62,0,6.6,-1,wrong answer,0.333737400011,True,False,stimulusMIJA04_2IFC_2019_Jun_17_1226_1025,stimulusMIJA04_2IFC_2019_Jun_17_1226_1026,False,2019_Jun_17_1226,2IFC,2,MIJA04,
2IFC,63,0,63,0,6.6,-1,correct answer,0.267250500008,True,False,stimulusMIJA04_2IFC_2019_Jun_17_1226_1027,stimulusMIJA04_2IFC_2019_Jun_17_1226_1028,False,2019_Jun_17_1226,2IFC,2,MIJA04,
2IFC,64,0,64,0,6.6,-1,correct answer,0.333830000018,True,False,stimulusMIJA04_2IFC_2019_Jun_17_1226_1029,stimulusMIJA04_2IFC_2019_Jun_17_1226_1030,False,2019_Jun_17_1226,2IFC,2,MIJA04,
2IFC,65,0,65,0,6.6,-1,correct answer,0.0670716000022,False,True,stimulusMIJA04_2IFC_2019_Jun_17_1226_1031,stimulusMIJA04_2IFC_2019_Jun_17_1226_1032,False,2019_Jun_17_1226,2IFC,2,MIJA04,
2IFC,66,0,66,0,6.6,-1,correct answer,0.334245300008,True,False,stimulusMIJA04_2IFC_2019_Jun_17_1226_1033,stimulusMIJA04_2IFC_2019_Jun_17_1226_1034,False,2019_Jun_17_1226,2IFC,2,MIJA04,
2IFC,67,0,67,0,6.6,-1,wrong answer,0.333729699982,True,False,stimulusMIJA04_2IFC_2019_Jun_17_1226_1035,stimulusMIJA04_2IFC_2019_Jun_17_1226_1036,False,2019_Jun_17_1226,2IFC,2,MIJA04,
2IFC,68,0,68,0,6.6,-1,correct answer,0.267096600001,True,False,stimulusMIJA04_2IFC_2019_Jun_17_1226_1037,stimulusMIJA04_2IFC_2019_Jun_17_1226_1038,False,2019_Jun_17_1226,2IFC,2,MIJA04,
2IFC,69,0,69,0,6.6,-1,correct answer,0.367586800014,True,False,stimulusMIJA04_2IFC_2019_Jun_17_1226_1039,stimulusMIJA04_2IFC_2019_Jun_17_1226_1040,False,2019_Jun_17_1226,2IFC,2,MIJA04,
2IFC,70,0,70,0,6.6,-1,correct answer,0.168529300019,True,False,stimulusMIJA04_2IFC_2019_Jun_17_1226_1041,stimulusMIJA04_2IFC_2019_Jun_17_1226_1042,False,2019_Jun_17_1226,2IFC,2,MIJA04,
2IFC,71,0,71,0,6.6,-1,correct answer,0.400447099993,False,True,stimulusMIJA04_2IFC_2019_Jun_17_1226_1043,stimulusMIJA04_2IFC_2019_Jun_17_1226_1044,False,2019_Jun_17_1226,2IFC,2,MIJA04,
2IFC,72,0,72,0,6.6,-1,correct answer,0.300589500024,False,True,stimulusMIJA04_2IFC_2019_Jun_17_1226_1045,stimulusMIJA04_2IFC_2019_Jun_17_1226_1046,False,2019_Jun_17_1226,2IFC,2,MIJA04,
2IFC,73,0,73,0,6.6,-1,correct answer,0.401715499989,False,True,stimulusMIJA04_2IFC_2019_Jun_17_1226_1047,stimulusMIJA04_2IFC_2019_Jun_17_1226_1048,False,2019_Jun_17_1226,2IFC,2,MIJA04,
2IFC,74,0,74,0,6.6,-1,correct answer,0.200329499989,True,False,stimulusMIJA04_2IFC_2019_Jun_17_1226_1049,stimulusMIJA04_2IFC_2019_Jun_17_1226_1050,False,2019_Jun_17_1226,2IFC,2,MIJA04,
2IFC,0,0,0,0,3.3,-1,correct answer,0.368773000024,False,True,stimulusMIJA04_2IFC_2019_Jun_17_1226_1051,stimulusMIJA04_2IFC_2019_Jun_17_1226_1052,False,2019_Jun_17_1226,2IFC,2,MIJA04,
2IFC,1,0,1,0,3.3,-1,wrong answer,0.233963699982,False,True,stimulusMIJA04_2IFC_2019_Jun_17_1226_1053,stimulusMIJA04_2IFC_2019_Jun_17_1226_1054,False,2019_Jun_17_1226,2IFC,2,MIJA04,
2IFC,2,0,2,0,3.3,-1,correct answer,0.334717299993,False,True,stimulusMIJA04_2IFC_2019_Jun_17_1226_1055,stimulusMIJA04_2IFC_2019_Jun_17_1226_1056,False,2019_Jun_17_1226,2IFC,2,MIJA04,
2IFC,3,0,3,0,3.3,-1,correct answer,0.267655400006,True,False,stimulusMIJA04_2IFC_2019_Jun_17_1226_1057,stimulusMIJA04_2IFC_2019_Jun_17_1226_1058,False,2019_Jun_17_1226,2IFC,2,MIJA04,
2IFC,4,0,4,0,3.3,-1,correct answer,0.367214900005,True,False,stimulusMIJA04_2IFC_2019_Jun_17_1226_1059,stimulusMIJA04_2IFC_2019_Jun_17_1226_1060,False,2019_Jun_17_1226,2IFC,2,MIJA04,
2IFC,5,0,5,0,3.3,-1,wrong answer,0.433586400002,True,False,stimulusMIJA04_2IFC_2019_Jun_17_1226_1061,stimulusMIJA04_2IFC_2019_Jun_17_1226_1062,False,2019_Jun_17_1226,2IFC,2,MIJA04,
2IFC,6,0,6,0,3.3,-1,wrong answer,0.300617700006,False,True,stimulusMIJA04_2IFC_2019_Jun_17_1226_1063,stimulusMIJA04_2IFC_2019_Jun_17_1226_1064,False,2019_Jun_17_1226,2IFC,2,MIJA04,
2IFC,7,0,7,0,3.3,-1,correct answer,0.133979199978,True,False,stimulusMIJA04_2IFC_2019_Jun_17_1226_1065,stimulusMIJA04_2IFC_2019_Jun_17_1226_1066,False,2019_Jun_17_1226,2IFC,2,MIJA04,
2IFC,8,0,8,0,3.3,-1,correct answer,0.269124699989,True,False,stimulusMIJA04_2IFC_2019_Jun_17_1226_1067,stimulusMIJA04_2IFC_2019_Jun_17_1226_1068,False,2019_Jun_17_1226,2IFC,2,MIJA04,
2IFC,9,0,9,0,3.3,-1,correct answer,0.233870700002,False,True,stimulusMIJA04_2IFC_2019_Jun_17_1226_1069,stimulusMIJA04_2IFC_2019_Jun_17_1226_1070,False,2019_Jun_17_1226,2IFC,2,MIJA04,
2IFC,10,0,10,0,3.3,-1,correct answer,0.167993899988,True,False,stimulusMIJA04_2IFC_2019_Jun_17_1226_1071,stimulusMIJA04_2IFC_2019_Jun_17_1226_1072,False,2019_Jun_17_1226,2IFC,2,MIJA04,
2IFC,11,0,11,0,3.3,-1,correct answer,0.43376070002,False,True,stimulusMIJA04_2IFC_2019_Jun_17_1226_1073,stimulusMIJA04_2IFC_2019_Jun_17_1226_1074,False,2019_Jun_17_1226,2IFC,2,MIJA04,
2IFC,12,0,12,0,3.3,-1,correct answer,0.267727000028,False,True,stimulusMIJA04_2IFC_2019_Jun_17_1226_1075,stimulusMIJA04_2IFC_2019_Jun_17_1226_1076,False,2019_Jun_17_1226,2IFC,2,MIJA04,
2IFC,13,0,13,0,3.3,-1,correct answer,0.2669742,True,False,stimulusMIJA04_2IFC_2019_Jun_17_1226_1077,stimulusMIJA04_2IFC_2019_Jun_17_1226_1078,False,2019_Jun_17_1226,2IFC,2,MIJA04,
2IFC,14,0,14,0,3.3,-1,correct answer,0.234526699991,False,True,stimulusMIJA04_2IFC_2019_Jun_17_1226_1079,stimulusMIJA04_2IFC_2019_Jun_17_1226_1080,False,2019_Jun_17_1226,2IFC,2,MIJA04,
2IFC,15,0,15,0,3.3,-1,wrong answer,0.300466099987,True,False,stimulusMIJA04_2IFC_2019_Jun_17_1226_1081,stimulusMIJA04_2IFC_2019_Jun_17_1226_1082,False,2019_Jun_17_1226,2IFC,2,MIJA04,
2IFC,16,0,16,0,3.3,-1,correct answer,0.301883800013,True,False,stimulusMIJA04_2IFC_2019_Jun_17_1226_1083,stimulusMIJA04_2IFC_2019_Jun_17_1226_1084,False,2019_Jun_17_1226,2IFC,2,MIJA04,
2IFC,17,0,17,0,3.3,-1,correct answer,0.367160599999,True,False,stimulusMIJA04_2IFC_2019_Jun_17_1226_1085,stimulusMIJA04_2IFC_2019_Jun_17_1226_1086,False,2019_Jun_17_1226,2IFC,2,MIJA04,
2IFC,18,0,18,0,3.3,-1,correct answer,0.334762399987,True,False,stimulusMIJA04_2IFC_2019_Jun_17_1226_1087,stimulusMIJA04_2IFC_2019_Jun_17_1226_1088,False,2019_Jun_17_1226,2IFC,2,MIJA04,
2IFC,19,0,19,0,3.3,-1,correct answer,0.300400800013,True,False,stimulusMIJA04_2IFC_2019_Jun_17_1226_1089,stimulusMIJA04_2IFC_2019_Jun_17_1226_1090,False,2019_Jun_17_1226,2IFC,2,MIJA04,
2IFC,20,0,20,0,3.3,-1,correct answer,0.200851800008,False,True,stimulusMIJA04_2IFC_2019_Jun_17_1226_1091,stimulusMIJA04_2IFC_2019_Jun_17_1226_1092,False,2019_Jun_17_1226,2IFC,2,MIJA04,
2IFC,21,0,21,0,3.3,-1,correct answer,0.5678548,False,True,stimulusMIJA04_2IFC_2019_Jun_17_1226_1093,stimulusMIJA04_2IFC_2019_Jun_17_1226_1094,False,2019_Jun_17_1226,2IFC,2,MIJA04,
2IFC,22,0,22,0,3.3,-1,correct answer,0.401075600006,False,True,stimulusMIJA04_2IFC_2019_Jun_17_1226_1095,stimulusMIJA04_2IFC_2019_Jun_17_1226_1096,False,2019_Jun_17_1226,2IFC,2,MIJA04,
2IFC,23,0,23,0,3.3,-1,wrong answer,0.301247800002,True,False,stimulusMIJA04_2IFC_2019_Jun_17_1226_1097,stimulusMIJA04_2IFC_2019_Jun_17_1226_1098,False,2019_Jun_17_1226,2IFC,2,MIJA04,
