Task,trials.thisRepN,trials.thisTrialN,trials.thisN,trials.thisIndex,signal_intensity,constant Value,response,time_response,signal_on_stimuluspos1,signal_on_stimuluspos2,stimulus_name_pos1,stimulus_name_pos2,random_intensity,date,expName,session,participant,
2IFC,0,0,0,0,9.6,-1,correct answer,0.500831699988,True,False,stimulusMIJA04_2IFC_2019_Jun_18_1414_1,stimulusMIJA04_2IFC_2019_Jun_18_1414_2,True,2019_Jun_18_1414,2IFC,3,MIJA04,
2IFC,1,0,1,0,1,-1,correct answer,0.500096900039,True,False,stimulusMIJA04_2IFC_2019_Jun_18_1414_3,stimulusMIJA04_2IFC_2019_Jun_18_1414_4,True,2019_Jun_18_1414,2IFC,3,MIJA04,
2IFC,2,0,2,0,4.9,-1,correct answer,0.367501100001,False,True,stimulusMIJA04_2IFC_2019_Jun_18_1414_5,stimulusMIJA04_2IFC_2019_Jun_18_1414_6,True,2019_Jun_18_1414,2IFC,3,MIJA04,
2IFC,3,0,3,0,11.5,-1,correct answer,0.434054100013,False,True,stimulusMIJA04_2IFC_2019_Jun_18_1414_7,stimulusMIJA04_2IFC_2019_Jun_18_1414_8,True,2019_Jun_18_1414,2IFC,3,MIJA04,
2IFC,4,0,4,0,6.6,-1,correct answer,0.500481499999,False,True,stimulusMIJA04_2IFC_2019_Jun_18_1414_9,stimulusMIJA04_2IFC_2019_Jun_18_1414_10,True,2019_Jun_18_1414,2IFC,3,MIJA04,
2IFC,5,0,5,0,9.6,-1,wrong answer,0.734019100026,False,True,stimulusMIJA04_2IFC_2019_Jun_18_1414_11,stimulusMIJA04_2IFC_2019_Jun_18_1414_12,True,2019_Jun_18_1414,2IFC,3,MIJA04,
2IFC,6,0,6,0,1,-1,correct answer,0.401136600005,False,True,stimulusMIJA04_2IFC_2019_Jun_18_1414_13,stimulusMIJA04_2IFC_2019_Jun_18_1414_14,True,2019_Jun_18_1414,2IFC,3,MIJA04,
2IFC,7,0,7,0,3.3,-1,wrong answer,0.333849099989,True,False,stimulusMIJA04_2IFC_2019_Jun_18_1414_15,stimulusMIJA04_2IFC_2019_Jun_18_1414_16,True,2019_Jun_18_1414,2IFC,3,MIJA04,
2IFC,8,0,8,0,11.5,-1,correct answer,0.365334799979,False,True,stimulusMIJA04_2IFC_2019_Jun_18_1414_17,stimulusMIJA04_2IFC_2019_Jun_18_1414_18,True,2019_Jun_18_1414,2IFC,3,MIJA04,
2IFC,9,0,9,0,6.6,-1,correct answer,0.334045900032,False,True,stimulusMIJA04_2IFC_2019_Jun_18_1414_19,stimulusMIJA04_2IFC_2019_Jun_18_1414_20,True,2019_Jun_18_1414,2IFC,3,MIJA04,
2IFC,10,0,10,0,8,-1,correct answer,0.400691699993,False,True,stimulusMIJA04_2IFC_2019_Jun_18_1414_21,stimulusMIJA04_2IFC_2019_Jun_18_1414_22,True,2019_Jun_18_1414,2IFC,3,MIJA04,
2IFC,11,0,11,0,9.6,-1,correct answer,0.299602199986,True,False,stimulusMIJA04_2IFC_2019_Jun_18_1414_23,stimulusMIJA04_2IFC_2019_Jun_18_1414_24,True,2019_Jun_18_1414,2IFC,3,MIJA04,
2IFC,12,0,12,0,3.3,-1,correct answer,0.501637500012,True,False,stimulusMIJA04_2IFC_2019_Jun_18_1414_25,stimulusMIJA04_2IFC_2019_Jun_18_1414_26,True,2019_Jun_18_1414,2IFC,3,MIJA04,
2IFC,13,0,13,0,6.6,-1,correct answer,0.333800099965,False,True,stimulusMIJA04_2IFC_2019_Jun_18_1414_27,stimulusMIJA04_2IFC_2019_Jun_18_1414_28,True,2019_Jun_18_1414,2IFC,3,MIJA04,
2IFC,14,0,14,0,11.5,-1,correct answer,0.300613500003,False,True,stimulusMIJA04_2IFC_2019_Jun_18_1414_29,stimulusMIJA04_2IFC_2019_Jun_18_1414_30,True,2019_Jun_18_1414,2IFC,3,MIJA04,
2IFC,15,0,15,0,3.3,-1,wrong answer,0.265787200013,False,True,stimulusMIJA04_2IFC_2019_Jun_18_1414_31,stimulusMIJA04_2IFC_2019_Jun_18_1414_32,True,2019_Jun_18_1414,2IFC,3,MIJA04,
2IFC,16,0,16,0,6.6,-1,correct answer,0.300611299986,True,False,stimulusMIJA04_2IFC_2019_Jun_18_1414_33,stimulusMIJA04_2IFC_2019_Jun_18_1414_34,True,2019_Jun_18_1414,2IFC,3,MIJA04,
2IFC,17,0,17,0,6.6,-1,correct answer,0.400688800029,True,False,stimulusMIJA04_2IFC_2019_Jun_18_1414_35,stimulusMIJA04_2IFC_2019_Jun_18_1414_36,True,2019_Jun_18_1414,2IFC,3,MIJA04,
2IFC,18,0,18,0,11.5,-1,correct answer,0.333877100027,False,True,stimulusMIJA04_2IFC_2019_Jun_18_1414_37,stimulusMIJA04_2IFC_2019_Jun_18_1414_38,True,2019_Jun_18_1414,2IFC,3,MIJA04,
2IFC,19,0,19,0,4.9,-1,correct answer,0.30030599999,False,True,stimulusMIJA04_2IFC_2019_Jun_18_1414_39,stimulusMIJA04_2IFC_2019_Jun_18_1414_40,True,2019_Jun_18_1414,2IFC,3,MIJA04,
2IFC,20,0,20,0,9.6,-1,correct answer,0.133550299972,True,False,stimulusMIJA04_2IFC_2019_Jun_18_1414_41,stimulusMIJA04_2IFC_2019_Jun_18_1414_42,True,2019_Jun_18_1414,2IFC,3,MIJA04,
2IFC,21,0,21,0,11.5,-1,correct answer,0.300131800002,True,False,stimulusMIJA04_2IFC_2019_Jun_18_1414_43,stimulusMIJA04_2IFC_2019_Jun_18_1414_44,True,2019_Jun_18_1414,2IFC,3,MIJA04,
2IFC,22,0,22,0,3.3,-1,correct answer,0.301315500052,False,True,stimulusMIJA04_2IFC_2019_Jun_18_1414_45,stimulusMIJA04_2IFC_2019_Jun_18_1414_46,True,2019_Jun_18_1414,2IFC,3,MIJA04,
2IFC,23,0,23,0,3.3,-1,wrong answer,0.433864900027,True,False,stimulusMIJA04_2IFC_2019_Jun_18_1414_47,stimulusMIJA04_2IFC_2019_Jun_18_1414_48,True,2019_Jun_18_1414,2IFC,3,MIJA04,
2IFC,24,0,24,0,4.9,-1,correct answer,0.333970800042,False,True,stimulusMIJA04_2IFC_2019_Jun_18_1414_49,stimulusMIJA04_2IFC_2019_Jun_18_1414_50,True,2019_Jun_18_1414,2IFC,3,MIJA04,
2IFC,25,0,25,0,4.9,-1,correct answer,0.300374099985,True,False,stimulusMIJA04_2IFC_2019_Jun_18_1414_51,stimulusMIJA04_2IFC_2019_Jun_18_1414_52,True,2019_Jun_18_1414,2IFC,3,MIJA04,
2IFC,26,0,26,0,9.6,-1,correct answer,0.500604100002,False,True,stimulusMIJA04_2IFC_2019_Jun_18_1414_53,stimulusMIJA04_2IFC_2019_Jun_18_1414_54,True,2019_Jun_18_1414,2IFC,3,MIJA04,
2IFC,27,0,27,0,11.5,-1,correct answer,0.367123300035,True,False,stimulusMIJA04_2IFC_2019_Jun_18_1414_55,stimulusMIJA04_2IFC_2019_Jun_18_1414_56,True,2019_Jun_18_1414,2IFC,3,MIJA04,
2IFC,28,0,28,0,1,-1,wrong answer,0.667354000034,False,True,stimulusMIJA04_2IFC_2019_Jun_18_1414_57,stimulusMIJA04_2IFC_2019_Jun_18_1414_58,True,2019_Jun_18_1414,2IFC,3,MIJA04,
2IFC,29,0,29,0,6.6,-1,correct answer,0.430210600025,False,True,stimulusMIJA04_2IFC_2019_Jun_18_1414_59,stimulusMIJA04_2IFC_2019_Jun_18_1414_60,True,2019_Jun_18_1414,2IFC,3,MIJA04,
2IFC,30,0,30,0,3.3,-1,correct answer,0.500734900008,True,False,stimulusMIJA04_2IFC_2019_Jun_18_1414_61,stimulusMIJA04_2IFC_2019_Jun_18_1414_62,True,2019_Jun_18_1414,2IFC,3,MIJA04,
2IFC,31,0,31,0,6.6,-1,correct answer,0.366094900004,False,True,stimulusMIJA04_2IFC_2019_Jun_18_1414_63,stimulusMIJA04_2IFC_2019_Jun_18_1414_64,True,2019_Jun_18_1414,2IFC,3,MIJA04,
2IFC,32,0,32,0,8,-1,correct answer,0.233843399968,False,True,stimulusMIJA04_2IFC_2019_Jun_18_1414_65,stimulusMIJA04_2IFC_2019_Jun_18_1414_66,True,2019_Jun_18_1414,2IFC,3,MIJA04,
2IFC,33,0,33,0,8,-1,correct answer,0.400206699967,False,True,stimulusMIJA04_2IFC_2019_Jun_18_1414_67,stimulusMIJA04_2IFC_2019_Jun_18_1414_68,True,2019_Jun_18_1414,2IFC,3,MIJA04,
2IFC,34,0,34,0,1.7,-1,wrong answer,0.300612799998,True,False,stimulusMIJA04_2IFC_2019_Jun_18_1414_69,stimulusMIJA04_2IFC_2019_Jun_18_1414_70,True,2019_Jun_18_1414,2IFC,3,MIJA04,
2IFC,35,0,35,0,1,-1,correct answer,0.30097760004,False,True,stimulusMIJA04_2IFC_2019_Jun_18_1414_71,stimulusMIJA04_2IFC_2019_Jun_18_1414_72,True,2019_Jun_18_1414,2IFC,3,MIJA04,
2IFC,36,0,36,0,1,-1,correct answer,0.434001799964,False,True,stimulusMIJA04_2IFC_2019_Jun_18_1414_73,stimulusMIJA04_2IFC_2019_Jun_18_1414_74,True,2019_Jun_18_1414,2IFC,3,MIJA04,
2IFC,37,0,37,0,11.5,-1,correct answer,0.267565199989,True,False,stimulusMIJA04_2IFC_2019_Jun_18_1414_75,stimulusMIJA04_2IFC_2019_Jun_18_1414_76,True,2019_Jun_18_1414,2IFC,3,MIJA04,
2IFC,38,0,38,0,11.5,-1,correct answer,0.267206799996,False,True,stimulusMIJA04_2IFC_2019_Jun_18_1414_77,stimulusMIJA04_2IFC_2019_Jun_18_1414_78,True,2019_Jun_18_1414,2IFC,3,MIJA04,
2IFC,39,0,39,0,1,-1,correct answer,0.56756289996,True,False,stimulusMIJA04_2IFC_2019_Jun_18_1414_79,stimulusMIJA04_2IFC_2019_Jun_18_1414_80,True,2019_Jun_18_1414,2IFC,3,MIJA04,
2IFC,40,0,40,0,8,-1,correct answer,0.334043100011,True,False,stimulusMIJA04_2IFC_2019_Jun_18_1414_81,stimulusMIJA04_2IFC_2019_Jun_18_1414_82,True,2019_Jun_18_1414,2IFC,3,MIJA04,
2IFC,41,0,41,0,1.7,-1,correct answer,0.267535299994,False,True,stimulusMIJA04_2IFC_2019_Jun_18_1414_83,stimulusMIJA04_2IFC_2019_Jun_18_1414_84,True,2019_Jun_18_1414,2IFC,3,MIJA04,
2IFC,42,0,42,0,9.6,-1,correct answer,0.401037200005,True,False,stimulusMIJA04_2IFC_2019_Jun_18_1414_85,stimulusMIJA04_2IFC_2019_Jun_18_1414_86,True,2019_Jun_18_1414,2IFC,3,MIJA04,
2IFC,43,0,43,0,6.6,-1,correct answer,0.333701800031,False,True,stimulusMIJA04_2IFC_2019_Jun_18_1414_87,stimulusMIJA04_2IFC_2019_Jun_18_1414_88,True,2019_Jun_18_1414,2IFC,3,MIJA04,
2IFC,44,0,44,0,3.3,-1,correct answer,0.433326099999,True,False,stimulusMIJA04_2IFC_2019_Jun_18_1414_89,stimulusMIJA04_2IFC_2019_Jun_18_1414_90,True,2019_Jun_18_1414,2IFC,3,MIJA04,
2IFC,45,0,45,0,8,-1,correct answer,0.302116800041,True,False,stimulusMIJA04_2IFC_2019_Jun_18_1414_91,stimulusMIJA04_2IFC_2019_Jun_18_1414_92,True,2019_Jun_18_1414,2IFC,3,MIJA04,
2IFC,46,0,46,0,1.7,-1,correct answer,0.3004907,False,True,stimulusMIJA04_2IFC_2019_Jun_18_1414_93,stimulusMIJA04_2IFC_2019_Jun_18_1414_94,True,2019_Jun_18_1414,2IFC,3,MIJA04,
2IFC,47,0,47,0,9.6,-1,correct answer,0.366823100019,False,True,stimulusMIJA04_2IFC_2019_Jun_18_1414_95,stimulusMIJA04_2IFC_2019_Jun_18_1414_96,True,2019_Jun_18_1414,2IFC,3,MIJA04,
2IFC,48,0,48,0,3.3,-1,wrong answer,0.534024599998,False,True,stimulusMIJA04_2IFC_2019_Jun_18_1414_97,stimulusMIJA04_2IFC_2019_Jun_18_1414_98,True,2019_Jun_18_1414,2IFC,3,MIJA04,
2IFC,49,0,49,0,9.6,-1,correct answer,0.302337900037,False,True,stimulusMIJA04_2IFC_2019_Jun_18_1414_99,stimulusMIJA04_2IFC_2019_Jun_18_1414_100,True,2019_Jun_18_1414,2IFC,3,MIJA04,
2IFC,50,0,50,0,1,-1,correct answer,0.600751899998,True,False,stimulusMIJA04_2IFC_2019_Jun_18_1414_101,stimulusMIJA04_2IFC_2019_Jun_18_1414_102,True,2019_Jun_18_1414,2IFC,3,MIJA04,
2IFC,51,0,51,0,11.5,-1,correct answer,0.333563499968,True,False,stimulusMIJA04_2IFC_2019_Jun_18_1414_103,stimulusMIJA04_2IFC_2019_Jun_18_1414_104,True,2019_Jun_18_1414,2IFC,3,MIJA04,
2IFC,52,0,52,0,1.7,-1,correct answer,0.467172799981,True,False,stimulusMIJA04_2IFC_2019_Jun_18_1414_105,stimulusMIJA04_2IFC_2019_Jun_18_1414_106,True,2019_Jun_18_1414,2IFC,3,MIJA04,
2IFC,53,0,53,0,3.3,-1,correct answer,0.334320699971,False,True,stimulusMIJA04_2IFC_2019_Jun_18_1414_107,stimulusMIJA04_2IFC_2019_Jun_18_1414_108,True,2019_Jun_18_1414,2IFC,3,MIJA04,
2IFC,54,0,54,0,8,-1,correct answer,0.434861799993,False,True,stimulusMIJA04_2IFC_2019_Jun_18_1414_109,stimulusMIJA04_2IFC_2019_Jun_18_1414_110,True,2019_Jun_18_1414,2IFC,3,MIJA04,
2IFC,55,0,55,0,8,-1,correct answer,0.50073249999,False,True,stimulusMIJA04_2IFC_2019_Jun_18_1414_111,stimulusMIJA04_2IFC_2019_Jun_18_1414_112,True,2019_Jun_18_1414,2IFC,3,MIJA04,
2IFC,56,0,56,0,8,-1,correct answer,0.434123700019,True,False,stimulusMIJA04_2IFC_2019_Jun_18_1414_113,stimulusMIJA04_2IFC_2019_Jun_18_1414_114,True,2019_Jun_18_1414,2IFC,3,MIJA04,
2IFC,57,0,57,0,3.3,-1,correct answer,0.333809299977,False,True,stimulusMIJA04_2IFC_2019_Jun_18_1414_115,stimulusMIJA04_2IFC_2019_Jun_18_1414_116,True,2019_Jun_18_1414,2IFC,3,MIJA04,
2IFC,58,0,58,0,6.6,-1,correct answer,0.534082599974,True,False,stimulusMIJA04_2IFC_2019_Jun_18_1414_117,stimulusMIJA04_2IFC_2019_Jun_18_1414_118,True,2019_Jun_18_1414,2IFC,3,MIJA04,
2IFC,59,0,59,0,8,-1,correct answer,0.200576000032,True,False,stimulusMIJA04_2IFC_2019_Jun_18_1414_119,stimulusMIJA04_2IFC_2019_Jun_18_1414_120,True,2019_Jun_18_1414,2IFC,3,MIJA04,
2IFC,60,0,60,0,6.6,-1,correct answer,0.434001900023,True,False,stimulusMIJA04_2IFC_2019_Jun_18_1414_121,stimulusMIJA04_2IFC_2019_Jun_18_1414_122,True,2019_Jun_18_1414,2IFC,3,MIJA04,
2IFC,61,0,61,0,11.5,-1,correct answer,0.334175599972,False,True,stimulusMIJA04_2IFC_2019_Jun_18_1414_123,stimulusMIJA04_2IFC_2019_Jun_18_1414_124,True,2019_Jun_18_1414,2IFC,3,MIJA04,
2IFC,62,0,62,0,1,-1,wrong answer,0.467770299991,False,True,stimulusMIJA04_2IFC_2019_Jun_18_1414_125,stimulusMIJA04_2IFC_2019_Jun_18_1414_126,True,2019_Jun_18_1414,2IFC,3,MIJA04,
2IFC,63,0,63,0,4.9,-1,wrong answer,0.367750100035,True,False,stimulusMIJA04_2IFC_2019_Jun_18_1414_127,stimulusMIJA04_2IFC_2019_Jun_18_1414_128,True,2019_Jun_18_1414,2IFC,3,MIJA04,
2IFC,64,0,64,0,1.7,-1,correct answer,0.433892700006,False,True,stimulusMIJA04_2IFC_2019_Jun_18_1414_129,stimulusMIJA04_2IFC_2019_Jun_18_1414_130,True,2019_Jun_18_1414,2IFC,3,MIJA04,
2IFC,65,0,65,0,6.6,-1,correct answer,0.467320800002,True,False,stimulusMIJA04_2IFC_2019_Jun_18_1414_131,stimulusMIJA04_2IFC_2019_Jun_18_1414_132,True,2019_Jun_18_1414,2IFC,3,MIJA04,
2IFC,66,0,66,0,9.6,-1,correct answer,0.367538399994,True,False,stimulusMIJA04_2IFC_2019_Jun_18_1414_133,stimulusMIJA04_2IFC_2019_Jun_18_1414_134,True,2019_Jun_18_1414,2IFC,3,MIJA04,
2IFC,67,0,67,0,1.7,-1,wrong answer,0.400481299963,True,False,stimulusMIJA04_2IFC_2019_Jun_18_1414_135,stimulusMIJA04_2IFC_2019_Jun_18_1414_136,True,2019_Jun_18_1414,2IFC,3,MIJA04,
2IFC,68,0,68,0,9.6,-1,correct answer,0.267198499991,True,False,stimulusMIJA04_2IFC_2019_Jun_18_1414_137,stimulusMIJA04_2IFC_2019_Jun_18_1414_138,True,2019_Jun_18_1414,2IFC,3,MIJA04,
2IFC,69,0,69,0,11.5,-1,correct answer,0.300690999953,True,False,stimulusMIJA04_2IFC_2019_Jun_18_1414_139,stimulusMIJA04_2IFC_2019_Jun_18_1414_140,True,2019_Jun_18_1414,2IFC,3,MIJA04,
2IFC,70,0,70,0,1.7,-1,correct answer,0.367631100002,False,True,stimulusMIJA04_2IFC_2019_Jun_18_1414_141,stimulusMIJA04_2IFC_2019_Jun_18_1414_142,True,2019_Jun_18_1414,2IFC,3,MIJA04,
2IFC,71,0,71,0,8,-1,correct answer,0.332738600031,False,True,stimulusMIJA04_2IFC_2019_Jun_18_1414_143,stimulusMIJA04_2IFC_2019_Jun_18_1414_144,True,2019_Jun_18_1414,2IFC,3,MIJA04,
2IFC,72,0,72,0,9.6,-1,correct answer,0.366852100007,False,True,stimulusMIJA04_2IFC_2019_Jun_18_1414_145,stimulusMIJA04_2IFC_2019_Jun_18_1414_146,True,2019_Jun_18_1414,2IFC,3,MIJA04,
2IFC,73,0,73,0,4.9,-1,correct answer,0.467364599986,False,True,stimulusMIJA04_2IFC_2019_Jun_18_1414_147,stimulusMIJA04_2IFC_2019_Jun_18_1414_148,True,2019_Jun_18_1414,2IFC,3,MIJA04,
2IFC,74,0,74,0,1.7,-1,correct answer,0.433639800001,True,False,stimulusMIJA04_2IFC_2019_Jun_18_1414_149,stimulusMIJA04_2IFC_2019_Jun_18_1414_150,True,2019_Jun_18_1414,2IFC,3,MIJA04,
2IFC,0,0,0,0,4.9,-1,wrong answer,0.367300599988,False,True,stimulusMIJA04_2IFC_2019_Jun_18_1414_151,stimulusMIJA04_2IFC_2019_Jun_18_1414_152,True,2019_Jun_18_1414,2IFC,3,MIJA04,
2IFC,1,0,1,0,1,-1,wrong answer,0.500823000039,False,True,stimulusMIJA04_2IFC_2019_Jun_18_1414_153,stimulusMIJA04_2IFC_2019_Jun_18_1414_154,True,2019_Jun_18_1414,2IFC,3,MIJA04,
2IFC,2,0,2,0,6.6,-1,correct answer,0.301068100031,True,False,stimulusMIJA04_2IFC_2019_Jun_18_1414_155,stimulusMIJA04_2IFC_2019_Jun_18_1414_156,True,2019_Jun_18_1414,2IFC,3,MIJA04,
2IFC,3,0,3,0,1.7,-1,correct answer,0.300476900011,False,True,stimulusMIJA04_2IFC_2019_Jun_18_1414_157,stimulusMIJA04_2IFC_2019_Jun_18_1414_158,True,2019_Jun_18_1414,2IFC,3,MIJA04,
2IFC,4,0,4,0,4.9,-1,correct answer,0.40071680001,True,False,stimulusMIJA04_2IFC_2019_Jun_18_1414_159,stimulusMIJA04_2IFC_2019_Jun_18_1414_160,True,2019_Jun_18_1414,2IFC,3,MIJA04,
2IFC,5,0,5,0,1,-1,correct answer,0.300425799971,False,True,stimulusMIJA04_2IFC_2019_Jun_18_1414_161,stimulusMIJA04_2IFC_2019_Jun_18_1414_162,True,2019_Jun_18_1414,2IFC,3,MIJA04,
2IFC,6,0,6,0,1.7,-1,correct answer,0.233749200008,False,True,stimulusMIJA04_2IFC_2019_Jun_18_1414_163,stimulusMIJA04_2IFC_2019_Jun_18_1414_164,True,2019_Jun_18_1414,2IFC,3,MIJA04,
2IFC,7,0,7,0,6.6,-1,wrong answer,0.433646999998,False,True,stimulusMIJA04_2IFC_2019_Jun_18_1414_165,stimulusMIJA04_2IFC_2019_Jun_18_1414_166,True,2019_Jun_18_1414,2IFC,3,MIJA04,
2IFC,8,0,8,0,1,-1,wrong answer,0.400284899981,True,False,stimulusMIJA04_2IFC_2019_Jun_18_1414_167,stimulusMIJA04_2IFC_2019_Jun_18_1414_168,True,2019_Jun_18_1414,2IFC,3,MIJA04,
2IFC,9,0,9,0,9.6,-1,correct answer,0.333531799959,False,True,stimulusMIJA04_2IFC_2019_Jun_18_1414_169,stimulusMIJA04_2IFC_2019_Jun_18_1414_170,True,2019_Jun_18_1414,2IFC,3,MIJA04,
2IFC,10,0,10,0,11.5,-1,correct answer,0.300486300024,True,False,stimulusMIJA04_2IFC_2019_Jun_18_1414_171,stimulusMIJA04_2IFC_2019_Jun_18_1414_172,True,2019_Jun_18_1414,2IFC,3,MIJA04,
2IFC,11,0,11,0,3.3,-1,correct answer,0.400458999968,False,True,stimulusMIJA04_2IFC_2019_Jun_18_1414_173,stimulusMIJA04_2IFC_2019_Jun_18_1414_174,True,2019_Jun_18_1414,2IFC,3,MIJA04,
2IFC,12,0,12,0,9.6,-1,correct answer,0.399387300014,False,True,stimulusMIJA04_2IFC_2019_Jun_18_1414_175,stimulusMIJA04_2IFC_2019_Jun_18_1414_176,True,2019_Jun_18_1414,2IFC,3,MIJA04,
2IFC,13,0,13,0,1.7,-1,correct answer,0.400897399988,False,True,stimulusMIJA04_2IFC_2019_Jun_18_1414_177,stimulusMIJA04_2IFC_2019_Jun_18_1414_178,True,2019_Jun_18_1414,2IFC,3,MIJA04,
2IFC,14,0,14,0,1.7,-1,correct answer,0.333639600023,False,True,stimulusMIJA04_2IFC_2019_Jun_18_1414_179,stimulusMIJA04_2IFC_2019_Jun_18_1414_180,True,2019_Jun_18_1414,2IFC,3,MIJA04,
2IFC,15,0,15,0,3.3,-1,wrong answer,0.634396700014,True,False,stimulusMIJA04_2IFC_2019_Jun_18_1414_181,stimulusMIJA04_2IFC_2019_Jun_18_1414_182,True,2019_Jun_18_1414,2IFC,3,MIJA04,
2IFC,16,0,16,0,1,-1,correct answer,0.467592799978,False,True,stimulusMIJA04_2IFC_2019_Jun_18_1414_183,stimulusMIJA04_2IFC_2019_Jun_18_1414_184,True,2019_Jun_18_1414,2IFC,3,MIJA04,
2IFC,17,0,17,0,8,-1,correct answer,0.299731899984,True,False,stimulusMIJA04_2IFC_2019_Jun_18_1414_185,stimulusMIJA04_2IFC_2019_Jun_18_1414_186,True,2019_Jun_18_1414,2IFC,3,MIJA04,
2IFC,18,0,18,0,1.7,-1,correct answer,0.399929000007,True,False,stimulusMIJA04_2IFC_2019_Jun_18_1414_187,stimulusMIJA04_2IFC_2019_Jun_18_1414_188,True,2019_Jun_18_1414,2IFC,3,MIJA04,
2IFC,19,0,19,0,1,-1,wrong answer,0.500815300038,False,True,stimulusMIJA04_2IFC_2019_Jun_18_1414_189,stimulusMIJA04_2IFC_2019_Jun_18_1414_190,True,2019_Jun_18_1414,2IFC,3,MIJA04,
2IFC,20,0,20,0,6.6,-1,correct answer,0.401226699993,False,True,stimulusMIJA04_2IFC_2019_Jun_18_1414_191,stimulusMIJA04_2IFC_2019_Jun_18_1414_192,True,2019_Jun_18_1414,2IFC,3,MIJA04,
2IFC,21,0,21,0,11.5,-1,correct answer,0.166297199961,True,False,stimulusMIJA04_2IFC_2019_Jun_18_1414_193,stimulusMIJA04_2IFC_2019_Jun_18_1414_194,True,2019_Jun_18_1414,2IFC,3,MIJA04,
2IFC,22,0,22,0,8,-1,correct answer,0.467335500056,False,True,stimulusMIJA04_2IFC_2019_Jun_18_1414_195,stimulusMIJA04_2IFC_2019_Jun_18_1414_196,True,2019_Jun_18_1414,2IFC,3,MIJA04,
2IFC,23,0,23,0,8,-1,correct answer,0.467671599996,False,True,stimulusMIJA04_2IFC_2019_Jun_18_1414_197,stimulusMIJA04_2IFC_2019_Jun_18_1414_198,True,2019_Jun_18_1414,2IFC,3,MIJA04,
2IFC,24,0,24,0,6.6,-1,correct answer,0.60036099999,False,True,stimulusMIJA04_2IFC_2019_Jun_18_1414_199,stimulusMIJA04_2IFC_2019_Jun_18_1414_200,True,2019_Jun_18_1414,2IFC,3,MIJA04,
2IFC,25,0,25,0,9.6,-1,correct answer,0.367183099966,False,True,stimulusMIJA04_2IFC_2019_Jun_18_1414_201,stimulusMIJA04_2IFC_2019_Jun_18_1414_202,True,2019_Jun_18_1414,2IFC,3,MIJA04,
2IFC,26,0,26,0,3.3,-1,correct answer,0.467156200029,False,True,stimulusMIJA04_2IFC_2019_Jun_18_1414_203,stimulusMIJA04_2IFC_2019_Jun_18_1414_204,True,2019_Jun_18_1414,2IFC,3,MIJA04,
2IFC,27,0,27,0,9.6,-1,correct answer,0.301260999986,True,False,stimulusMIJA04_2IFC_2019_Jun_18_1414_205,stimulusMIJA04_2IFC_2019_Jun_18_1414_206,True,2019_Jun_18_1414,2IFC,3,MIJA04,
2IFC,28,0,28,0,1.7,-1,correct answer,0.39759269997,False,True,stimulusMIJA04_2IFC_2019_Jun_18_1414_207,stimulusMIJA04_2IFC_2019_Jun_18_1414_208,True,2019_Jun_18_1414,2IFC,3,MIJA04,
2IFC,29,0,29,0,4.9,-1,correct answer,0.500877200044,False,True,stimulusMIJA04_2IFC_2019_Jun_18_1414_209,stimulusMIJA04_2IFC_2019_Jun_18_1414_210,True,2019_Jun_18_1414,2IFC,3,MIJA04,
2IFC,30,0,30,0,1.7,-1,correct answer,0.334172500006,True,False,stimulusMIJA04_2IFC_2019_Jun_18_1414_211,stimulusMIJA04_2IFC_2019_Jun_18_1414_212,True,2019_Jun_18_1414,2IFC,3,MIJA04,
2IFC,31,0,31,0,8,-1,correct answer,0.267916500045,True,False,stimulusMIJA04_2IFC_2019_Jun_18_1414_213,stimulusMIJA04_2IFC_2019_Jun_18_1414_214,True,2019_Jun_18_1414,2IFC,3,MIJA04,
2IFC,32,0,32,0,9.6,-1,correct answer,0.467147000018,False,True,stimulusMIJA04_2IFC_2019_Jun_18_1414_215,stimulusMIJA04_2IFC_2019_Jun_18_1414_216,True,2019_Jun_18_1414,2IFC,3,MIJA04,
2IFC,33,0,33,0,11.5,-1,correct answer,0.300401500019,True,False,stimulusMIJA04_2IFC_2019_Jun_18_1414_217,stimulusMIJA04_2IFC_2019_Jun_18_1414_218,True,2019_Jun_18_1414,2IFC,3,MIJA04,
2IFC,34,0,34,0,8,-1,correct answer,0.369480499998,True,False,stimulusMIJA04_2IFC_2019_Jun_18_1414_219,stimulusMIJA04_2IFC_2019_Jun_18_1414_220,True,2019_Jun_18_1414,2IFC,3,MIJA04,
2IFC,35,0,35,0,11.5,-1,correct answer,0.367563800013,False,True,stimulusMIJA04_2IFC_2019_Jun_18_1414_221,stimulusMIJA04_2IFC_2019_Jun_18_1414_222,True,2019_Jun_18_1414,2IFC,3,MIJA04,
2IFC,36,0,36,0,4.9,-1,correct answer,0.199338999984,False,True,stimulusMIJA04_2IFC_2019_Jun_18_1414_223,stimulusMIJA04_2IFC_2019_Jun_18_1414_224,True,2019_Jun_18_1414,2IFC,3,MIJA04,
2IFC,37,0,37,0,3.3,-1,wrong answer,0.467216000019,True,False,stimulusMIJA04_2IFC_2019_Jun_18_1414_225,stimulusMIJA04_2IFC_2019_Jun_18_1414_226,True,2019_Jun_18_1414,2IFC,3,MIJA04,
2IFC,38,0,38,0,1,-1,correct answer,0.167795499961,False,True,stimulusMIJA04_2IFC_2019_Jun_18_1414_227,stimulusMIJA04_2IFC_2019_Jun_18_1414_228,True,2019_Jun_18_1414,2IFC,3,MIJA04,
2IFC,39,0,39,0,11.5,-1,correct answer,0.267033799959,True,False,stimulusMIJA04_2IFC_2019_Jun_18_1414_229,stimulusMIJA04_2IFC_2019_Jun_18_1414_230,True,2019_Jun_18_1414,2IFC,3,MIJA04,
2IFC,40,0,40,0,1,-1,correct answer,0.267442799988,False,True,stimulusMIJA04_2IFC_2019_Jun_18_1414_231,stimulusMIJA04_2IFC_2019_Jun_18_1414_232,True,2019_Jun_18_1414,2IFC,3,MIJA04,
2IFC,41,0,41,0,11.5,-1,correct answer,0.201873099955,True,False,stimulusMIJA04_2IFC_2019_Jun_18_1414_233,stimulusMIJA04_2IFC_2019_Jun_18_1414_234,True,2019_Jun_18_1414,2IFC,3,MIJA04,
2IFC,42,0,42,0,9.6,-1,correct answer,0.233624199987,True,False,stimulusMIJA04_2IFC_2019_Jun_18_1414_235,stimulusMIJA04_2IFC_2019_Jun_18_1414_236,True,2019_Jun_18_1414,2IFC,3,MIJA04,
2IFC,43,0,43,0,3.3,-1,correct answer,0.300266999984,False,True,stimulusMIJA04_2IFC_2019_Jun_18_1414_237,stimulusMIJA04_2IFC_2019_Jun_18_1414_238,True,2019_Jun_18_1414,2IFC,3,MIJA04,
2IFC,44,0,44,0,3.3,-1,wrong answer,0.267723400029,True,False,stimulusMIJA04_2IFC_2019_Jun_18_1414_239,stimulusMIJA04_2IFC_2019_Jun_18_1414_240,True,2019_Jun_18_1414,2IFC,3,MIJA04,
2IFC,45,0,45,0,1.7,-1,correct answer,0.100658599986,False,True,stimulusMIJA04_2IFC_2019_Jun_18_1414_241,stimulusMIJA04_2IFC_2019_Jun_18_1414_242,True,2019_Jun_18_1414,2IFC,3,MIJA04,
2IFC,46,0,46,0,6.6,-1,correct answer,0.201172199973,True,False,stimulusMIJA04_2IFC_2019_Jun_18_1414_243,stimulusMIJA04_2IFC_2019_Jun_18_1414_244,True,2019_Jun_18_1414,2IFC,3,MIJA04,
2IFC,47,0,47,0,1,-1,correct answer,0.33399080002,False,True,stimulusMIJA04_2IFC_2019_Jun_18_1414_245,stimulusMIJA04_2IFC_2019_Jun_18_1414_246,True,2019_Jun_18_1414,2IFC,3,MIJA04,
2IFC,48,0,48,0,1,-1,wrong answer,0.268026900012,True,False,stimulusMIJA04_2IFC_2019_Jun_18_1414_247,stimulusMIJA04_2IFC_2019_Jun_18_1414_248,True,2019_Jun_18_1414,2IFC,3,MIJA04,
2IFC,49,0,49,0,1,-1,correct answer,0.53367220005,True,False,stimulusMIJA04_2IFC_2019_Jun_18_1414_249,stimulusMIJA04_2IFC_2019_Jun_18_1414_250,True,2019_Jun_18_1414,2IFC,3,MIJA04,
2IFC,50,0,50,0,8,-1,correct answer,0.433592699992,True,False,stimulusMIJA04_2IFC_2019_Jun_18_1414_251,stimulusMIJA04_2IFC_2019_Jun_18_1414_252,True,2019_Jun_18_1414,2IFC,3,MIJA04,
2IFC,51,0,51,0,3.3,-1,wrong answer,0.400904599985,True,False,stimulusMIJA04_2IFC_2019_Jun_18_1414_253,stimulusMIJA04_2IFC_2019_Jun_18_1414_254,True,2019_Jun_18_1414,2IFC,3,MIJA04,
2IFC,52,0,52,0,9.6,-1,correct answer,0.33426470001,False,True,stimulusMIJA04_2IFC_2019_Jun_18_1414_255,stimulusMIJA04_2IFC_2019_Jun_18_1414_256,True,2019_Jun_18_1414,2IFC,3,MIJA04,
2IFC,53,0,53,0,11.5,-1,correct answer,0.3340799,False,True,stimulusMIJA04_2IFC_2019_Jun_18_1414_257,stimulusMIJA04_2IFC_2019_Jun_18_1414_258,True,2019_Jun_18_1414,2IFC,3,MIJA04,
2IFC,54,0,54,0,1.7,-1,correct answer,0.468059299979,True,False,stimulusMIJA04_2IFC_2019_Jun_18_1414_259,stimulusMIJA04_2IFC_2019_Jun_18_1414_260,True,2019_Jun_18_1414,2IFC,3,MIJA04,
2IFC,55,0,55,0,9.6,-1,correct answer,0.365984100034,True,False,stimulusMIJA04_2IFC_2019_Jun_18_1414_261,stimulusMIJA04_2IFC_2019_Jun_18_1414_262,True,2019_Jun_18_1414,2IFC,3,MIJA04,
2IFC,56,0,56,0,8,-1,correct answer,0.268125000002,True,False,stimulusMIJA04_2IFC_2019_Jun_18_1414_263,stimulusMIJA04_2IFC_2019_Jun_18_1414_264,True,2019_Jun_18_1414,2IFC,3,MIJA04,
2IFC,57,0,57,0,4.9,-1,correct answer,0.30014940002,False,True,stimulusMIJA04_2IFC_2019_Jun_18_1414_265,stimulusMIJA04_2IFC_2019_Jun_18_1414_266,True,2019_Jun_18_1414,2IFC,3,MIJA04,
2IFC,58,0,58,0,4.9,-1,wrong answer,0.233982399979,True,False,stimulusMIJA04_2IFC_2019_Jun_18_1414_267,stimulusMIJA04_2IFC_2019_Jun_18_1414_268,True,2019_Jun_18_1414,2IFC,3,MIJA04,
2IFC,59,0,59,0,6.6,-1,correct answer,0.301627299981,True,False,stimulusMIJA04_2IFC_2019_Jun_18_1414_269,stimulusMIJA04_2IFC_2019_Jun_18_1414_270,True,2019_Jun_18_1414,2IFC,3,MIJA04,
2IFC,60,0,60,0,1,-1,wrong answer,0.0995704999659,True,False,stimulusMIJA04_2IFC_2019_Jun_18_1414_271,stimulusMIJA04_2IFC_2019_Jun_18_1414_272,True,2019_Jun_18_1414,2IFC,3,MIJA04,
2IFC,61,0,61,0,9.6,-1,correct answer,0.467420600005,False,True,stimulusMIJA04_2IFC_2019_Jun_18_1414_273,stimulusMIJA04_2IFC_2019_Jun_18_1414_274,True,2019_Jun_18_1414,2IFC,3,MIJA04,
2IFC,62,0,62,0,6.6,-1,correct answer,0.30233060004,False,True,stimulusMIJA04_2IFC_2019_Jun_18_1414_275,stimulusMIJA04_2IFC_2019_Jun_18_1414_276,True,2019_Jun_18_1414,2IFC,3,MIJA04,
2IFC,63,0,63,0,4.9,-1,correct answer,0.2005107,True,False,stimulusMIJA04_2IFC_2019_Jun_18_1414_277,stimulusMIJA04_2IFC_2019_Jun_18_1414_278,True,2019_Jun_18_1414,2IFC,3,MIJA04,
2IFC,64,0,64,0,6.6,-1,correct answer,0.299991499982,False,True,stimulusMIJA04_2IFC_2019_Jun_18_1414_279,stimulusMIJA04_2IFC_2019_Jun_18_1414_280,True,2019_Jun_18_1414,2IFC,3,MIJA04,
2IFC,65,0,65,0,8,-1,correct answer,0.268102800008,True,False,stimulusMIJA04_2IFC_2019_Jun_18_1414_281,stimulusMIJA04_2IFC_2019_Jun_18_1414_282,True,2019_Jun_18_1414,2IFC,3,MIJA04,
2IFC,66,0,66,0,4.9,-1,correct answer,0.500741399999,False,True,stimulusMIJA04_2IFC_2019_Jun_18_1414_283,stimulusMIJA04_2IFC_2019_Jun_18_1414_284,True,2019_Jun_18_1414,2IFC,3,MIJA04,
2IFC,67,0,67,0,3.3,-1,correct answer,0.40069629997,True,False,stimulusMIJA04_2IFC_2019_Jun_18_1414_285,stimulusMIJA04_2IFC_2019_Jun_18_1414_286,True,2019_Jun_18_1414,2IFC,3,MIJA04,
2IFC,68,0,68,0,8,-1,correct answer,0.334037500026,True,False,stimulusMIJA04_2IFC_2019_Jun_18_1414_287,stimulusMIJA04_2IFC_2019_Jun_18_1414_288,True,2019_Jun_18_1414,2IFC,3,MIJA04,
2IFC,69,0,69,0,1,-1,correct answer,0.235881900007,False,True,stimulusMIJA04_2IFC_2019_Jun_18_1414_289,stimulusMIJA04_2IFC_2019_Jun_18_1414_290,True,2019_Jun_18_1414,2IFC,3,MIJA04,
2IFC,70,0,70,0,3.3,-1,correct answer,0.267457999988,False,True,stimulusMIJA04_2IFC_2019_Jun_18_1414_291,stimulusMIJA04_2IFC_2019_Jun_18_1414_292,True,2019_Jun_18_1414,2IFC,3,MIJA04,
2IFC,71,0,71,0,3.3,-1,correct answer,0.467451899953,False,True,stimulusMIJA04_2IFC_2019_Jun_18_1414_293,stimulusMIJA04_2IFC_2019_Jun_18_1414_294,True,2019_Jun_18_1414,2IFC,3,MIJA04,
2IFC,72,0,72,0,3.3,-1,correct answer,0.30058119999,False,True,stimulusMIJA04_2IFC_2019_Jun_18_1414_295,stimulusMIJA04_2IFC_2019_Jun_18_1414_296,True,2019_Jun_18_1414,2IFC,3,MIJA04,
2IFC,73,0,73,0,8,-1,correct answer,0.233916700003,True,False,stimulusMIJA04_2IFC_2019_Jun_18_1414_297,stimulusMIJA04_2IFC_2019_Jun_18_1414_298,True,2019_Jun_18_1414,2IFC,3,MIJA04,
2IFC,74,0,74,0,11.5,-1,correct answer,0.200561699981,False,True,stimulusMIJA04_2IFC_2019_Jun_18_1414_299,stimulusMIJA04_2IFC_2019_Jun_18_1414_300,True,2019_Jun_18_1414,2IFC,3,MIJA04,
2IFC,0,0,0,0,1.7,-1,wrong answer,0.400751600042,True,False,stimulusMIJA04_2IFC_2019_Jun_18_1414_301,stimulusMIJA04_2IFC_2019_Jun_18_1414_302,True,2019_Jun_18_1414,2IFC,3,MIJA04,
2IFC,1,0,1,0,6.6,-1,correct answer,0.466975699994,True,False,stimulusMIJA04_2IFC_2019_Jun_18_1414_303,stimulusMIJA04_2IFC_2019_Jun_18_1414_304,True,2019_Jun_18_1414,2IFC,3,MIJA04,
2IFC,2,0,2,0,9.6,-1,correct answer,0.400641900022,False,True,stimulusMIJA04_2IFC_2019_Jun_18_1414_305,stimulusMIJA04_2IFC_2019_Jun_18_1414_306,True,2019_Jun_18_1414,2IFC,3,MIJA04,
2IFC,3,0,3,0,4.9,-1,correct answer,0.467225099972,True,False,stimulusMIJA04_2IFC_2019_Jun_18_1414_307,stimulusMIJA04_2IFC_2019_Jun_18_1414_308,True,2019_Jun_18_1414,2IFC,3,MIJA04,
2IFC,4,0,4,0,1.7,-1,correct answer,0.366994499986,True,False,stimulusMIJA04_2IFC_2019_Jun_18_1414_309,stimulusMIJA04_2IFC_2019_Jun_18_1414_310,True,2019_Jun_18_1414,2IFC,3,MIJA04,
2IFC,5,0,5,0,6.6,-1,correct answer,0.300205799984,False,True,stimulusMIJA04_2IFC_2019_Jun_18_1414_311,stimulusMIJA04_2IFC_2019_Jun_18_1414_312,True,2019_Jun_18_1414,2IFC,3,MIJA04,
2IFC,6,0,6,0,1.7,-1,wrong answer,0.300022299984,True,False,stimulusMIJA04_2IFC_2019_Jun_18_1414_313,stimulusMIJA04_2IFC_2019_Jun_18_1414_314,True,2019_Jun_18_1414,2IFC,3,MIJA04,
2IFC,7,0,7,0,6.6,-1,wrong answer,0.301082999969,True,False,stimulusMIJA04_2IFC_2019_Jun_18_1414_315,stimulusMIJA04_2IFC_2019_Jun_18_1414_316,True,2019_Jun_18_1414,2IFC,3,MIJA04,
2IFC,8,0,8,0,4.9,-1,correct answer,0.434183100006,False,True,stimulusMIJA04_2IFC_2019_Jun_18_1414_317,stimulusMIJA04_2IFC_2019_Jun_18_1414_318,True,2019_Jun_18_1414,2IFC,3,MIJA04,
2IFC,9,0,9,0,3.3,-1,correct answer,0.333836500009,False,True,stimulusMIJA04_2IFC_2019_Jun_18_1414_319,stimulusMIJA04_2IFC_2019_Jun_18_1414_320,True,2019_Jun_18_1414,2IFC,3,MIJA04,
2IFC,10,0,10,0,4.9,-1,correct answer,0.299981000018,True,False,stimulusMIJA04_2IFC_2019_Jun_18_1414_321,stimulusMIJA04_2IFC_2019_Jun_18_1414_322,True,2019_Jun_18_1414,2IFC,3,MIJA04,
2IFC,11,0,11,0,1,-1,wrong answer,0.266818400007,True,False,stimulusMIJA04_2IFC_2019_Jun_18_1414_323,stimulusMIJA04_2IFC_2019_Jun_18_1414_324,True,2019_Jun_18_1414,2IFC,3,MIJA04,
2IFC,12,0,12,0,1.7,-1,correct answer,0.367060800025,False,True,stimulusMIJA04_2IFC_2019_Jun_18_1414_325,stimulusMIJA04_2IFC_2019_Jun_18_1414_326,True,2019_Jun_18_1414,2IFC,3,MIJA04,
2IFC,13,0,13,0,3.3,-1,correct answer,0.301370500005,False,True,stimulusMIJA04_2IFC_2019_Jun_18_1414_327,stimulusMIJA04_2IFC_2019_Jun_18_1414_328,True,2019_Jun_18_1414,2IFC,3,MIJA04,
2IFC,14,0,14,0,9.6,-1,correct answer,0.467334199988,False,True,stimulusMIJA04_2IFC_2019_Jun_18_1414_329,stimulusMIJA04_2IFC_2019_Jun_18_1414_330,True,2019_Jun_18_1414,2IFC,3,MIJA04,
2IFC,15,0,15,0,1.7,-1,wrong answer,0.567531999957,False,True,stimulusMIJA04_2IFC_2019_Jun_18_1414_331,stimulusMIJA04_2IFC_2019_Jun_18_1414_332,True,2019_Jun_18_1414,2IFC,3,MIJA04,
2IFC,16,0,16,0,8,-1,correct answer,0.366421899991,True,False,stimulusMIJA04_2IFC_2019_Jun_18_1414_333,stimulusMIJA04_2IFC_2019_Jun_18_1414_334,True,2019_Jun_18_1414,2IFC,3,MIJA04,
2IFC,17,0,17,0,4.9,-1,wrong answer,0.367488599964,True,False,stimulusMIJA04_2IFC_2019_Jun_18_1414_335,stimulusMIJA04_2IFC_2019_Jun_18_1414_336,True,2019_Jun_18_1414,2IFC,3,MIJA04,
2IFC,18,0,18,0,8,-1,correct answer,0.366123700049,False,True,stimulusMIJA04_2IFC_2019_Jun_18_1414_337,stimulusMIJA04_2IFC_2019_Jun_18_1414_338,True,2019_Jun_18_1414,2IFC,3,MIJA04,
2IFC,19,0,19,0,4.9,-1,correct answer,0.500662899984,False,True,stimulusMIJA04_2IFC_2019_Jun_18_1414_339,stimulusMIJA04_2IFC_2019_Jun_18_1414_340,True,2019_Jun_18_1414,2IFC,3,MIJA04,
2IFC,20,0,20,0,1.7,-1,correct answer,0.500746199978,True,False,stimulusMIJA04_2IFC_2019_Jun_18_1414_341,stimulusMIJA04_2IFC_2019_Jun_18_1414_342,True,2019_Jun_18_1414,2IFC,3,MIJA04,
2IFC,21,0,21,0,6.6,-1,correct answer,0.467331800028,False,True,stimulusMIJA04_2IFC_2019_Jun_18_1414_343,stimulusMIJA04_2IFC_2019_Jun_18_1414_344,True,2019_Jun_18_1414,2IFC,3,MIJA04,
2IFC,22,0,22,0,1,-1,wrong answer,0.334082100017,True,False,stimulusMIJA04_2IFC_2019_Jun_18_1414_345,stimulusMIJA04_2IFC_2019_Jun_18_1414_346,True,2019_Jun_18_1414,2IFC,3,MIJA04,
2IFC,23,0,23,0,6.6,-1,correct answer,0.533800300036,False,True,stimulusMIJA04_2IFC_2019_Jun_18_1414_347,stimulusMIJA04_2IFC_2019_Jun_18_1414_348,True,2019_Jun_18_1414,2IFC,3,MIJA04,
2IFC,24,0,24,0,8,-1,correct answer,0.335207900032,False,True,stimulusMIJA04_2IFC_2019_Jun_18_1414_349,stimulusMIJA04_2IFC_2019_Jun_18_1414_350,True,2019_Jun_18_1414,2IFC,3,MIJA04,
2IFC,25,0,25,0,8,-1,correct answer,0.667320000008,False,True,stimulusMIJA04_2IFC_2019_Jun_18_1414_351,stimulusMIJA04_2IFC_2019_Jun_18_1414_352,True,2019_Jun_18_1414,2IFC,3,MIJA04,
2IFC,26,0,26,0,8,-1,correct answer,0.467458700004,False,True,stimulusMIJA04_2IFC_2019_Jun_18_1414_353,stimulusMIJA04_2IFC_2019_Jun_18_1414_354,True,2019_Jun_18_1414,2IFC,3,MIJA04,
2IFC,27,0,27,0,6.6,-1,wrong answer,0.667524899996,True,False,stimulusMIJA04_2IFC_2019_Jun_18_1414_355,stimulusMIJA04_2IFC_2019_Jun_18_1414_356,True,2019_Jun_18_1414,2IFC,3,MIJA04,
2IFC,28,0,28,0,1.7,-1,wrong answer,0.567321099981,False,True,stimulusMIJA04_2IFC_2019_Jun_18_1414_357,stimulusMIJA04_2IFC_2019_Jun_18_1414_358,True,2019_Jun_18_1414,2IFC,3,MIJA04,
2IFC,29,0,29,0,1.7,-1,wrong answer,0.300377000007,True,False,stimulusMIJA04_2IFC_2019_Jun_18_1414_359,stimulusMIJA04_2IFC_2019_Jun_18_1414_360,True,2019_Jun_18_1414,2IFC,3,MIJA04,
2IFC,30,0,30,0,1.7,-1,wrong answer,0.533999499981,False,True,stimulusMIJA04_2IFC_2019_Jun_18_1414_361,stimulusMIJA04_2IFC_2019_Jun_18_1414_362,True,2019_Jun_18_1414,2IFC,3,MIJA04,
2IFC,31,0,31,0,6.6,-1,correct answer,0.334073699953,True,False,stimulusMIJA04_2IFC_2019_Jun_18_1414_363,stimulusMIJA04_2IFC_2019_Jun_18_1414_364,True,2019_Jun_18_1414,2IFC,3,MIJA04,
2IFC,32,0,32,0,9.6,-1,correct answer,0.3000245,True,False,stimulusMIJA04_2IFC_2019_Jun_18_1414_365,stimulusMIJA04_2IFC_2019_Jun_18_1414_366,True,2019_Jun_18_1414,2IFC,3,MIJA04,
2IFC,33,0,33,0,3.3,-1,correct answer,0.46716260002,True,False,stimulusMIJA04_2IFC_2019_Jun_18_1414_367,stimulusMIJA04_2IFC_2019_Jun_18_1414_368,True,2019_Jun_18_1414,2IFC,3,MIJA04,
2IFC,34,0,34,0,6.6,-1,correct answer,0.267112399975,False,True,stimulusMIJA04_2IFC_2019_Jun_18_1414_369,stimulusMIJA04_2IFC_2019_Jun_18_1414_370,True,2019_Jun_18_1414,2IFC,3,MIJA04,
2IFC,35,0,35,0,6.6,-1,correct answer,0.3338659,False,True,stimulusMIJA04_2IFC_2019_Jun_18_1414_371,stimulusMIJA04_2IFC_2019_Jun_18_1414_372,True,2019_Jun_18_1414,2IFC,3,MIJA04,
2IFC,36,0,36,0,8,-1,correct answer,0.267345800006,True,False,stimulusMIJA04_2IFC_2019_Jun_18_1414_373,stimulusMIJA04_2IFC_2019_Jun_18_1414_374,True,2019_Jun_18_1414,2IFC,3,MIJA04,
2IFC,37,0,37,0,4.9,-1,wrong answer,0.267221999995,False,True,stimulusMIJA04_2IFC_2019_Jun_18_1414_375,stimulusMIJA04_2IFC_2019_Jun_18_1414_376,True,2019_Jun_18_1414,2IFC,3,MIJA04,
2IFC,38,0,38,0,4.9,-1,correct answer,0.535562500008,True,False,stimulusMIJA04_2IFC_2019_Jun_18_1414_377,stimulusMIJA04_2IFC_2019_Jun_18_1414_378,True,2019_Jun_18_1414,2IFC,3,MIJA04,
2IFC,39,0,39,0,8,-1,correct answer,0.300535099988,False,True,stimulusMIJA04_2IFC_2019_Jun_18_1414_379,stimulusMIJA04_2IFC_2019_Jun_18_1414_380,True,2019_Jun_18_1414,2IFC,3,MIJA04,
2IFC,40,0,40,0,9.6,-1,correct answer,0.334714500001,True,False,stimulusMIJA04_2IFC_2019_Jun_18_1414_381,stimulusMIJA04_2IFC_2019_Jun_18_1414_382,True,2019_Jun_18_1414,2IFC,3,MIJA04,
2IFC,41,0,41,0,8,-1,correct answer,0.300635200052,False,True,stimulusMIJA04_2IFC_2019_Jun_18_1414_383,stimulusMIJA04_2IFC_2019_Jun_18_1414_384,True,2019_Jun_18_1414,2IFC,3,MIJA04,
2IFC,42,0,42,0,1,-1,correct answer,0.367446100048,False,True,stimulusMIJA04_2IFC_2019_Jun_18_1414_385,stimulusMIJA04_2IFC_2019_Jun_18_1414_386,True,2019_Jun_18_1414,2IFC,3,MIJA04,
2IFC,43,0,43,0,4.9,-1,correct answer,0.500834000006,False,True,stimulusMIJA04_2IFC_2019_Jun_18_1414_387,stimulusMIJA04_2IFC_2019_Jun_18_1414_388,True,2019_Jun_18_1414,2IFC,3,MIJA04,
2IFC,44,0,44,0,8,-1,correct answer,0.334607099998,True,False,stimulusMIJA04_2IFC_2019_Jun_18_1414_389,stimulusMIJA04_2IFC_2019_Jun_18_1414_390,True,2019_Jun_18_1414,2IFC,3,MIJA04,
2IFC,45,0,45,0,6.6,-1,correct answer,0.301040999999,False,True,stimulusMIJA04_2IFC_2019_Jun_18_1414_391,stimulusMIJA04_2IFC_2019_Jun_18_1414_392,True,2019_Jun_18_1414,2IFC,3,MIJA04,
2IFC,46,0,46,0,11.5,-1,correct answer,0.467390999955,False,True,stimulusMIJA04_2IFC_2019_Jun_18_1414_393,stimulusMIJA04_2IFC_2019_Jun_18_1414_394,True,2019_Jun_18_1414,2IFC,3,MIJA04,
2IFC,47,0,47,0,6.6,-1,correct answer,0.56711459998,False,True,stimulusMIJA04_2IFC_2019_Jun_18_1414_395,stimulusMIJA04_2IFC_2019_Jun_18_1414_396,True,2019_Jun_18_1414,2IFC,3,MIJA04,
2IFC,48,0,48,0,11.5,-1,correct answer,0.500727700011,False,True,stimulusMIJA04_2IFC_2019_Jun_18_1414_397,stimulusMIJA04_2IFC_2019_Jun_18_1414_398,True,2019_Jun_18_1414,2IFC,3,MIJA04,
2IFC,49,0,49,0,11.5,-1,correct answer,0.200315200025,True,False,stimulusMIJA04_2IFC_2019_Jun_18_1414_399,stimulusMIJA04_2IFC_2019_Jun_18_1414_400,True,2019_Jun_18_1414,2IFC,3,MIJA04,
2IFC,50,0,50,0,9.6,-1,correct answer,0.23428090004,False,True,stimulusMIJA04_2IFC_2019_Jun_18_1414_401,stimulusMIJA04_2IFC_2019_Jun_18_1414_402,True,2019_Jun_18_1414,2IFC,3,MIJA04,
2IFC,51,0,51,0,6.6,-1,correct answer,0.266846100043,False,True,stimulusMIJA04_2IFC_2019_Jun_18_1414_403,stimulusMIJA04_2IFC_2019_Jun_18_1414_404,True,2019_Jun_18_1414,2IFC,3,MIJA04,
2IFC,52,0,52,0,9.6,-1,correct answer,0.466569900047,False,True,stimulusMIJA04_2IFC_2019_Jun_18_1414_405,stimulusMIJA04_2IFC_2019_Jun_18_1414_406,True,2019_Jun_18_1414,2IFC,3,MIJA04,
2IFC,53,0,53,0,9.6,-1,correct answer,0.433970000013,False,True,stimulusMIJA04_2IFC_2019_Jun_18_1414_407,stimulusMIJA04_2IFC_2019_Jun_18_1414_408,True,2019_Jun_18_1414,2IFC,3,MIJA04,
2IFC,54,0,54,0,4.9,-1,correct answer,0.433698799985,False,True,stimulusMIJA04_2IFC_2019_Jun_18_1414_409,stimulusMIJA04_2IFC_2019_Jun_18_1414_410,True,2019_Jun_18_1414,2IFC,3,MIJA04,
2IFC,55,0,55,0,4.9,-1,wrong answer,0.433999300003,True,False,stimulusMIJA04_2IFC_2019_Jun_18_1414_411,stimulusMIJA04_2IFC_2019_Jun_18_1414_412,True,2019_Jun_18_1414,2IFC,3,MIJA04,
2IFC,56,0,56,0,9.6,-1,correct answer,0.433756300015,False,True,stimulusMIJA04_2IFC_2019_Jun_18_1414_413,stimulusMIJA04_2IFC_2019_Jun_18_1414_414,True,2019_Jun_18_1414,2IFC,3,MIJA04,
2IFC,57,0,57,0,6.6,-1,correct answer,0.400433400006,False,True,stimulusMIJA04_2IFC_2019_Jun_18_1414_415,stimulusMIJA04_2IFC_2019_Jun_18_1414_416,True,2019_Jun_18_1414,2IFC,3,MIJA04,
2IFC,58,0,58,0,4.9,-1,correct answer,0.300634999992,False,True,stimulusMIJA04_2IFC_2019_Jun_18_1414_417,stimulusMIJA04_2IFC_2019_Jun_18_1414_418,True,2019_Jun_18_1414,2IFC,3,MIJA04,
2IFC,59,0,59,0,3.3,-1,wrong answer,0.600656099967,False,True,stimulusMIJA04_2IFC_2019_Jun_18_1414_419,stimulusMIJA04_2IFC_2019_Jun_18_1414_420,True,2019_Jun_18_1414,2IFC,3,MIJA04,
2IFC,60,0,60,0,1.7,-1,wrong answer,0.433655600005,True,False,stimulusMIJA04_2IFC_2019_Jun_18_1414_421,stimulusMIJA04_2IFC_2019_Jun_18_1414_422,True,2019_Jun_18_1414,2IFC,3,MIJA04,
2IFC,61,0,61,0,8,-1,correct answer,0.133819499984,True,False,stimulusMIJA04_2IFC_2019_Jun_18_1414_423,stimulusMIJA04_2IFC_2019_Jun_18_1414_424,True,2019_Jun_18_1414,2IFC,3,MIJA04,
2IFC,62,0,62,0,4.9,-1,correct answer,0.400535700028,False,True,stimulusMIJA04_2IFC_2019_Jun_18_1414_425,stimulusMIJA04_2IFC_2019_Jun_18_1414_426,True,2019_Jun_18_1414,2IFC,3,MIJA04,
2IFC,63,0,63,0,3.3,-1,correct answer,0.467224200023,True,False,stimulusMIJA04_2IFC_2019_Jun_18_1414_427,stimulusMIJA04_2IFC_2019_Jun_18_1414_428,True,2019_Jun_18_1414,2IFC,3,MIJA04,
2IFC,64,0,64,0,4.9,-1,correct answer,0.534068600042,False,True,stimulusMIJA04_2IFC_2019_Jun_18_1414_429,stimulusMIJA04_2IFC_2019_Jun_18_1414_430,True,2019_Jun_18_1414,2IFC,3,MIJA04,
2IFC,65,0,65,0,6.6,-1,correct answer,0.234385400021,True,False,stimulusMIJA04_2IFC_2019_Jun_18_1414_431,stimulusMIJA04_2IFC_2019_Jun_18_1414_432,True,2019_Jun_18_1414,2IFC,3,MIJA04,
2IFC,66,0,66,0,3.3,-1,correct answer,0.500856400002,True,False,stimulusMIJA04_2IFC_2019_Jun_18_1414_433,stimulusMIJA04_2IFC_2019_Jun_18_1414_434,True,2019_Jun_18_1414,2IFC,3,MIJA04,
2IFC,67,0,67,0,9.6,-1,correct answer,0.333930899971,False,True,stimulusMIJA04_2IFC_2019_Jun_18_1414_435,stimulusMIJA04_2IFC_2019_Jun_18_1414_436,True,2019_Jun_18_1414,2IFC,3,MIJA04,
2IFC,68,0,68,0,3.3,-1,wrong answer,0.400498699979,True,False,stimulusMIJA04_2IFC_2019_Jun_18_1414_437,stimulusMIJA04_2IFC_2019_Jun_18_1414_438,True,2019_Jun_18_1414,2IFC,3,MIJA04,
2IFC,69,0,69,0,1.7,-1,wrong answer,0.467667900026,False,True,stimulusMIJA04_2IFC_2019_Jun_18_1414_439,stimulusMIJA04_2IFC_2019_Jun_18_1414_440,True,2019_Jun_18_1414,2IFC,3,MIJA04,
2IFC,70,0,70,0,4.9,-1,correct answer,0.333997799957,True,False,stimulusMIJA04_2IFC_2019_Jun_18_1414_441,stimulusMIJA04_2IFC_2019_Jun_18_1414_442,True,2019_Jun_18_1414,2IFC,3,MIJA04,
2IFC,71,0,71,0,11.5,-1,correct answer,0.167056599981,True,False,stimulusMIJA04_2IFC_2019_Jun_18_1414_443,stimulusMIJA04_2IFC_2019_Jun_18_1414_444,True,2019_Jun_18_1414,2IFC,3,MIJA04,
2IFC,72,0,72,0,1.7,-1,correct answer,0.333712099993,False,True,stimulusMIJA04_2IFC_2019_Jun_18_1414_445,stimulusMIJA04_2IFC_2019_Jun_18_1414_446,True,2019_Jun_18_1414,2IFC,3,MIJA04,
2IFC,73,0,73,0,3.3,-1,correct answer,0.334702499968,False,True,stimulusMIJA04_2IFC_2019_Jun_18_1414_447,stimulusMIJA04_2IFC_2019_Jun_18_1414_448,True,2019_Jun_18_1414,2IFC,3,MIJA04,
2IFC,74,0,74,0,8,-1,correct answer,0.267020899977,True,False,stimulusMIJA04_2IFC_2019_Jun_18_1414_449,stimulusMIJA04_2IFC_2019_Jun_18_1414_450,True,2019_Jun_18_1414,2IFC,3,MIJA04,
2IFC,0,0,0,0,6.6,-1,wrong answer,0.434648099996,True,False,stimulusMIJA04_2IFC_2019_Jun_18_1414_451,stimulusMIJA04_2IFC_2019_Jun_18_1414_452,True,2019_Jun_18_1414,2IFC,3,MIJA04,
2IFC,1,0,1,0,6.6,-1,correct answer,0.336556099996,False,True,stimulusMIJA04_2IFC_2019_Jun_18_1414_453,stimulusMIJA04_2IFC_2019_Jun_18_1414_454,True,2019_Jun_18_1414,2IFC,3,MIJA04,
2IFC,2,0,2,0,1,-1,correct answer,0.400751599984,True,False,stimulusMIJA04_2IFC_2019_Jun_18_1414_455,stimulusMIJA04_2IFC_2019_Jun_18_1414_456,True,2019_Jun_18_1414,2IFC,3,MIJA04,
2IFC,3,0,3,0,9.6,-1,correct answer,0.267968199973,True,False,stimulusMIJA04_2IFC_2019_Jun_18_1414_457,stimulusMIJA04_2IFC_2019_Jun_18_1414_458,True,2019_Jun_18_1414,2IFC,3,MIJA04,
2IFC,4,0,4,0,4.9,-1,correct answer,0.333932299982,False,True,stimulusMIJA04_2IFC_2019_Jun_18_1414_459,stimulusMIJA04_2IFC_2019_Jun_18_1414_460,True,2019_Jun_18_1414,2IFC,3,MIJA04,
2IFC,5,0,5,0,6.6,-1,correct answer,0.667778200004,False,True,stimulusMIJA04_2IFC_2019_Jun_18_1414_461,stimulusMIJA04_2IFC_2019_Jun_18_1414_462,True,2019_Jun_18_1414,2IFC,3,MIJA04,
2IFC,6,0,6,0,1.7,-1,wrong answer,0.367064999999,False,True,stimulusMIJA04_2IFC_2019_Jun_18_1414_463,stimulusMIJA04_2IFC_2019_Jun_18_1414_464,True,2019_Jun_18_1414,2IFC,3,MIJA04,
2IFC,7,0,7,0,1.7,-1,wrong answer,0.100409300008,True,False,stimulusMIJA04_2IFC_2019_Jun_18_1414_465,stimulusMIJA04_2IFC_2019_Jun_18_1414_466,True,2019_Jun_18_1414,2IFC,3,MIJA04,
2IFC,8,0,8,0,1.7,-1,correct answer,0.401977300004,False,True,stimulusMIJA04_2IFC_2019_Jun_18_1414_467,stimulusMIJA04_2IFC_2019_Jun_18_1414_468,True,2019_Jun_18_1414,2IFC,3,MIJA04,
2IFC,9,0,9,0,3.3,-1,correct answer,0.466948500019,False,True,stimulusMIJA04_2IFC_2019_Jun_18_1414_469,stimulusMIJA04_2IFC_2019_Jun_18_1414_470,True,2019_Jun_18_1414,2IFC,3,MIJA04,
2IFC,10,0,10,0,8,-1,correct answer,0.534172400017,False,True,stimulusMIJA04_2IFC_2019_Jun_18_1414_471,stimulusMIJA04_2IFC_2019_Jun_18_1414_472,True,2019_Jun_18_1414,2IFC,3,MIJA04,
2IFC,11,0,11,0,1,-1,correct answer,0.533459400001,False,True,stimulusMIJA04_2IFC_2019_Jun_18_1414_473,stimulusMIJA04_2IFC_2019_Jun_18_1414_474,True,2019_Jun_18_1414,2IFC,3,MIJA04,
2IFC,12,0,12,0,1.7,-1,correct answer,0.333530300006,False,True,stimulusMIJA04_2IFC_2019_Jun_18_1414_475,stimulusMIJA04_2IFC_2019_Jun_18_1414_476,True,2019_Jun_18_1414,2IFC,3,MIJA04,
2IFC,13,0,13,0,1,-1,wrong answer,0.500528000004,False,True,stimulusMIJA04_2IFC_2019_Jun_18_1414_477,stimulusMIJA04_2IFC_2019_Jun_18_1414_478,True,2019_Jun_18_1414,2IFC,3,MIJA04,
2IFC,14,0,14,0,8,-1,correct answer,0.266824999999,True,False,stimulusMIJA04_2IFC_2019_Jun_18_1414_479,stimulusMIJA04_2IFC_2019_Jun_18_1414_480,True,2019_Jun_18_1414,2IFC,3,MIJA04,
2IFC,15,0,15,0,6.6,-1,correct answer,0.335122600023,False,True,stimulusMIJA04_2IFC_2019_Jun_18_1414_481,stimulusMIJA04_2IFC_2019_Jun_18_1414_482,True,2019_Jun_18_1414,2IFC,3,MIJA04,
2IFC,16,0,16,0,11.5,-1,correct answer,0.501463300025,False,True,stimulusMIJA04_2IFC_2019_Jun_18_1414_483,stimulusMIJA04_2IFC_2019_Jun_18_1414_484,True,2019_Jun_18_1414,2IFC,3,MIJA04,
2IFC,17,0,17,0,4.9,-1,correct answer,0.333687300037,True,False,stimulusMIJA04_2IFC_2019_Jun_18_1414_485,stimulusMIJA04_2IFC_2019_Jun_18_1414_486,True,2019_Jun_18_1414,2IFC,3,MIJA04,
2IFC,18,0,18,0,8,-1,correct answer,0.400521099975,False,True,stimulusMIJA04_2IFC_2019_Jun_18_1414_487,stimulusMIJA04_2IFC_2019_Jun_18_1414_488,True,2019_Jun_18_1414,2IFC,3,MIJA04,
2IFC,19,0,19,0,11.5,-1,correct answer,0.334016399982,False,True,stimulusMIJA04_2IFC_2019_Jun_18_1414_489,stimulusMIJA04_2IFC_2019_Jun_18_1414_490,True,2019_Jun_18_1414,2IFC,3,MIJA04,
2IFC,20,0,20,0,9.6,-1,correct answer,0.167095799989,True,False,stimulusMIJA04_2IFC_2019_Jun_18_1414_491,stimulusMIJA04_2IFC_2019_Jun_18_1414_492,True,2019_Jun_18_1414,2IFC,3,MIJA04,
2IFC,21,0,21,0,8,-1,correct answer,0.300163599954,False,True,stimulusMIJA04_2IFC_2019_Jun_18_1414_493,stimulusMIJA04_2IFC_2019_Jun_18_1414_494,True,2019_Jun_18_1414,2IFC,3,MIJA04,
2IFC,22,0,22,0,6.6,-1,correct answer,0.334240600001,False,True,stimulusMIJA04_2IFC_2019_Jun_18_1414_495,stimulusMIJA04_2IFC_2019_Jun_18_1414_496,True,2019_Jun_18_1414,2IFC,3,MIJA04,
2IFC,23,0,23,0,11.5,-1,correct answer,0.400519100018,False,True,stimulusMIJA04_2IFC_2019_Jun_18_1414_497,stimulusMIJA04_2IFC_2019_Jun_18_1414_498,True,2019_Jun_18_1414,2IFC,3,MIJA04,
2IFC,24,0,24,0,1,-1,wrong answer,0.367307599983,True,False,stimulusMIJA04_2IFC_2019_Jun_18_1414_499,stimulusMIJA04_2IFC_2019_Jun_18_1414_500,True,2019_Jun_18_1414,2IFC,3,MIJA04,
2IFC,25,0,25,0,8,-1,correct answer,0.300756299985,False,True,stimulusMIJA04_2IFC_2019_Jun_18_1414_501,stimulusMIJA04_2IFC_2019_Jun_18_1414_502,True,2019_Jun_18_1414,2IFC,3,MIJA04,
2IFC,26,0,26,0,3.3,-1,correct answer,0.433990499994,True,False,stimulusMIJA04_2IFC_2019_Jun_18_1414_503,stimulusMIJA04_2IFC_2019_Jun_18_1414_504,True,2019_Jun_18_1414,2IFC,3,MIJA04,
2IFC,27,0,27,0,11.5,-1,correct answer,0.0669454999734,True,False,stimulusMIJA04_2IFC_2019_Jun_18_1414_505,stimulusMIJA04_2IFC_2019_Jun_18_1414_506,True,2019_Jun_18_1414,2IFC,3,MIJA04,
2IFC,28,0,28,0,1.7,-1,wrong answer,0.333765999996,True,False,stimulusMIJA04_2IFC_2019_Jun_18_1414_507,stimulusMIJA04_2IFC_2019_Jun_18_1414_508,True,2019_Jun_18_1414,2IFC,3,MIJA04,
2IFC,29,0,29,0,3.3,-1,correct answer,0.268655199965,False,True,stimulusMIJA04_2IFC_2019_Jun_18_1414_509,stimulusMIJA04_2IFC_2019_Jun_18_1414_510,True,2019_Jun_18_1414,2IFC,3,MIJA04,
2IFC,30,0,30,0,1,-1,wrong answer,0.400445699983,True,False,stimulusMIJA04_2IFC_2019_Jun_18_1414_511,stimulusMIJA04_2IFC_2019_Jun_18_1414_512,True,2019_Jun_18_1414,2IFC,3,MIJA04,
2IFC,31,0,31,0,4.9,-1,correct answer,0.300763499981,True,False,stimulusMIJA04_2IFC_2019_Jun_18_1414_513,stimulusMIJA04_2IFC_2019_Jun_18_1414_514,True,2019_Jun_18_1414,2IFC,3,MIJA04,
2IFC,32,0,32,0,1,-1,correct answer,0.534110500012,True,False,stimulusMIJA04_2IFC_2019_Jun_18_1414_515,stimulusMIJA04_2IFC_2019_Jun_18_1414_516,True,2019_Jun_18_1414,2IFC,3,MIJA04,
2IFC,33,0,33,0,8,-1,correct answer,0.300356699969,True,False,stimulusMIJA04_2IFC_2019_Jun_18_1414_517,stimulusMIJA04_2IFC_2019_Jun_18_1414_518,True,2019_Jun_18_1414,2IFC,3,MIJA04,
2IFC,34,0,34,0,9.6,-1,correct answer,0.134494700003,True,False,stimulusMIJA04_2IFC_2019_Jun_18_1414_519,stimulusMIJA04_2IFC_2019_Jun_18_1414_520,True,2019_Jun_18_1414,2IFC,3,MIJA04,
2IFC,35,0,35,0,4.9,-1,correct answer,0.600839900027,False,True,stimulusMIJA04_2IFC_2019_Jun_18_1414_521,stimulusMIJA04_2IFC_2019_Jun_18_1414_522,True,2019_Jun_18_1414,2IFC,3,MIJA04,
2IFC,36,0,36,0,6.6,-1,correct answer,0.533452800009,True,False,stimulusMIJA04_2IFC_2019_Jun_18_1414_523,stimulusMIJA04_2IFC_2019_Jun_18_1414_524,True,2019_Jun_18_1414,2IFC,3,MIJA04,
2IFC,37,0,37,0,3.3,-1,wrong answer,0.500807800039,True,False,stimulusMIJA04_2IFC_2019_Jun_18_1414_525,stimulusMIJA04_2IFC_2019_Jun_18_1414_526,True,2019_Jun_18_1414,2IFC,3,MIJA04,
2IFC,38,0,38,0,4.9,-1,correct answer,0.434467700019,True,False,stimulusMIJA04_2IFC_2019_Jun_18_1414_527,stimulusMIJA04_2IFC_2019_Jun_18_1414_528,True,2019_Jun_18_1414,2IFC,3,MIJA04,
2IFC,39,0,39,0,9.6,-1,correct answer,0.40082390001,False,True,stimulusMIJA04_2IFC_2019_Jun_18_1414_529,stimulusMIJA04_2IFC_2019_Jun_18_1414_530,True,2019_Jun_18_1414,2IFC,3,MIJA04,
2IFC,40,0,40,0,3.3,-1,correct answer,0.634061599965,True,False,stimulusMIJA04_2IFC_2019_Jun_18_1414_531,stimulusMIJA04_2IFC_2019_Jun_18_1414_532,True,2019_Jun_18_1414,2IFC,3,MIJA04,
2IFC,41,0,41,0,6.6,-1,correct answer,0.600741299975,True,False,stimulusMIJA04_2IFC_2019_Jun_18_1414_533,stimulusMIJA04_2IFC_2019_Jun_18_1414_534,True,2019_Jun_18_1414,2IFC,3,MIJA04,
2IFC,42,0,42,0,9.6,-1,correct answer,0.363277199969,True,False,stimulusMIJA04_2IFC_2019_Jun_18_1414_535,stimulusMIJA04_2IFC_2019_Jun_18_1414_536,True,2019_Jun_18_1414,2IFC,3,MIJA04,
2IFC,43,0,43,0,1,-1,correct answer,0.301517900021,False,True,stimulusMIJA04_2IFC_2019_Jun_18_1414_537,stimulusMIJA04_2IFC_2019_Jun_18_1414_538,True,2019_Jun_18_1414,2IFC,3,MIJA04,
2IFC,44,0,44,0,11.5,-1,correct answer,0.267160499992,False,True,stimulusMIJA04_2IFC_2019_Jun_18_1414_539,stimulusMIJA04_2IFC_2019_Jun_18_1414_540,True,2019_Jun_18_1414,2IFC,3,MIJA04,
2IFC,45,0,45,0,1.7,-1,wrong answer,0.499964000017,True,False,stimulusMIJA04_2IFC_2019_Jun_18_1414_541,stimulusMIJA04_2IFC_2019_Jun_18_1414_542,True,2019_Jun_18_1414,2IFC,3,MIJA04,
2IFC,46,0,46,0,8,-1,correct answer,0.30036340002,False,True,stimulusMIJA04_2IFC_2019_Jun_18_1414_543,stimulusMIJA04_2IFC_2019_Jun_18_1414_544,True,2019_Jun_18_1414,2IFC,3,MIJA04,
2IFC,47,0,47,0,1,-1,correct answer,0.300929499965,False,True,stimulusMIJA04_2IFC_2019_Jun_18_1414_545,stimulusMIJA04_2IFC_2019_Jun_18_1414_546,True,2019_Jun_18_1414,2IFC,3,MIJA04,
2IFC,48,0,48,0,3.3,-1,correct answer,0.500175299996,True,False,stimulusMIJA04_2IFC_2019_Jun_18_1414_547,stimulusMIJA04_2IFC_2019_Jun_18_1414_548,True,2019_Jun_18_1414,2IFC,3,MIJA04,
2IFC,49,0,49,0,6.6,-1,correct answer,0.466358500009,False,True,stimulusMIJA04_2IFC_2019_Jun_18_1414_549,stimulusMIJA04_2IFC_2019_Jun_18_1414_550,True,2019_Jun_18_1414,2IFC,3,MIJA04,
2IFC,50,0,50,0,9.6,-1,correct answer,0.202203299967,True,False,stimulusMIJA04_2IFC_2019_Jun_18_1414_551,stimulusMIJA04_2IFC_2019_Jun_18_1414_552,True,2019_Jun_18_1414,2IFC,3,MIJA04,
2IFC,51,0,51,0,1.7,-1,correct answer,0.300860100018,False,True,stimulusMIJA04_2IFC_2019_Jun_18_1414_553,stimulusMIJA04_2IFC_2019_Jun_18_1414_554,True,2019_Jun_18_1414,2IFC,3,MIJA04,
2IFC,52,0,52,0,3.3,-1,wrong answer,0.433941000025,True,False,stimulusMIJA04_2IFC_2019_Jun_18_1414_555,stimulusMIJA04_2IFC_2019_Jun_18_1414_556,True,2019_Jun_18_1414,2IFC,3,MIJA04,
2IFC,53,0,53,0,6.6,-1,correct answer,0.0671925000497,True,False,stimulusMIJA04_2IFC_2019_Jun_18_1414_557,stimulusMIJA04_2IFC_2019_Jun_18_1414_558,True,2019_Jun_18_1414,2IFC,3,MIJA04,
2IFC,54,0,54,0,1.7,-1,wrong answer,0.334621599992,True,False,stimulusMIJA04_2IFC_2019_Jun_18_1414_559,stimulusMIJA04_2IFC_2019_Jun_18_1414_560,True,2019_Jun_18_1414,2IFC,3,MIJA04,
2IFC,55,0,55,0,3.3,-1,correct answer,0.433033000038,True,False,stimulusMIJA04_2IFC_2019_Jun_18_1414_561,stimulusMIJA04_2IFC_2019_Jun_18_1414_562,True,2019_Jun_18_1414,2IFC,3,MIJA04,
2IFC,56,0,56,0,8,-1,correct answer,0.26780229999,True,False,stimulusMIJA04_2IFC_2019_Jun_18_1414_563,stimulusMIJA04_2IFC_2019_Jun_18_1414_564,True,2019_Jun_18_1414,2IFC,3,MIJA04,
2IFC,57,0,57,0,11.5,-1,correct answer,0.500354600023,False,True,stimulusMIJA04_2IFC_2019_Jun_18_1414_565,stimulusMIJA04_2IFC_2019_Jun_18_1414_566,True,2019_Jun_18_1414,2IFC,3,MIJA04,
2IFC,58,0,58,0,4.9,-1,correct answer,0.467396399996,False,True,stimulusMIJA04_2IFC_2019_Jun_18_1414_567,stimulusMIJA04_2IFC_2019_Jun_18_1414_568,True,2019_Jun_18_1414,2IFC,3,MIJA04,
2IFC,59,0,59,0,9.6,-1,correct answer,0.367497000028,False,True,stimulusMIJA04_2IFC_2019_Jun_18_1414_569,stimulusMIJA04_2IFC_2019_Jun_18_1414_570,True,2019_Jun_18_1414,2IFC,3,MIJA04,
2IFC,60,0,60,0,1,-1,wrong answer,0.566654700029,True,False,stimulusMIJA04_2IFC_2019_Jun_18_1414_571,stimulusMIJA04_2IFC_2019_Jun_18_1414_572,True,2019_Jun_18_1414,2IFC,3,MIJA04,
2IFC,61,0,61,0,6.6,-1,correct answer,0.26829659997,True,False,stimulusMIJA04_2IFC_2019_Jun_18_1414_573,stimulusMIJA04_2IFC_2019_Jun_18_1414_574,True,2019_Jun_18_1414,2IFC,3,MIJA04,
2IFC,62,0,62,0,4.9,-1,wrong answer,0.267461699957,True,False,stimulusMIJA04_2IFC_2019_Jun_18_1414_575,stimulusMIJA04_2IFC_2019_Jun_18_1414_576,True,2019_Jun_18_1414,2IFC,3,MIJA04,
2IFC,63,0,63,0,1,-1,correct answer,0.13380120002,False,True,stimulusMIJA04_2IFC_2019_Jun_18_1414_577,stimulusMIJA04_2IFC_2019_Jun_18_1414_578,True,2019_Jun_18_1414,2IFC,3,MIJA04,
2IFC,64,0,64,0,3.3,-1,correct answer,0.266902400006,False,True,stimulusMIJA04_2IFC_2019_Jun_18_1414_579,stimulusMIJA04_2IFC_2019_Jun_18_1414_580,True,2019_Jun_18_1414,2IFC,3,MIJA04,
2IFC,65,0,65,0,8,-1,correct answer,0.434328800009,False,True,stimulusMIJA04_2IFC_2019_Jun_18_1414_581,stimulusMIJA04_2IFC_2019_Jun_18_1414_582,True,2019_Jun_18_1414,2IFC,3,MIJA04,
2IFC,66,0,66,0,6.6,-1,correct answer,0.33373459999,False,True,stimulusMIJA04_2IFC_2019_Jun_18_1414_583,stimulusMIJA04_2IFC_2019_Jun_18_1414_584,True,2019_Jun_18_1414,2IFC,3,MIJA04,
2IFC,67,0,67,0,1,-1,correct answer,0.465469199989,True,False,stimulusMIJA04_2IFC_2019_Jun_18_1414_585,stimulusMIJA04_2IFC_2019_Jun_18_1414_586,True,2019_Jun_18_1414,2IFC,3,MIJA04,
2IFC,68,0,68,0,11.5,-1,correct answer,0.267528599943,True,False,stimulusMIJA04_2IFC_2019_Jun_18_1414_587,stimulusMIJA04_2IFC_2019_Jun_18_1414_588,True,2019_Jun_18_1414,2IFC,3,MIJA04,
2IFC,69,0,69,0,8,-1,correct answer,0.534074300027,True,False,stimulusMIJA04_2IFC_2019_Jun_18_1414_589,stimulusMIJA04_2IFC_2019_Jun_18_1414_590,True,2019_Jun_18_1414,2IFC,3,MIJA04,
2IFC,70,0,70,0,11.5,-1,correct answer,0.333874899952,False,True,stimulusMIJA04_2IFC_2019_Jun_18_1414_591,stimulusMIJA04_2IFC_2019_Jun_18_1414_592,True,2019_Jun_18_1414,2IFC,3,MIJA04,
2IFC,71,0,71,0,4.9,-1,correct answer,0.435892599984,False,True,stimulusMIJA04_2IFC_2019_Jun_18_1414_593,stimulusMIJA04_2IFC_2019_Jun_18_1414_594,True,2019_Jun_18_1414,2IFC,3,MIJA04,
2IFC,72,0,72,0,6.6,-1,correct answer,0.400803999975,False,True,stimulusMIJA04_2IFC_2019_Jun_18_1414_595,stimulusMIJA04_2IFC_2019_Jun_18_1414_596,True,2019_Jun_18_1414,2IFC,3,MIJA04,
2IFC,73,0,73,0,3.3,-1,correct answer,0.400654500001,False,True,stimulusMIJA04_2IFC_2019_Jun_18_1414_597,stimulusMIJA04_2IFC_2019_Jun_18_1414_598,True,2019_Jun_18_1414,2IFC,3,MIJA04,
2IFC,74,0,74,0,8,-1,correct answer,0.30016709998,True,False,stimulusMIJA04_2IFC_2019_Jun_18_1414_599,stimulusMIJA04_2IFC_2019_Jun_18_1414_600,True,2019_Jun_18_1414,2IFC,3,MIJA04,
2IFC,0,0,0,0,11.5,-1,correct answer,0.333916299976,False,True,stimulusMIJA04_2IFC_2019_Jun_18_1414_601,stimulusMIJA04_2IFC_2019_Jun_18_1414_602,True,2019_Jun_18_1414,2IFC,3,MIJA04,
2IFC,1,0,1,0,8,-1,correct answer,0.302256800001,True,False,stimulusMIJA04_2IFC_2019_Jun_18_1414_603,stimulusMIJA04_2IFC_2019_Jun_18_1414_604,True,2019_Jun_18_1414,2IFC,3,MIJA04,
2IFC,2,0,2,0,9.6,-1,correct answer,0.300443999993,False,True,stimulusMIJA04_2IFC_2019_Jun_18_1414_605,stimulusMIJA04_2IFC_2019_Jun_18_1414_606,True,2019_Jun_18_1414,2IFC,3,MIJA04,
2IFC,3,0,3,0,1,-1,correct answer,0.533040800015,True,False,stimulusMIJA04_2IFC_2019_Jun_18_1414_607,stimulusMIJA04_2IFC_2019_Jun_18_1414_608,True,2019_Jun_18_1414,2IFC,3,MIJA04,
2IFC,4,0,4,0,6.6,-1,correct answer,0.36667909997,False,True,stimulusMIJA04_2IFC_2019_Jun_18_1414_609,stimulusMIJA04_2IFC_2019_Jun_18_1414_610,True,2019_Jun_18_1414,2IFC,3,MIJA04,
2IFC,5,0,5,0,11.5,-1,correct answer,0.367146000033,False,True,stimulusMIJA04_2IFC_2019_Jun_18_1414_611,stimulusMIJA04_2IFC_2019_Jun_18_1414_612,True,2019_Jun_18_1414,2IFC,3,MIJA04,
2IFC,6,0,6,0,11.5,-1,correct answer,0.100409999955,True,False,stimulusMIJA04_2IFC_2019_Jun_18_1414_613,stimulusMIJA04_2IFC_2019_Jun_18_1414_614,True,2019_Jun_18_1414,2IFC,3,MIJA04,
2IFC,7,0,7,0,1.7,-1,no answer,-1,True,False,stimulusMIJA04_2IFC_2019_Jun_18_1414_615,stimulusMIJA04_2IFC_2019_Jun_18_1414_616,True,2019_Jun_18_1414,2IFC,3,MIJA04,
2IFC,8,0,8,0,4.9,-1,wrong answer,0.267726199992,True,False,stimulusMIJA04_2IFC_2019_Jun_18_1414_617,stimulusMIJA04_2IFC_2019_Jun_18_1414_618,True,2019_Jun_18_1414,2IFC,3,MIJA04,
2IFC,9,0,9,0,1.7,-1,wrong answer,0.267212100036,True,False,stimulusMIJA04_2IFC_2019_Jun_18_1414_619,stimulusMIJA04_2IFC_2019_Jun_18_1414_620,True,2019_Jun_18_1414,2IFC,3,MIJA04,
2IFC,10,0,10,0,11.5,-1,correct answer,0.400810300023,False,True,stimulusMIJA04_2IFC_2019_Jun_18_1414_621,stimulusMIJA04_2IFC_2019_Jun_18_1414_622,True,2019_Jun_18_1414,2IFC,3,MIJA04,
2IFC,11,0,11,0,3.3,-1,correct answer,0.434416200034,False,True,stimulusMIJA04_2IFC_2019_Jun_18_1414_623,stimulusMIJA04_2IFC_2019_Jun_18_1414_624,True,2019_Jun_18_1414,2IFC,3,MIJA04,
2IFC,12,0,12,0,1,-1,correct answer,0.300624300027,False,True,stimulusMIJA04_2IFC_2019_Jun_18_1414_625,stimulusMIJA04_2IFC_2019_Jun_18_1414_626,True,2019_Jun_18_1414,2IFC,3,MIJA04,
2IFC,13,0,13,0,6.6,-1,correct answer,0.200456399994,True,False,stimulusMIJA04_2IFC_2019_Jun_18_1414_627,stimulusMIJA04_2IFC_2019_Jun_18_1414_628,True,2019_Jun_18_1414,2IFC,3,MIJA04,
2IFC,14,0,14,0,1,-1,correct answer,0.431798000005,True,False,stimulusMIJA04_2IFC_2019_Jun_18_1414_629,stimulusMIJA04_2IFC_2019_Jun_18_1414_630,True,2019_Jun_18_1414,2IFC,3,MIJA04,
2IFC,15,0,15,0,8,-1,correct answer,0.333778199973,True,False,stimulusMIJA04_2IFC_2019_Jun_18_1414_631,stimulusMIJA04_2IFC_2019_Jun_18_1414_632,True,2019_Jun_18_1414,2IFC,3,MIJA04,
2IFC,16,0,16,0,6.6,-1,wrong answer,0.267670300032,False,True,stimulusMIJA04_2IFC_2019_Jun_18_1414_633,stimulusMIJA04_2IFC_2019_Jun_18_1414_634,True,2019_Jun_18_1414,2IFC,3,MIJA04,
2IFC,17,0,17,0,8,-1,correct answer,0.267288100033,False,True,stimulusMIJA04_2IFC_2019_Jun_18_1414_635,stimulusMIJA04_2IFC_2019_Jun_18_1414_636,True,2019_Jun_18_1414,2IFC,3,MIJA04,
2IFC,18,0,18,0,8,-1,correct answer,0.267981300014,True,False,stimulusMIJA04_2IFC_2019_Jun_18_1414_637,stimulusMIJA04_2IFC_2019_Jun_18_1414_638,True,2019_Jun_18_1414,2IFC,3,MIJA04,
2IFC,19,0,19,0,6.6,-1,correct answer,0.0670732000144,True,False,stimulusMIJA04_2IFC_2019_Jun_18_1414_639,stimulusMIJA04_2IFC_2019_Jun_18_1414_640,True,2019_Jun_18_1414,2IFC,3,MIJA04,
2IFC,20,0,20,0,6.6,-1,correct answer,0.300680099986,True,False,stimulusMIJA04_2IFC_2019_Jun_18_1414_641,stimulusMIJA04_2IFC_2019_Jun_18_1414_642,True,2019_Jun_18_1414,2IFC,3,MIJA04,
2IFC,21,0,21,0,9.6,-1,correct answer,0.199697999982,False,True,stimulusMIJA04_2IFC_2019_Jun_18_1414_643,stimulusMIJA04_2IFC_2019_Jun_18_1414_644,True,2019_Jun_18_1414,2IFC,3,MIJA04,
2IFC,22,0,22,0,1.7,-1,wrong answer,0.366582199989,True,False,stimulusMIJA04_2IFC_2019_Jun_18_1414_645,stimulusMIJA04_2IFC_2019_Jun_18_1414_646,True,2019_Jun_18_1414,2IFC,3,MIJA04,
2IFC,23,0,23,0,6.6,-1,correct answer,0.267576300015,False,True,stimulusMIJA04_2IFC_2019_Jun_18_1414_647,stimulusMIJA04_2IFC_2019_Jun_18_1414_648,True,2019_Jun_18_1414,2IFC,3,MIJA04,
2IFC,24,0,24,0,4.9,-1,wrong answer,0.467129199998,True,False,stimulusMIJA04_2IFC_2019_Jun_18_1414_649,stimulusMIJA04_2IFC_2019_Jun_18_1414_650,True,2019_Jun_18_1414,2IFC,3,MIJA04,
2IFC,25,0,25,0,6.6,-1,correct answer,0.434402999992,False,True,stimulusMIJA04_2IFC_2019_Jun_18_1414_651,stimulusMIJA04_2IFC_2019_Jun_18_1414_652,True,2019_Jun_18_1414,2IFC,3,MIJA04,
2IFC,26,0,26,0,4.9,-1,correct answer,0.3002614,True,False,stimulusMIJA04_2IFC_2019_Jun_18_1414_653,stimulusMIJA04_2IFC_2019_Jun_18_1414_654,True,2019_Jun_18_1414,2IFC,3,MIJA04,
2IFC,27,0,27,0,1,-1,correct answer,0.533909099991,True,False,stimulusMIJA04_2IFC_2019_Jun_18_1414_655,stimulusMIJA04_2IFC_2019_Jun_18_1414_656,True,2019_Jun_18_1414,2IFC,3,MIJA04,
2IFC,28,0,28,0,6.6,-1,correct answer,0.434335600003,False,True,stimulusMIJA04_2IFC_2019_Jun_18_1414_657,stimulusMIJA04_2IFC_2019_Jun_18_1414_658,True,2019_Jun_18_1414,2IFC,3,MIJA04,
2IFC,29,0,29,0,1.7,-1,correct answer,0.0671154999873,False,True,stimulusMIJA04_2IFC_2019_Jun_18_1414_659,stimulusMIJA04_2IFC_2019_Jun_18_1414_660,True,2019_Jun_18_1414,2IFC,3,MIJA04,
2IFC,30,0,30,0,6.6,-1,correct answer,0.500547100033,False,True,stimulusMIJA04_2IFC_2019_Jun_18_1414_661,stimulusMIJA04_2IFC_2019_Jun_18_1414_662,True,2019_Jun_18_1414,2IFC,3,MIJA04,
2IFC,31,0,31,0,1.7,-1,correct answer,0.30062470003,False,True,stimulusMIJA04_2IFC_2019_Jun_18_1414_663,stimulusMIJA04_2IFC_2019_Jun_18_1414_664,True,2019_Jun_18_1414,2IFC,3,MIJA04,
2IFC,32,0,32,0,6.6,-1,correct answer,0.467761399981,False,True,stimulusMIJA04_2IFC_2019_Jun_18_1414_665,stimulusMIJA04_2IFC_2019_Jun_18_1414_666,True,2019_Jun_18_1414,2IFC,3,MIJA04,
2IFC,33,0,33,0,9.6,-1,correct answer,0.267258699983,False,True,stimulusMIJA04_2IFC_2019_Jun_18_1414_667,stimulusMIJA04_2IFC_2019_Jun_18_1414_668,True,2019_Jun_18_1414,2IFC,3,MIJA04,
2IFC,34,0,34,0,4.9,-1,wrong answer,0.334605999989,True,False,stimulusMIJA04_2IFC_2019_Jun_18_1414_669,stimulusMIJA04_2IFC_2019_Jun_18_1414_670,True,2019_Jun_18_1414,2IFC,3,MIJA04,
2IFC,35,0,35,0,8,-1,correct answer,0.366773099988,False,True,stimulusMIJA04_2IFC_2019_Jun_18_1414_671,stimulusMIJA04_2IFC_2019_Jun_18_1414_672,True,2019_Jun_18_1414,2IFC,3,MIJA04,
2IFC,36,0,36,0,1,-1,wrong answer,0.501003600017,True,False,stimulusMIJA04_2IFC_2019_Jun_18_1414_673,stimulusMIJA04_2IFC_2019_Jun_18_1414_674,True,2019_Jun_18_1414,2IFC,3,MIJA04,
2IFC,37,0,37,0,3.3,-1,wrong answer,0.500700000033,True,False,stimulusMIJA04_2IFC_2019_Jun_18_1414_675,stimulusMIJA04_2IFC_2019_Jun_18_1414_676,True,2019_Jun_18_1414,2IFC,3,MIJA04,
2IFC,38,0,38,0,9.6,-1,correct answer,0.19995150005,True,False,stimulusMIJA04_2IFC_2019_Jun_18_1414_677,stimulusMIJA04_2IFC_2019_Jun_18_1414_678,True,2019_Jun_18_1414,2IFC,3,MIJA04,
2IFC,39,0,39,0,3.3,-1,correct answer,0.233691100031,False,True,stimulusMIJA04_2IFC_2019_Jun_18_1414_679,stimulusMIJA04_2IFC_2019_Jun_18_1414_680,True,2019_Jun_18_1414,2IFC,3,MIJA04,
2IFC,40,0,40,0,1.7,-1,correct answer,0.467230300012,True,False,stimulusMIJA04_2IFC_2019_Jun_18_1414_681,stimulusMIJA04_2IFC_2019_Jun_18_1414_682,True,2019_Jun_18_1414,2IFC,3,MIJA04,
2IFC,41,0,41,0,3.3,-1,wrong answer,0.333823899971,True,False,stimulusMIJA04_2IFC_2019_Jun_18_1414_683,stimulusMIJA04_2IFC_2019_Jun_18_1414_684,True,2019_Jun_18_1414,2IFC,3,MIJA04,
2IFC,42,0,42,0,9.6,-1,correct answer,0.200625500001,False,True,stimulusMIJA04_2IFC_2019_Jun_18_1414_685,stimulusMIJA04_2IFC_2019_Jun_18_1414_686,True,2019_Jun_18_1414,2IFC,3,MIJA04,
2IFC,43,0,43,0,11.5,-1,correct answer,0.166731100006,True,False,stimulusMIJA04_2IFC_2019_Jun_18_1414_687,stimulusMIJA04_2IFC_2019_Jun_18_1414_688,True,2019_Jun_18_1414,2IFC,3,MIJA04,
2IFC,44,0,44,0,1.7,-1,correct answer,0.567373699974,False,True,stimulusMIJA04_2IFC_2019_Jun_18_1414_689,stimulusMIJA04_2IFC_2019_Jun_18_1414_690,True,2019_Jun_18_1414,2IFC,3,MIJA04,
2IFC,45,0,45,0,11.5,-1,correct answer,0.400625600014,False,True,stimulusMIJA04_2IFC_2019_Jun_18_1414_691,stimulusMIJA04_2IFC_2019_Jun_18_1414_692,True,2019_Jun_18_1414,2IFC,3,MIJA04,
2IFC,46,0,46,0,1.7,-1,wrong answer,0.567255200003,False,True,stimulusMIJA04_2IFC_2019_Jun_18_1414_693,stimulusMIJA04_2IFC_2019_Jun_18_1414_694,True,2019_Jun_18_1414,2IFC,3,MIJA04,
2IFC,47,0,47,0,11.5,-1,correct answer,0.337589500006,True,False,stimulusMIJA04_2IFC_2019_Jun_18_1414_695,stimulusMIJA04_2IFC_2019_Jun_18_1414_696,True,2019_Jun_18_1414,2IFC,3,MIJA04,
2IFC,48,0,48,0,3.3,-1,correct answer,0.298691399978,True,False,stimulusMIJA04_2IFC_2019_Jun_18_1414_697,stimulusMIJA04_2IFC_2019_Jun_18_1414_698,True,2019_Jun_18_1414,2IFC,3,MIJA04,
2IFC,49,0,49,0,4.9,-1,correct answer,0.467247200024,True,False,stimulusMIJA04_2IFC_2019_Jun_18_1414_699,stimulusMIJA04_2IFC_2019_Jun_18_1414_700,True,2019_Jun_18_1414,2IFC,3,MIJA04,
2IFC,50,0,50,0,4.9,-1,wrong answer,0.303538800043,True,False,stimulusMIJA04_2IFC_2019_Jun_18_1414_701,stimulusMIJA04_2IFC_2019_Jun_18_1414_702,True,2019_Jun_18_1414,2IFC,3,MIJA04,
2IFC,51,0,51,0,8,-1,correct answer,0.533830599976,True,False,stimulusMIJA04_2IFC_2019_Jun_18_1414_703,stimulusMIJA04_2IFC_2019_Jun_18_1414_704,True,2019_Jun_18_1414,2IFC,3,MIJA04,
2IFC,52,0,52,0,1.7,-1,correct answer,0.366827799997,True,False,stimulusMIJA04_2IFC_2019_Jun_18_1414_705,stimulusMIJA04_2IFC_2019_Jun_18_1414_706,True,2019_Jun_18_1414,2IFC,3,MIJA04,
2IFC,53,0,53,0,6.6,-1,correct answer,0.366656599974,True,False,stimulusMIJA04_2IFC_2019_Jun_18_1414_707,stimulusMIJA04_2IFC_2019_Jun_18_1414_708,True,2019_Jun_18_1414,2IFC,3,MIJA04,
2IFC,54,0,54,0,1,-1,wrong answer,0.438185099978,False,True,stimulusMIJA04_2IFC_2019_Jun_18_1414_709,stimulusMIJA04_2IFC_2019_Jun_18_1414_710,True,2019_Jun_18_1414,2IFC,3,MIJA04,
2IFC,55,0,55,0,4.9,-1,correct answer,0.267261500005,False,True,stimulusMIJA04_2IFC_2019_Jun_18_1414_711,stimulusMIJA04_2IFC_2019_Jun_18_1414_712,True,2019_Jun_18_1414,2IFC,3,MIJA04,
2IFC,56,0,56,0,1.7,-1,wrong answer,0.266983599984,True,False,stimulusMIJA04_2IFC_2019_Jun_18_1414_713,stimulusMIJA04_2IFC_2019_Jun_18_1414_714,True,2019_Jun_18_1414,2IFC,3,MIJA04,
2IFC,57,0,57,0,8,-1,correct answer,0.300183100044,True,False,stimulusMIJA04_2IFC_2019_Jun_18_1414_715,stimulusMIJA04_2IFC_2019_Jun_18_1414_716,True,2019_Jun_18_1414,2IFC,3,MIJA04,
2IFC,58,0,58,0,3.3,-1,correct answer,0.334182500024,False,True,stimulusMIJA04_2IFC_2019_Jun_18_1414_717,stimulusMIJA04_2IFC_2019_Jun_18_1414_718,True,2019_Jun_18_1414,2IFC,3,MIJA04,
2IFC,59,0,59,0,8,-1,correct answer,0.33438039996,True,False,stimulusMIJA04_2IFC_2019_Jun_18_1414_719,stimulusMIJA04_2IFC_2019_Jun_18_1414_720,True,2019_Jun_18_1414,2IFC,3,MIJA04,
2IFC,60,0,60,0,1.7,-1,wrong answer,0.233874100028,True,False,stimulusMIJA04_2IFC_2019_Jun_18_1414_721,stimulusMIJA04_2IFC_2019_Jun_18_1414_722,True,2019_Jun_18_1414,2IFC,3,MIJA04,
2IFC,61,0,61,0,1.7,-1,correct answer,0.333796699997,False,True,stimulusMIJA04_2IFC_2019_Jun_18_1414_723,stimulusMIJA04_2IFC_2019_Jun_18_1414_724,True,2019_Jun_18_1414,2IFC,3,MIJA04,
2IFC,62,0,62,0,1.7,-1,wrong answer,0.267215300002,True,False,stimulusMIJA04_2IFC_2019_Jun_18_1414_725,stimulusMIJA04_2IFC_2019_Jun_18_1414_726,True,2019_Jun_18_1414,2IFC,3,MIJA04,
2IFC,63,0,63,0,1.7,-1,wrong answer,0.400527600024,True,False,stimulusMIJA04_2IFC_2019_Jun_18_1414_727,stimulusMIJA04_2IFC_2019_Jun_18_1414_728,True,2019_Jun_18_1414,2IFC,3,MIJA04,
2IFC,64,0,64,0,1,-1,correct answer,0.201115999953,False,True,stimulusMIJA04_2IFC_2019_Jun_18_1414_729,stimulusMIJA04_2IFC_2019_Jun_18_1414_730,True,2019_Jun_18_1414,2IFC,3,MIJA04,
2IFC,65,0,65,0,6.6,-1,correct answer,0.300642500049,True,False,stimulusMIJA04_2IFC_2019_Jun_18_1414_731,stimulusMIJA04_2IFC_2019_Jun_18_1414_732,True,2019_Jun_18_1414,2IFC,3,MIJA04,
2IFC,66,0,66,0,11.5,-1,correct answer,0.300714800018,True,False,stimulusMIJA04_2IFC_2019_Jun_18_1414_733,stimulusMIJA04_2IFC_2019_Jun_18_1414_734,True,2019_Jun_18_1414,2IFC,3,MIJA04,
2IFC,67,0,67,0,1.7,-1,correct answer,0.333821200009,False,True,stimulusMIJA04_2IFC_2019_Jun_18_1414_735,stimulusMIJA04_2IFC_2019_Jun_18_1414_736,True,2019_Jun_18_1414,2IFC,3,MIJA04,
2IFC,68,0,68,0,3.3,-1,correct answer,0.299732899992,False,True,stimulusMIJA04_2IFC_2019_Jun_18_1414_737,stimulusMIJA04_2IFC_2019_Jun_18_1414_738,True,2019_Jun_18_1414,2IFC,3,MIJA04,
2IFC,69,0,69,0,9.6,-1,correct answer,0.100455700012,True,False,stimulusMIJA04_2IFC_2019_Jun_18_1414_739,stimulusMIJA04_2IFC_2019_Jun_18_1414_740,True,2019_Jun_18_1414,2IFC,3,MIJA04,
2IFC,70,0,70,0,1.7,-1,wrong answer,0.30129730003,True,False,stimulusMIJA04_2IFC_2019_Jun_18_1414_741,stimulusMIJA04_2IFC_2019_Jun_18_1414_742,True,2019_Jun_18_1414,2IFC,3,MIJA04,
2IFC,71,0,71,0,11.5,-1,correct answer,0.20006599999,True,False,stimulusMIJA04_2IFC_2019_Jun_18_1414_743,stimulusMIJA04_2IFC_2019_Jun_18_1414_744,True,2019_Jun_18_1414,2IFC,3,MIJA04,
2IFC,72,0,72,0,1.7,-1,correct answer,0.333893900039,False,True,stimulusMIJA04_2IFC_2019_Jun_18_1414_745,stimulusMIJA04_2IFC_2019_Jun_18_1414_746,True,2019_Jun_18_1414,2IFC,3,MIJA04,
2IFC,73,0,73,0,9.6,-1,correct answer,0.367321200029,False,True,stimulusMIJA04_2IFC_2019_Jun_18_1414_747,stimulusMIJA04_2IFC_2019_Jun_18_1414_748,True,2019_Jun_18_1414,2IFC,3,MIJA04,
2IFC,74,0,74,0,4.9,-1,correct answer,0.434118399979,True,False,stimulusMIJA04_2IFC_2019_Jun_18_1414_749,stimulusMIJA04_2IFC_2019_Jun_18_1414_750,True,2019_Jun_18_1414,2IFC,3,MIJA04,
2IFC,0,0,0,0,3.3,-1,correct answer,0.735252399987,True,False,stimulusMIJA04_2IFC_2019_Jun_18_1414_751,stimulusMIJA04_2IFC_2019_Jun_18_1414_752,True,2019_Jun_18_1414,2IFC,3,MIJA04,
2IFC,1,0,1,0,9.6,-1,correct answer,0.301751399995,True,False,stimulusMIJA04_2IFC_2019_Jun_18_1414_753,stimulusMIJA04_2IFC_2019_Jun_18_1414_754,True,2019_Jun_18_1414,2IFC,3,MIJA04,
2IFC,2,0,2,0,1.7,-1,wrong answer,0.3004831,False,True,stimulusMIJA04_2IFC_2019_Jun_18_1414_755,stimulusMIJA04_2IFC_2019_Jun_18_1414_756,True,2019_Jun_18_1414,2IFC,3,MIJA04,
2IFC,3,0,3,0,8,-1,correct answer,0.333733400039,False,True,stimulusMIJA04_2IFC_2019_Jun_18_1414_757,stimulusMIJA04_2IFC_2019_Jun_18_1414_758,True,2019_Jun_18_1414,2IFC,3,MIJA04,
2IFC,4,0,4,0,4.9,-1,correct answer,0.533874900022,True,False,stimulusMIJA04_2IFC_2019_Jun_18_1414_759,stimulusMIJA04_2IFC_2019_Jun_18_1414_760,True,2019_Jun_18_1414,2IFC,3,MIJA04,
2IFC,5,0,5,0,1.7,-1,wrong answer,0.366024499992,True,False,stimulusMIJA04_2IFC_2019_Jun_18_1414_761,stimulusMIJA04_2IFC_2019_Jun_18_1414_762,True,2019_Jun_18_1414,2IFC,3,MIJA04,
2IFC,6,0,6,0,11.5,-1,correct answer,0.300176199991,True,False,stimulusMIJA04_2IFC_2019_Jun_18_1414_763,stimulusMIJA04_2IFC_2019_Jun_18_1414_764,True,2019_Jun_18_1414,2IFC,3,MIJA04,
2IFC,7,0,7,0,3.3,-1,wrong answer,0.333963699988,True,False,stimulusMIJA04_2IFC_2019_Jun_18_1414_765,stimulusMIJA04_2IFC_2019_Jun_18_1414_766,True,2019_Jun_18_1414,2IFC,3,MIJA04,
2IFC,8,0,8,0,3.3,-1,wrong answer,0.433755300008,False,True,stimulusMIJA04_2IFC_2019_Jun_18_1414_767,stimulusMIJA04_2IFC_2019_Jun_18_1414_768,True,2019_Jun_18_1414,2IFC,3,MIJA04,
2IFC,9,0,9,0,8,-1,correct answer,0.333018100006,False,True,stimulusMIJA04_2IFC_2019_Jun_18_1414_769,stimulusMIJA04_2IFC_2019_Jun_18_1414_770,True,2019_Jun_18_1414,2IFC,3,MIJA04,
2IFC,10,0,10,0,1,-1,wrong answer,0.301012900018,True,False,stimulusMIJA04_2IFC_2019_Jun_18_1414_771,stimulusMIJA04_2IFC_2019_Jun_18_1414_772,True,2019_Jun_18_1414,2IFC,3,MIJA04,
2IFC,11,0,11,0,3.3,-1,correct answer,0.333662399964,True,False,stimulusMIJA04_2IFC_2019_Jun_18_1414_773,stimulusMIJA04_2IFC_2019_Jun_18_1414_774,True,2019_Jun_18_1414,2IFC,3,MIJA04,
2IFC,12,0,12,0,11.5,-1,wrong answer,0.233883799985,False,True,stimulusMIJA04_2IFC_2019_Jun_18_1414_775,stimulusMIJA04_2IFC_2019_Jun_18_1414_776,True,2019_Jun_18_1414,2IFC,3,MIJA04,
2IFC,13,0,13,0,8,-1,correct answer,0.164998700027,True,False,stimulusMIJA04_2IFC_2019_Jun_18_1414_777,stimulusMIJA04_2IFC_2019_Jun_18_1414_778,True,2019_Jun_18_1414,2IFC,3,MIJA04,
2IFC,14,0,14,0,9.6,-1,correct answer,0.166798899998,True,False,stimulusMIJA04_2IFC_2019_Jun_18_1414_779,stimulusMIJA04_2IFC_2019_Jun_18_1414_780,True,2019_Jun_18_1414,2IFC,3,MIJA04,
2IFC,15,0,15,0,8,-1,correct answer,0.133680000028,False,True,stimulusMIJA04_2IFC_2019_Jun_18_1414_781,stimulusMIJA04_2IFC_2019_Jun_18_1414_782,True,2019_Jun_18_1414,2IFC,3,MIJA04,
2IFC,16,0,16,0,1.7,-1,wrong answer,0.33449139999,True,False,stimulusMIJA04_2IFC_2019_Jun_18_1414_783,stimulusMIJA04_2IFC_2019_Jun_18_1414_784,True,2019_Jun_18_1414,2IFC,3,MIJA04,
2IFC,17,0,17,0,11.5,-1,correct answer,0.334239799995,False,True,stimulusMIJA04_2IFC_2019_Jun_18_1414_785,stimulusMIJA04_2IFC_2019_Jun_18_1414_786,True,2019_Jun_18_1414,2IFC,3,MIJA04,
2IFC,18,0,18,0,11.5,-1,correct answer,0.400415699987,False,True,stimulusMIJA04_2IFC_2019_Jun_18_1414_787,stimulusMIJA04_2IFC_2019_Jun_18_1414_788,True,2019_Jun_18_1414,2IFC,3,MIJA04,
2IFC,19,0,19,0,6.6,-1,correct answer,0.23376709997,False,True,stimulusMIJA04_2IFC_2019_Jun_18_1414_789,stimulusMIJA04_2IFC_2019_Jun_18_1414_790,True,2019_Jun_18_1414,2IFC,3,MIJA04,
2IFC,20,0,20,0,1.7,-1,correct answer,0.333860399958,False,True,stimulusMIJA04_2IFC_2019_Jun_18_1414_791,stimulusMIJA04_2IFC_2019_Jun_18_1414_792,True,2019_Jun_18_1414,2IFC,3,MIJA04,
2IFC,21,0,21,0,1,-1,correct answer,0.400634399964,True,False,stimulusMIJA04_2IFC_2019_Jun_18_1414_793,stimulusMIJA04_2IFC_2019_Jun_18_1414_794,True,2019_Jun_18_1414,2IFC,3,MIJA04,
2IFC,22,0,22,0,8,-1,correct answer,0.13389930001,True,False,stimulusMIJA04_2IFC_2019_Jun_18_1414_795,stimulusMIJA04_2IFC_2019_Jun_18_1414_796,True,2019_Jun_18_1414,2IFC,3,MIJA04,
2IFC,23,0,23,0,9.6,-1,correct answer,0.300382199988,False,True,stimulusMIJA04_2IFC_2019_Jun_18_1414_797,stimulusMIJA04_2IFC_2019_Jun_18_1414_798,True,2019_Jun_18_1414,2IFC,3,MIJA04,
2IFC,24,0,24,0,3.3,-1,wrong answer,0.467230900016,True,False,stimulusMIJA04_2IFC_2019_Jun_18_1414_799,stimulusMIJA04_2IFC_2019_Jun_18_1414_800,True,2019_Jun_18_1414,2IFC,3,MIJA04,
2IFC,25,0,25,0,8,-1,correct answer,0.334056699998,False,True,stimulusMIJA04_2IFC_2019_Jun_18_1414_801,stimulusMIJA04_2IFC_2019_Jun_18_1414_802,True,2019_Jun_18_1414,2IFC,3,MIJA04,
2IFC,26,0,26,0,11.5,-1,wrong answer,0.367255699995,True,False,stimulusMIJA04_2IFC_2019_Jun_18_1414_803,stimulusMIJA04_2IFC_2019_Jun_18_1414_804,True,2019_Jun_18_1414,2IFC,3,MIJA04,
2IFC,27,0,27,0,4.9,-1,correct answer,0.466905799985,True,False,stimulusMIJA04_2IFC_2019_Jun_18_1414_805,stimulusMIJA04_2IFC_2019_Jun_18_1414_806,True,2019_Jun_18_1414,2IFC,3,MIJA04,
2IFC,28,0,28,0,8,-1,correct answer,0.434146199957,False,True,stimulusMIJA04_2IFC_2019_Jun_18_1414_807,stimulusMIJA04_2IFC_2019_Jun_18_1414_808,True,2019_Jun_18_1414,2IFC,3,MIJA04,
2IFC,29,0,29,0,1.7,-1,correct answer,0.267250700039,False,True,stimulusMIJA04_2IFC_2019_Jun_18_1414_809,stimulusMIJA04_2IFC_2019_Jun_18_1414_810,True,2019_Jun_18_1414,2IFC,3,MIJA04,
2IFC,30,0,30,0,3.3,-1,correct answer,0.567687900038,False,True,stimulusMIJA04_2IFC_2019_Jun_18_1414_811,stimulusMIJA04_2IFC_2019_Jun_18_1414_812,True,2019_Jun_18_1414,2IFC,3,MIJA04,
2IFC,31,0,31,0,1,-1,correct answer,0.401298100012,False,True,stimulusMIJA04_2IFC_2019_Jun_18_1414_813,stimulusMIJA04_2IFC_2019_Jun_18_1414_814,True,2019_Jun_18_1414,2IFC,3,MIJA04,
2IFC,32,0,32,0,9.6,-1,correct answer,0.200346600031,True,False,stimulusMIJA04_2IFC_2019_Jun_18_1414_815,stimulusMIJA04_2IFC_2019_Jun_18_1414_816,True,2019_Jun_18_1414,2IFC,3,MIJA04,
2IFC,33,0,33,0,1.7,-1,wrong answer,0.36719379999,True,False,stimulusMIJA04_2IFC_2019_Jun_18_1414_817,stimulusMIJA04_2IFC_2019_Jun_18_1414_818,True,2019_Jun_18_1414,2IFC,3,MIJA04,
2IFC,34,0,34,0,1,-1,correct answer,0.434072599979,False,True,stimulusMIJA04_2IFC_2019_Jun_18_1414_819,stimulusMIJA04_2IFC_2019_Jun_18_1414_820,True,2019_Jun_18_1414,2IFC,3,MIJA04,
2IFC,35,0,35,0,1.7,-1,wrong answer,0.534614300006,True,False,stimulusMIJA04_2IFC_2019_Jun_18_1414_821,stimulusMIJA04_2IFC_2019_Jun_18_1414_822,True,2019_Jun_18_1414,2IFC,3,MIJA04,
2IFC,36,0,36,0,1.7,-1,wrong answer,0.234087000019,True,False,stimulusMIJA04_2IFC_2019_Jun_18_1414_823,stimulusMIJA04_2IFC_2019_Jun_18_1414_824,True,2019_Jun_18_1414,2IFC,3,MIJA04,
2IFC,37,0,37,0,11.5,-1,correct answer,0.267132000008,False,True,stimulusMIJA04_2IFC_2019_Jun_18_1414_825,stimulusMIJA04_2IFC_2019_Jun_18_1414_826,True,2019_Jun_18_1414,2IFC,3,MIJA04,
2IFC,38,0,38,0,11.5,-1,correct answer,0.467463199981,False,True,stimulusMIJA04_2IFC_2019_Jun_18_1414_827,stimulusMIJA04_2IFC_2019_Jun_18_1414_828,True,2019_Jun_18_1414,2IFC,3,MIJA04,
2IFC,39,0,39,0,8,-1,correct answer,0.233778499998,True,False,stimulusMIJA04_2IFC_2019_Jun_18_1414_829,stimulusMIJA04_2IFC_2019_Jun_18_1414_830,True,2019_Jun_18_1414,2IFC,3,MIJA04,
2IFC,40,0,40,0,8,-1,correct answer,0.133881099988,False,True,stimulusMIJA04_2IFC_2019_Jun_18_1414_831,stimulusMIJA04_2IFC_2019_Jun_18_1414_832,True,2019_Jun_18_1414,2IFC,3,MIJA04,
2IFC,41,0,41,0,3.3,-1,correct answer,0.533755599987,True,False,stimulusMIJA04_2IFC_2019_Jun_18_1414_833,stimulusMIJA04_2IFC_2019_Jun_18_1414_834,True,2019_Jun_18_1414,2IFC,3,MIJA04,
2IFC,42,0,42,0,9.6,-1,correct answer,0.26753240003,True,False,stimulusMIJA04_2IFC_2019_Jun_18_1414_835,stimulusMIJA04_2IFC_2019_Jun_18_1414_836,True,2019_Jun_18_1414,2IFC,3,MIJA04,
2IFC,43,0,43,0,4.9,-1,correct answer,0.400840200018,True,False,stimulusMIJA04_2IFC_2019_Jun_18_1414_837,stimulusMIJA04_2IFC_2019_Jun_18_1414_838,True,2019_Jun_18_1414,2IFC,3,MIJA04,
2IFC,44,0,44,0,11.5,-1,correct answer,0.233999199991,True,False,stimulusMIJA04_2IFC_2019_Jun_18_1414_839,stimulusMIJA04_2IFC_2019_Jun_18_1414_840,True,2019_Jun_18_1414,2IFC,3,MIJA04,
2IFC,45,0,45,0,4.9,-1,correct answer,0.233670499991,False,True,stimulusMIJA04_2IFC_2019_Jun_18_1414_841,stimulusMIJA04_2IFC_2019_Jun_18_1414_842,True,2019_Jun_18_1414,2IFC,3,MIJA04,
2IFC,46,0,46,0,1,-1,wrong answer,0.600622400001,False,True,stimulusMIJA04_2IFC_2019_Jun_18_1414_843,stimulusMIJA04_2IFC_2019_Jun_18_1414_844,True,2019_Jun_18_1414,2IFC,3,MIJA04,
2IFC,47,0,47,0,9.6,-1,correct answer,0.333668800013,False,True,stimulusMIJA04_2IFC_2019_Jun_18_1414_845,stimulusMIJA04_2IFC_2019_Jun_18_1414_846,True,2019_Jun_18_1414,2IFC,3,MIJA04,
2IFC,48,0,48,0,1,-1,wrong answer,0.534463600023,False,True,stimulusMIJA04_2IFC_2019_Jun_18_1414_847,stimulusMIJA04_2IFC_2019_Jun_18_1414_848,True,2019_Jun_18_1414,2IFC,3,MIJA04,
2IFC,49,0,49,0,3.3,-1,correct answer,0.4342894,False,True,stimulusMIJA04_2IFC_2019_Jun_18_1414_849,stimulusMIJA04_2IFC_2019_Jun_18_1414_850,True,2019_Jun_18_1414,2IFC,3,MIJA04,
2IFC,50,0,50,0,6.6,-1,correct answer,0.334032399987,False,True,stimulusMIJA04_2IFC_2019_Jun_18_1414_851,stimulusMIJA04_2IFC_2019_Jun_18_1414_852,True,2019_Jun_18_1414,2IFC,3,MIJA04,
2IFC,51,0,51,0,11.5,-1,correct answer,0.434000000008,False,True,stimulusMIJA04_2IFC_2019_Jun_18_1414_853,stimulusMIJA04_2IFC_2019_Jun_18_1414_854,True,2019_Jun_18_1414,2IFC,3,MIJA04,
2IFC,52,0,52,0,8,-1,correct answer,0.300519599987,True,False,stimulusMIJA04_2IFC_2019_Jun_18_1414_855,stimulusMIJA04_2IFC_2019_Jun_18_1414_856,True,2019_Jun_18_1414,2IFC,3,MIJA04,
2IFC,53,0,53,0,3.3,-1,correct answer,0.267385400017,False,True,stimulusMIJA04_2IFC_2019_Jun_18_1414_857,stimulusMIJA04_2IFC_2019_Jun_18_1414_858,True,2019_Jun_18_1414,2IFC,3,MIJA04,
2IFC,54,0,54,0,6.6,-1,correct answer,0.300733699987,False,True,stimulusMIJA04_2IFC_2019_Jun_18_1414_859,stimulusMIJA04_2IFC_2019_Jun_18_1414_860,True,2019_Jun_18_1414,2IFC,3,MIJA04,
2IFC,55,0,55,0,9.6,-1,correct answer,0.13421400002,False,True,stimulusMIJA04_2IFC_2019_Jun_18_1414_861,stimulusMIJA04_2IFC_2019_Jun_18_1414_862,True,2019_Jun_18_1414,2IFC,3,MIJA04,
2IFC,56,0,56,0,1.7,-1,wrong answer,0.365717299981,False,True,stimulusMIJA04_2IFC_2019_Jun_18_1414_863,stimulusMIJA04_2IFC_2019_Jun_18_1414_864,True,2019_Jun_18_1414,2IFC,3,MIJA04,
2IFC,57,0,57,0,1.7,-1,wrong answer,0.166828899994,True,False,stimulusMIJA04_2IFC_2019_Jun_18_1414_865,stimulusMIJA04_2IFC_2019_Jun_18_1414_866,True,2019_Jun_18_1414,2IFC,3,MIJA04,
2IFC,58,0,58,0,3.3,-1,wrong answer,0.50079000002,True,False,stimulusMIJA04_2IFC_2019_Jun_18_1414_867,stimulusMIJA04_2IFC_2019_Jun_18_1414_868,True,2019_Jun_18_1414,2IFC,3,MIJA04,
2IFC,59,0,59,0,9.6,-1,correct answer,0.134177300031,True,False,stimulusMIJA04_2IFC_2019_Jun_18_1414_869,stimulusMIJA04_2IFC_2019_Jun_18_1414_870,True,2019_Jun_18_1414,2IFC,3,MIJA04,
2IFC,60,0,60,0,1.7,-1,correct answer,0.166981200047,False,True,stimulusMIJA04_2IFC_2019_Jun_18_1414_871,stimulusMIJA04_2IFC_2019_Jun_18_1414_872,True,2019_Jun_18_1414,2IFC,3,MIJA04,
2IFC,61,0,61,0,3.3,-1,correct answer,0.26714120002,False,True,stimulusMIJA04_2IFC_2019_Jun_18_1414_873,stimulusMIJA04_2IFC_2019_Jun_18_1414_874,True,2019_Jun_18_1414,2IFC,3,MIJA04,
2IFC,62,0,62,0,9.6,-1,wrong answer,0.269231200044,False,True,stimulusMIJA04_2IFC_2019_Jun_18_1414_875,stimulusMIJA04_2IFC_2019_Jun_18_1414_876,True,2019_Jun_18_1414,2IFC,3,MIJA04,
2IFC,63,0,63,0,1,-1,correct answer,0.23384120001,False,True,stimulusMIJA04_2IFC_2019_Jun_18_1414_877,stimulusMIJA04_2IFC_2019_Jun_18_1414_878,True,2019_Jun_18_1414,2IFC,3,MIJA04,
2IFC,64,0,64,0,1.7,-1,wrong answer,0.300237700052,True,False,stimulusMIJA04_2IFC_2019_Jun_18_1414_879,stimulusMIJA04_2IFC_2019_Jun_18_1414_880,True,2019_Jun_18_1414,2IFC,3,MIJA04,
2IFC,65,0,65,0,1.7,-1,correct answer,0.133726499975,False,True,stimulusMIJA04_2IFC_2019_Jun_18_1414_881,stimulusMIJA04_2IFC_2019_Jun_18_1414_882,True,2019_Jun_18_1414,2IFC,3,MIJA04,
2IFC,66,0,66,0,9.6,-1,correct answer,0.26710399997,False,True,stimulusMIJA04_2IFC_2019_Jun_18_1414_883,stimulusMIJA04_2IFC_2019_Jun_18_1414_884,True,2019_Jun_18_1414,2IFC,3,MIJA04,
2IFC,67,0,67,0,9.6,-1,correct answer,0.267716799979,False,True,stimulusMIJA04_2IFC_2019_Jun_18_1414_885,stimulusMIJA04_2IFC_2019_Jun_18_1414_886,True,2019_Jun_18_1414,2IFC,3,MIJA04,
2IFC,68,0,68,0,11.5,-1,correct answer,0.167192600027,False,True,stimulusMIJA04_2IFC_2019_Jun_18_1414_887,stimulusMIJA04_2IFC_2019_Jun_18_1414_888,True,2019_Jun_18_1414,2IFC,3,MIJA04,
2IFC,69,0,69,0,6.6,-1,correct answer,0.400569499994,False,True,stimulusMIJA04_2IFC_2019_Jun_18_1414_889,stimulusMIJA04_2IFC_2019_Jun_18_1414_890,True,2019_Jun_18_1414,2IFC,3,MIJA04,
2IFC,70,0,70,0,1.7,-1,wrong answer,0.301256900013,True,False,stimulusMIJA04_2IFC_2019_Jun_18_1414_891,stimulusMIJA04_2IFC_2019_Jun_18_1414_892,True,2019_Jun_18_1414,2IFC,3,MIJA04,
2IFC,71,0,71,0,6.6,-1,correct answer,0.167027999996,True,False,stimulusMIJA04_2IFC_2019_Jun_18_1414_893,stimulusMIJA04_2IFC_2019_Jun_18_1414_894,True,2019_Jun_18_1414,2IFC,3,MIJA04,
2IFC,72,0,72,0,9.6,-1,correct answer,0.331936300034,False,True,stimulusMIJA04_2IFC_2019_Jun_18_1414_895,stimulusMIJA04_2IFC_2019_Jun_18_1414_896,True,2019_Jun_18_1414,2IFC,3,MIJA04,
2IFC,73,0,73,0,3.3,-1,wrong answer,0.30066550005,True,False,stimulusMIJA04_2IFC_2019_Jun_18_1414_897,stimulusMIJA04_2IFC_2019_Jun_18_1414_898,True,2019_Jun_18_1414,2IFC,3,MIJA04,
2IFC,74,0,74,0,4.9,-1,correct answer,0.333331400005,True,False,stimulusMIJA04_2IFC_2019_Jun_18_1414_899,stimulusMIJA04_2IFC_2019_Jun_18_1414_900,True,2019_Jun_18_1414,2IFC,3,MIJA04,
2IFC,0,0,0,0,1,-1,wrong answer,0.400888599979,True,False,stimulusMIJA04_2IFC_2019_Jun_18_1414_901,stimulusMIJA04_2IFC_2019_Jun_18_1414_902,True,2019_Jun_18_1414,2IFC,3,MIJA04,
2IFC,1,0,1,0,11.5,-1,correct answer,0.0671555000008,True,False,stimulusMIJA04_2IFC_2019_Jun_18_1414_903,stimulusMIJA04_2IFC_2019_Jun_18_1414_904,True,2019_Jun_18_1414,2IFC,3,MIJA04,
2IFC,2,0,2,0,1,-1,wrong answer,0.267219399975,True,False,stimulusMIJA04_2IFC_2019_Jun_18_1414_905,stimulusMIJA04_2IFC_2019_Jun_18_1414_906,True,2019_Jun_18_1414,2IFC,3,MIJA04,
2IFC,3,0,3,0,8,-1,correct answer,0.233494499989,False,True,stimulusMIJA04_2IFC_2019_Jun_18_1414_907,stimulusMIJA04_2IFC_2019_Jun_18_1414_908,True,2019_Jun_18_1414,2IFC,3,MIJA04,
2IFC,4,0,4,0,3.3,-1,correct answer,0.301175700035,False,True,stimulusMIJA04_2IFC_2019_Jun_18_1414_909,stimulusMIJA04_2IFC_2019_Jun_18_1414_910,True,2019_Jun_18_1414,2IFC,3,MIJA04,
2IFC,5,0,5,0,1,-1,correct answer,0.401191300014,True,False,stimulusMIJA04_2IFC_2019_Jun_18_1414_911,stimulusMIJA04_2IFC_2019_Jun_18_1414_912,True,2019_Jun_18_1414,2IFC,3,MIJA04,
2IFC,6,0,6,0,1,-1,wrong answer,0.434465500002,False,True,stimulusMIJA04_2IFC_2019_Jun_18_1414_913,stimulusMIJA04_2IFC_2019_Jun_18_1414_914,True,2019_Jun_18_1414,2IFC,3,MIJA04,
2IFC,7,0,7,0,8,-1,correct answer,0.501171800017,False,True,stimulusMIJA04_2IFC_2019_Jun_18_1414_915,stimulusMIJA04_2IFC_2019_Jun_18_1414_916,True,2019_Jun_18_1414,2IFC,3,MIJA04,
2IFC,8,0,8,0,6.6,-1,correct answer,0.500723399979,True,False,stimulusMIJA04_2IFC_2019_Jun_18_1414_917,stimulusMIJA04_2IFC_2019_Jun_18_1414_918,True,2019_Jun_18_1414,2IFC,3,MIJA04,
2IFC,9,0,9,0,11.5,-1,correct answer,0.100191299978,True,False,stimulusMIJA04_2IFC_2019_Jun_18_1414_919,stimulusMIJA04_2IFC_2019_Jun_18_1414_920,True,2019_Jun_18_1414,2IFC,3,MIJA04,
2IFC,10,0,10,0,6.6,-1,correct answer,0.267787600053,True,False,stimulusMIJA04_2IFC_2019_Jun_18_1414_921,stimulusMIJA04_2IFC_2019_Jun_18_1414_922,True,2019_Jun_18_1414,2IFC,3,MIJA04,
2IFC,11,0,11,0,6.6,-1,correct answer,0.334085799986,True,False,stimulusMIJA04_2IFC_2019_Jun_18_1414_923,stimulusMIJA04_2IFC_2019_Jun_18_1414_924,True,2019_Jun_18_1414,2IFC,3,MIJA04,
2IFC,12,0,12,0,1,-1,correct answer,0.23394039995,False,True,stimulusMIJA04_2IFC_2019_Jun_18_1414_925,stimulusMIJA04_2IFC_2019_Jun_18_1414_926,True,2019_Jun_18_1414,2IFC,3,MIJA04,
2IFC,13,0,13,0,3.3,-1,correct answer,0.100667899998,False,True,stimulusMIJA04_2IFC_2019_Jun_18_1414_927,stimulusMIJA04_2IFC_2019_Jun_18_1414_928,True,2019_Jun_18_1414,2IFC,3,MIJA04,
2IFC,14,0,14,0,9.6,-1,correct answer,0.467300100019,False,True,stimulusMIJA04_2IFC_2019_Jun_18_1414_929,stimulusMIJA04_2IFC_2019_Jun_18_1414_930,True,2019_Jun_18_1414,2IFC,3,MIJA04,
2IFC,15,0,15,0,8,-1,correct answer,0.466722699988,False,True,stimulusMIJA04_2IFC_2019_Jun_18_1414_931,stimulusMIJA04_2IFC_2019_Jun_18_1414_932,True,2019_Jun_18_1414,2IFC,3,MIJA04,
2IFC,16,0,16,0,9.6,-1,correct answer,0.334741599974,False,True,stimulusMIJA04_2IFC_2019_Jun_18_1414_933,stimulusMIJA04_2IFC_2019_Jun_18_1414_934,True,2019_Jun_18_1414,2IFC,3,MIJA04,
2IFC,17,0,17,0,11.5,-1,correct answer,0.300683199952,True,False,stimulusMIJA04_2IFC_2019_Jun_18_1414_935,stimulusMIJA04_2IFC_2019_Jun_18_1414_936,True,2019_Jun_18_1414,2IFC,3,MIJA04,
2IFC,18,0,18,0,4.9,-1,correct answer,0.302046499972,False,True,stimulusMIJA04_2IFC_2019_Jun_18_1414_937,stimulusMIJA04_2IFC_2019_Jun_18_1414_938,True,2019_Jun_18_1414,2IFC,3,MIJA04,
2IFC,19,0,19,0,11.5,-1,correct answer,0.231125999999,True,False,stimulusMIJA04_2IFC_2019_Jun_18_1414_939,stimulusMIJA04_2IFC_2019_Jun_18_1414_940,True,2019_Jun_18_1414,2IFC,3,MIJA04,
2IFC,20,0,20,0,4.9,-1,wrong answer,0.36818390002,True,False,stimulusMIJA04_2IFC_2019_Jun_18_1414_941,stimulusMIJA04_2IFC_2019_Jun_18_1414_942,True,2019_Jun_18_1414,2IFC,3,MIJA04,
2IFC,21,0,21,0,4.9,-1,correct answer,0.434210999985,True,False,stimulusMIJA04_2IFC_2019_Jun_18_1414_943,stimulusMIJA04_2IFC_2019_Jun_18_1414_944,True,2019_Jun_18_1414,2IFC,3,MIJA04,
2IFC,22,0,22,0,1.7,-1,correct answer,0.4007232,False,True,stimulusMIJA04_2IFC_2019_Jun_18_1414_945,stimulusMIJA04_2IFC_2019_Jun_18_1414_946,True,2019_Jun_18_1414,2IFC,3,MIJA04,
2IFC,23,0,23,0,9.6,-1,correct answer,0.133904999995,True,False,stimulusMIJA04_2IFC_2019_Jun_18_1414_947,stimulusMIJA04_2IFC_2019_Jun_18_1414_948,True,2019_Jun_18_1414,2IFC,3,MIJA04,
2IFC,24,0,24,0,1.7,-1,correct answer,0.400768799998,False,True,stimulusMIJA04_2IFC_2019_Jun_18_1414_949,stimulusMIJA04_2IFC_2019_Jun_18_1414_950,True,2019_Jun_18_1414,2IFC,3,MIJA04,
2IFC,25,0,25,0,3.3,-1,wrong answer,0.367379100004,True,False,stimulusMIJA04_2IFC_2019_Jun_18_1414_951,stimulusMIJA04_2IFC_2019_Jun_18_1414_952,True,2019_Jun_18_1414,2IFC,3,MIJA04,
2IFC,26,0,26,0,6.6,-1,correct answer,0.167067900009,False,True,stimulusMIJA04_2IFC_2019_Jun_18_1414_953,stimulusMIJA04_2IFC_2019_Jun_18_1414_954,True,2019_Jun_18_1414,2IFC,3,MIJA04,
2IFC,27,0,27,0,9.6,-1,correct answer,0.234061299998,True,False,stimulusMIJA04_2IFC_2019_Jun_18_1414_955,stimulusMIJA04_2IFC_2019_Jun_18_1414_956,True,2019_Jun_18_1414,2IFC,3,MIJA04,
2IFC,28,0,28,0,4.9,-1,correct answer,0.133163199993,True,False,stimulusMIJA04_2IFC_2019_Jun_18_1414_957,stimulusMIJA04_2IFC_2019_Jun_18_1414_958,True,2019_Jun_18_1414,2IFC,3,MIJA04,
2IFC,29,0,29,0,6.6,-1,correct answer,0.265245800023,False,True,stimulusMIJA04_2IFC_2019_Jun_18_1414_959,stimulusMIJA04_2IFC_2019_Jun_18_1414_960,True,2019_Jun_18_1414,2IFC,3,MIJA04,
2IFC,30,0,30,0,1.7,-1,wrong answer,0.267480000039,True,False,stimulusMIJA04_2IFC_2019_Jun_18_1414_961,stimulusMIJA04_2IFC_2019_Jun_18_1414_962,True,2019_Jun_18_1414,2IFC,3,MIJA04,
2IFC,31,0,31,0,3.3,-1,correct answer,0.333725100034,True,False,stimulusMIJA04_2IFC_2019_Jun_18_1414_963,stimulusMIJA04_2IFC_2019_Jun_18_1414_964,True,2019_Jun_18_1414,2IFC,3,MIJA04,
2IFC,32,0,32,0,1.7,-1,correct answer,0.200534100004,False,True,stimulusMIJA04_2IFC_2019_Jun_18_1414_965,stimulusMIJA04_2IFC_2019_Jun_18_1414_966,True,2019_Jun_18_1414,2IFC,3,MIJA04,
2IFC,33,0,33,0,3.3,-1,correct answer,0.466719799966,True,False,stimulusMIJA04_2IFC_2019_Jun_18_1414_967,stimulusMIJA04_2IFC_2019_Jun_18_1414_968,True,2019_Jun_18_1414,2IFC,3,MIJA04,
2IFC,34,0,34,0,9.6,-1,correct answer,0.0658501000144,False,True,stimulusMIJA04_2IFC_2019_Jun_18_1414_969,stimulusMIJA04_2IFC_2019_Jun_18_1414_970,True,2019_Jun_18_1414,2IFC,3,MIJA04,
2IFC,35,0,35,0,3.3,-1,correct answer,0.233748700004,False,True,stimulusMIJA04_2IFC_2019_Jun_18_1414_971,stimulusMIJA04_2IFC_2019_Jun_18_1414_972,True,2019_Jun_18_1414,2IFC,3,MIJA04,
2IFC,36,0,36,0,1.7,-1,wrong answer,0.267318999977,True,False,stimulusMIJA04_2IFC_2019_Jun_18_1414_973,stimulusMIJA04_2IFC_2019_Jun_18_1414_974,True,2019_Jun_18_1414,2IFC,3,MIJA04,
2IFC,37,0,37,0,8,-1,correct answer,0.366758999997,False,True,stimulusMIJA04_2IFC_2019_Jun_18_1414_975,stimulusMIJA04_2IFC_2019_Jun_18_1414_976,True,2019_Jun_18_1414,2IFC,3,MIJA04,
2IFC,38,0,38,0,8,-1,correct answer,0.366703200038,True,False,stimulusMIJA04_2IFC_2019_Jun_18_1414_977,stimulusMIJA04_2IFC_2019_Jun_18_1414_978,True,2019_Jun_18_1414,2IFC,3,MIJA04,
2IFC,39,0,39,0,8,-1,wrong answer,0.400771599961,False,True,stimulusMIJA04_2IFC_2019_Jun_18_1414_979,stimulusMIJA04_2IFC_2019_Jun_18_1414_980,True,2019_Jun_18_1414,2IFC,3,MIJA04,
2IFC,40,0,40,0,8,-1,correct answer,0.367254499986,False,True,stimulusMIJA04_2IFC_2019_Jun_18_1414_981,stimulusMIJA04_2IFC_2019_Jun_18_1414_982,True,2019_Jun_18_1414,2IFC,3,MIJA04,
2IFC,41,0,41,0,11.5,-1,correct answer,0.166861400008,True,False,stimulusMIJA04_2IFC_2019_Jun_18_1414_983,stimulusMIJA04_2IFC_2019_Jun_18_1414_984,True,2019_Jun_18_1414,2IFC,3,MIJA04,
2IFC,42,0,42,0,1.7,-1,correct answer,0.233957300021,False,True,stimulusMIJA04_2IFC_2019_Jun_18_1414_985,stimulusMIJA04_2IFC_2019_Jun_18_1414_986,True,2019_Jun_18_1414,2IFC,3,MIJA04,
2IFC,43,0,43,0,3.3,-1,correct answer,0.467453200021,True,False,stimulusMIJA04_2IFC_2019_Jun_18_1414_987,stimulusMIJA04_2IFC_2019_Jun_18_1414_988,True,2019_Jun_18_1414,2IFC,3,MIJA04,
2IFC,44,0,44,0,9.6,-1,correct answer,0.300058300025,True,False,stimulusMIJA04_2IFC_2019_Jun_18_1414_989,stimulusMIJA04_2IFC_2019_Jun_18_1414_990,True,2019_Jun_18_1414,2IFC,3,MIJA04,
2IFC,45,0,45,0,1.7,-1,wrong answer,0.400753800001,False,True,stimulusMIJA04_2IFC_2019_Jun_18_1414_991,stimulusMIJA04_2IFC_2019_Jun_18_1414_992,True,2019_Jun_18_1414,2IFC,3,MIJA04,
2IFC,46,0,46,0,11.5,-1,correct answer,0.233744200028,True,False,stimulusMIJA04_2IFC_2019_Jun_18_1414_993,stimulusMIJA04_2IFC_2019_Jun_18_1414_994,True,2019_Jun_18_1414,2IFC,3,MIJA04,
2IFC,47,0,47,0,1.7,-1,wrong answer,0.26727120002,True,False,stimulusMIJA04_2IFC_2019_Jun_18_1414_995,stimulusMIJA04_2IFC_2019_Jun_18_1414_996,True,2019_Jun_18_1414,2IFC,3,MIJA04,
2IFC,48,0,48,0,1.7,-1,wrong answer,0.467143499991,True,False,stimulusMIJA04_2IFC_2019_Jun_18_1414_997,stimulusMIJA04_2IFC_2019_Jun_18_1414_998,True,2019_Jun_18_1414,2IFC,3,MIJA04,
2IFC,49,0,49,0,4.9,-1,correct answer,0.167164999992,True,False,stimulusMIJA04_2IFC_2019_Jun_18_1414_999,stimulusMIJA04_2IFC_2019_Jun_18_1414_1000,True,2019_Jun_18_1414,2IFC,3,MIJA04,
2IFC,50,0,50,0,1.7,-1,correct answer,0.300476200006,False,True,stimulusMIJA04_2IFC_2019_Jun_18_1414_1001,stimulusMIJA04_2IFC_2019_Jun_18_1414_1002,True,2019_Jun_18_1414,2IFC,3,MIJA04,
2IFC,51,0,51,0,6.6,-1,correct answer,0.133758499986,False,True,stimulusMIJA04_2IFC_2019_Jun_18_1414_1003,stimulusMIJA04_2IFC_2019_Jun_18_1414_1004,True,2019_Jun_18_1414,2IFC,3,MIJA04,
2IFC,52,0,52,0,1.7,-1,correct answer,0.367089700012,True,False,stimulusMIJA04_2IFC_2019_Jun_18_1414_1005,stimulusMIJA04_2IFC_2019_Jun_18_1414_1006,True,2019_Jun_18_1414,2IFC,3,MIJA04,
2IFC,53,0,53,0,1,-1,correct answer,0.267434599984,False,True,stimulusMIJA04_2IFC_2019_Jun_18_1414_1007,stimulusMIJA04_2IFC_2019_Jun_18_1414_1008,True,2019_Jun_18_1414,2IFC,3,MIJA04,
2IFC,54,0,54,0,1,-1,correct answer,0.333883500018,False,True,stimulusMIJA04_2IFC_2019_Jun_18_1414_1009,stimulusMIJA04_2IFC_2019_Jun_18_1414_1010,True,2019_Jun_18_1414,2IFC,3,MIJA04,
2IFC,55,0,55,0,1.7,-1,correct answer,0.2676202,True,False,stimulusMIJA04_2IFC_2019_Jun_18_1414_1011,stimulusMIJA04_2IFC_2019_Jun_18_1414_1012,True,2019_Jun_18_1414,2IFC,3,MIJA04,
2IFC,56,0,56,0,9.6,-1,correct answer,0.267240100016,True,False,stimulusMIJA04_2IFC_2019_Jun_18_1414_1013,stimulusMIJA04_2IFC_2019_Jun_18_1414_1014,True,2019_Jun_18_1414,2IFC,3,MIJA04,
2IFC,57,0,57,0,6.6,-1,correct answer,0.33419980004,True,False,stimulusMIJA04_2IFC_2019_Jun_18_1414_1015,stimulusMIJA04_2IFC_2019_Jun_18_1414_1016,True,2019_Jun_18_1414,2IFC,3,MIJA04,
2IFC,58,0,58,0,11.5,-1,correct answer,0.299929100031,True,False,stimulusMIJA04_2IFC_2019_Jun_18_1414_1017,stimulusMIJA04_2IFC_2019_Jun_18_1414_1018,True,2019_Jun_18_1414,2IFC,3,MIJA04,
2IFC,59,0,59,0,8,-1,correct answer,0.133489399974,False,True,stimulusMIJA04_2IFC_2019_Jun_18_1414_1019,stimulusMIJA04_2IFC_2019_Jun_18_1414_1020,True,2019_Jun_18_1414,2IFC,3,MIJA04,
2IFC,60,0,60,0,11.5,-1,correct answer,0.166478300001,True,False,stimulusMIJA04_2IFC_2019_Jun_18_1414_1021,stimulusMIJA04_2IFC_2019_Jun_18_1414_1022,True,2019_Jun_18_1414,2IFC,3,MIJA04,
2IFC,61,0,61,0,1.7,-1,correct answer,0.199351299962,False,True,stimulusMIJA04_2IFC_2019_Jun_18_1414_1023,stimulusMIJA04_2IFC_2019_Jun_18_1414_1024,True,2019_Jun_18_1414,2IFC,3,MIJA04,
2IFC,62,0,62,0,1.7,-1,correct answer,0.166278399993,False,True,stimulusMIJA04_2IFC_2019_Jun_18_1414_1025,stimulusMIJA04_2IFC_2019_Jun_18_1414_1026,True,2019_Jun_18_1414,2IFC,3,MIJA04,
2IFC,63,0,63,0,1.7,-1,correct answer,0.4009143,False,True,stimulusMIJA04_2IFC_2019_Jun_18_1414_1027,stimulusMIJA04_2IFC_2019_Jun_18_1414_1028,True,2019_Jun_18_1414,2IFC,3,MIJA04,
2IFC,64,0,64,0,8,-1,correct answer,0.333976399968,False,True,stimulusMIJA04_2IFC_2019_Jun_18_1414_1029,stimulusMIJA04_2IFC_2019_Jun_18_1414_1030,True,2019_Jun_18_1414,2IFC,3,MIJA04,
2IFC,65,0,65,0,3.3,-1,correct answer,0.267390099994,True,False,stimulusMIJA04_2IFC_2019_Jun_18_1414_1031,stimulusMIJA04_2IFC_2019_Jun_18_1414_1032,True,2019_Jun_18_1414,2IFC,3,MIJA04,
2IFC,66,0,66,0,6.6,-1,correct answer,0.267399400007,True,False,stimulusMIJA04_2IFC_2019_Jun_18_1414_1033,stimulusMIJA04_2IFC_2019_Jun_18_1414_1034,True,2019_Jun_18_1414,2IFC,3,MIJA04,
2IFC,67,0,67,0,1,-1,wrong answer,0.233715399983,True,False,stimulusMIJA04_2IFC_2019_Jun_18_1414_1035,stimulusMIJA04_2IFC_2019_Jun_18_1414_1036,True,2019_Jun_18_1414,2IFC,3,MIJA04,
2IFC,68,0,68,0,1,-1,correct answer,0.133801099961,False,True,stimulusMIJA04_2IFC_2019_Jun_18_1414_1037,stimulusMIJA04_2IFC_2019_Jun_18_1414_1038,True,2019_Jun_18_1414,2IFC,3,MIJA04,
2IFC,69,0,69,0,4.9,-1,correct answer,0.300008999999,True,False,stimulusMIJA04_2IFC_2019_Jun_18_1414_1039,stimulusMIJA04_2IFC_2019_Jun_18_1414_1040,True,2019_Jun_18_1414,2IFC,3,MIJA04,
2IFC,70,0,70,0,9.6,-1,correct answer,0.30042590003,True,False,stimulusMIJA04_2IFC_2019_Jun_18_1414_1041,stimulusMIJA04_2IFC_2019_Jun_18_1414_1042,True,2019_Jun_18_1414,2IFC,3,MIJA04,
2IFC,71,0,71,0,9.6,-1,correct answer,0.167309500044,False,True,stimulusMIJA04_2IFC_2019_Jun_18_1414_1043,stimulusMIJA04_2IFC_2019_Jun_18_1414_1044,True,2019_Jun_18_1414,2IFC,3,MIJA04,
2IFC,72,0,72,0,1.7,-1,correct answer,0.33342380001,False,True,stimulusMIJA04_2IFC_2019_Jun_18_1414_1045,stimulusMIJA04_2IFC_2019_Jun_18_1414_1046,True,2019_Jun_18_1414,2IFC,3,MIJA04,
2IFC,73,0,73,0,8,-1,correct answer,0.334130000032,False,True,stimulusMIJA04_2IFC_2019_Jun_18_1414_1047,stimulusMIJA04_2IFC_2019_Jun_18_1414_1048,True,2019_Jun_18_1414,2IFC,3,MIJA04,
2IFC,74,0,74,0,11.5,-1,correct answer,0.300492599956,True,False,stimulusMIJA04_2IFC_2019_Jun_18_1414_1049,stimulusMIJA04_2IFC_2019_Jun_18_1414_1050,True,2019_Jun_18_1414,2IFC,3,MIJA04,
2IFC,0,0,0,0,1,-1,wrong answer,0.266638400033,True,False,stimulusMIJA04_2IFC_2019_Jun_18_1414_1051,stimulusMIJA04_2IFC_2019_Jun_18_1414_1052,True,2019_Jun_18_1414,2IFC,3,MIJA04,
2IFC,1,0,1,0,1,-1,correct answer,0.233400600031,False,True,stimulusMIJA04_2IFC_2019_Jun_18_1414_1053,stimulusMIJA04_2IFC_2019_Jun_18_1414_1054,True,2019_Jun_18_1414,2IFC,3,MIJA04,
2IFC,2,0,2,0,6.6,-1,correct answer,0.0337544999784,False,True,stimulusMIJA04_2IFC_2019_Jun_18_1414_1055,stimulusMIJA04_2IFC_2019_Jun_18_1414_1056,True,2019_Jun_18_1414,2IFC,3,MIJA04,
2IFC,3,0,3,0,6.6,-1,wrong answer,0.10035969998,False,True,stimulusMIJA04_2IFC_2019_Jun_18_1414_1057,stimulusMIJA04_2IFC_2019_Jun_18_1414_1058,True,2019_Jun_18_1414,2IFC,3,MIJA04,
2IFC,4,0,4,0,3.3,-1,wrong answer,0.233760600036,True,False,stimulusMIJA04_2IFC_2019_Jun_18_1414_1059,stimulusMIJA04_2IFC_2019_Jun_18_1414_1060,True,2019_Jun_18_1414,2IFC,3,MIJA04,
2IFC,5,0,5,0,1.7,-1,correct answer,0.233807599987,False,True,stimulusMIJA04_2IFC_2019_Jun_18_1414_1061,stimulusMIJA04_2IFC_2019_Jun_18_1414_1062,True,2019_Jun_18_1414,2IFC,3,MIJA04,
2IFC,6,0,6,0,4.9,-1,correct answer,0.300607500016,False,True,stimulusMIJA04_2IFC_2019_Jun_18_1414_1063,stimulusMIJA04_2IFC_2019_Jun_18_1414_1064,True,2019_Jun_18_1414,2IFC,3,MIJA04,
2IFC,7,0,7,0,1,-1,wrong answer,0.297584899992,True,False,stimulusMIJA04_2IFC_2019_Jun_18_1414_1065,stimulusMIJA04_2IFC_2019_Jun_18_1414_1066,True,2019_Jun_18_1414,2IFC,3,MIJA04,
2IFC,8,0,8,0,11.5,-1,wrong answer,0.100364999962,False,True,stimulusMIJA04_2IFC_2019_Jun_18_1414_1067,stimulusMIJA04_2IFC_2019_Jun_18_1414_1068,True,2019_Jun_18_1414,2IFC,3,MIJA04,
2IFC,9,0,9,0,1,-1,correct answer,0.534076400043,True,False,stimulusMIJA04_2IFC_2019_Jun_18_1414_1069,stimulusMIJA04_2IFC_2019_Jun_18_1414_1070,True,2019_Jun_18_1414,2IFC,3,MIJA04,
2IFC,10,0,10,0,1,-1,correct answer,0.301018600003,False,True,stimulusMIJA04_2IFC_2019_Jun_18_1414_1071,stimulusMIJA04_2IFC_2019_Jun_18_1414_1072,True,2019_Jun_18_1414,2IFC,3,MIJA04,
2IFC,11,0,11,0,6.6,-1,correct answer,0.233867100033,True,False,stimulusMIJA04_2IFC_2019_Jun_18_1414_1073,stimulusMIJA04_2IFC_2019_Jun_18_1414_1074,True,2019_Jun_18_1414,2IFC,3,MIJA04,
2IFC,12,0,12,0,6.6,-1,wrong answer,0.23411010002,True,False,stimulusMIJA04_2IFC_2019_Jun_18_1414_1075,stimulusMIJA04_2IFC_2019_Jun_18_1414_1076,True,2019_Jun_18_1414,2IFC,3,MIJA04,
2IFC,13,0,13,0,1,-1,wrong answer,0.232980599976,True,False,stimulusMIJA04_2IFC_2019_Jun_18_1414_1077,stimulusMIJA04_2IFC_2019_Jun_18_1414_1078,True,2019_Jun_18_1414,2IFC,3,MIJA04,
2IFC,14,0,14,0,11.5,-1,correct answer,0.0345635000267,True,False,stimulusMIJA04_2IFC_2019_Jun_18_1414_1079,stimulusMIJA04_2IFC_2019_Jun_18_1414_1080,True,2019_Jun_18_1414,2IFC,3,MIJA04,
2IFC,15,0,15,0,6.6,-1,correct answer,0.267853099969,False,True,stimulusMIJA04_2IFC_2019_Jun_18_1414_1081,stimulusMIJA04_2IFC_2019_Jun_18_1414_1082,True,2019_Jun_18_1414,2IFC,3,MIJA04,
2IFC,16,0,16,0,3.3,-1,correct answer,0.334067499964,True,False,stimulusMIJA04_2IFC_2019_Jun_18_1414_1083,stimulusMIJA04_2IFC_2019_Jun_18_1414_1084,True,2019_Jun_18_1414,2IFC,3,MIJA04,
2IFC,17,0,17,0,8,-1,correct answer,0.134367000021,True,False,stimulusMIJA04_2IFC_2019_Jun_18_1414_1085,stimulusMIJA04_2IFC_2019_Jun_18_1414_1086,True,2019_Jun_18_1414,2IFC,3,MIJA04,
2IFC,18,0,18,0,1.7,-1,correct answer,0.267130099994,False,True,stimulusMIJA04_2IFC_2019_Jun_18_1414_1087,stimulusMIJA04_2IFC_2019_Jun_18_1414_1088,True,2019_Jun_18_1414,2IFC,3,MIJA04,
2IFC,19,0,19,0,11.5,-1,correct answer,0.334303100011,False,True,stimulusMIJA04_2IFC_2019_Jun_18_1414_1089,stimulusMIJA04_2IFC_2019_Jun_18_1414_1090,True,2019_Jun_18_1414,2IFC,3,MIJA04,
2IFC,20,0,20,0,8,-1,correct answer,0.367394300003,True,False,stimulusMIJA04_2IFC_2019_Jun_18_1414_1091,stimulusMIJA04_2IFC_2019_Jun_18_1414_1092,True,2019_Jun_18_1414,2IFC,3,MIJA04,
2IFC,21,0,21,0,8,-1,correct answer,0.301019100007,False,True,stimulusMIJA04_2IFC_2019_Jun_18_1414_1093,stimulusMIJA04_2IFC_2019_Jun_18_1414_1094,True,2019_Jun_18_1414,2IFC,3,MIJA04,
2IFC,22,0,22,0,4.9,-1,correct answer,0.266962299997,False,True,stimulusMIJA04_2IFC_2019_Jun_18_1414_1095,stimulusMIJA04_2IFC_2019_Jun_18_1414_1096,True,2019_Jun_18_1414,2IFC,3,MIJA04,
2IFC,23,0,23,0,3.3,-1,correct answer,0.30168829998,False,True,stimulusMIJA04_2IFC_2019_Jun_18_1414_1097,stimulusMIJA04_2IFC_2019_Jun_18_1414_1098,True,2019_Jun_18_1414,2IFC,3,MIJA04,
2IFC,24,0,24,0,8,-1,wrong answer,0.367400599993,False,True,stimulusMIJA04_2IFC_2019_Jun_18_1414_1099,stimulusMIJA04_2IFC_2019_Jun_18_1414_1100,True,2019_Jun_18_1414,2IFC,3,MIJA04,
2IFC,25,0,25,0,1,-1,wrong answer,0.233783399977,True,False,stimulusMIJA04_2IFC_2019_Jun_18_1414_1101,stimulusMIJA04_2IFC_2019_Jun_18_1414_1102,True,2019_Jun_18_1414,2IFC,3,MIJA04,
