Task,trials.thisRepN,trials.thisTrialN,trials.thisN,trials.thisIndex,signal_intensity,constant Value,response,time_response,signal_on_stimuluspos1,signal_on_stimuluspos2,stimulus_name_pos1,stimulus_name_pos2,random_intensity,date,expName,session,participant,
Yes-No Task,0,0,0,0,11.5,-1,No Answer,-1,False,-1,stimulus_MIJA04_Yes-No Task_2019_Jun_17_1252_1,-1,False,2019_Jun_17_1252,Yes-No Task,2,MIJA04,
Yes-No Task,1,0,1,0,11.5,-1,Hit,0.469574000017,True,-1,stimulus_MIJA04_Yes-No Task_2019_Jun_17_1252_2,-1,False,2019_Jun_17_1252,Yes-No Task,2,MIJA04,
Yes-No Task,2,0,2,0,11.5,-1,Correct Rejection,0.700330300024,False,-1,stimulus_MIJA04_Yes-No Task_2019_Jun_17_1252_3,-1,False,2019_Jun_17_1252,Yes-No Task,2,MIJA04,
Yes-No Task,3,0,3,0,11.5,-1,Hit,0.600652600027,True,-1,stimulus_MIJA04_Yes-No Task_2019_Jun_17_1252_4,-1,False,2019_Jun_17_1252,Yes-No Task,2,MIJA04,
Yes-No Task,4,0,4,0,11.5,-1,Correct Rejection,0.466552500002,False,-1,stimulus_MIJA04_Yes-No Task_2019_Jun_17_1252_5,-1,False,2019_Jun_17_1252,Yes-No Task,2,MIJA04,
Yes-No Task,5,0,5,0,11.5,-1,Hit,0.400559700007,True,-1,stimulus_MIJA04_Yes-No Task_2019_Jun_17_1252_6,-1,False,2019_Jun_17_1252,Yes-No Task,2,MIJA04,
Yes-No Task,6,0,6,0,11.5,-1,Hit,0.428874100005,True,-1,stimulus_MIJA04_Yes-No Task_2019_Jun_17_1252_7,-1,False,2019_Jun_17_1252,Yes-No Task,2,MIJA04,
Yes-No Task,7,0,7,0,11.5,-1,Correct Rejection,0.5010014,False,-1,stimulus_MIJA04_Yes-No Task_2019_Jun_17_1252_8,-1,False,2019_Jun_17_1252,Yes-No Task,2,MIJA04,
Yes-No Task,8,0,8,0,11.5,-1,Hit,0.363680999988,True,-1,stimulus_MIJA04_Yes-No Task_2019_Jun_17_1252_9,-1,False,2019_Jun_17_1252,Yes-No Task,2,MIJA04,
Yes-No Task,9,0,9,0,11.5,-1,Hit,0.400617599982,True,-1,stimulus_MIJA04_Yes-No Task_2019_Jun_17_1252_10,-1,False,2019_Jun_17_1252,Yes-No Task,2,MIJA04,
Yes-No Task,10,0,10,0,11.5,-1,Correct Rejection,0.502251400001,False,-1,stimulus_MIJA04_Yes-No Task_2019_Jun_17_1252_11,-1,False,2019_Jun_17_1252,Yes-No Task,2,MIJA04,
Yes-No Task,11,0,11,0,11.5,-1,Hit,0.401804699999,True,-1,stimulus_MIJA04_Yes-No Task_2019_Jun_17_1252_12,-1,False,2019_Jun_17_1252,Yes-No Task,2,MIJA04,
Yes-No Task,12,0,12,0,11.5,-1,Correct Rejection,0.467165599985,False,-1,stimulus_MIJA04_Yes-No Task_2019_Jun_17_1252_13,-1,False,2019_Jun_17_1252,Yes-No Task,2,MIJA04,
Yes-No Task,13,0,13,0,11.5,-1,Correct Rejection,0.500755099987,False,-1,stimulus_MIJA04_Yes-No Task_2019_Jun_17_1252_14,-1,False,2019_Jun_17_1252,Yes-No Task,2,MIJA04,
Yes-No Task,14,0,14,0,11.5,-1,Hit,0.368595000007,True,-1,stimulus_MIJA04_Yes-No Task_2019_Jun_17_1252_15,-1,False,2019_Jun_17_1252,Yes-No Task,2,MIJA04,
Yes-No Task,15,0,15,0,11.5,-1,Hit,0.399707500008,True,-1,stimulus_MIJA04_Yes-No Task_2019_Jun_17_1252_16,-1,False,2019_Jun_17_1252,Yes-No Task,2,MIJA04,
Yes-No Task,16,0,16,0,11.5,-1,Correct Rejection,0.434180399985,False,-1,stimulus_MIJA04_Yes-No Task_2019_Jun_17_1252_17,-1,False,2019_Jun_17_1252,Yes-No Task,2,MIJA04,
Yes-No Task,17,0,17,0,11.5,-1,Hit,0.500487699988,True,-1,stimulus_MIJA04_Yes-No Task_2019_Jun_17_1252_18,-1,False,2019_Jun_17_1252,Yes-No Task,2,MIJA04,
Yes-No Task,18,0,18,0,11.5,-1,Hit,0.400578900008,True,-1,stimulus_MIJA04_Yes-No Task_2019_Jun_17_1252_19,-1,False,2019_Jun_17_1252,Yes-No Task,2,MIJA04,
Yes-No Task,19,0,19,0,11.5,-1,Miss,0.603408299998,True,-1,stimulus_MIJA04_Yes-No Task_2019_Jun_17_1252_20,-1,False,2019_Jun_17_1252,Yes-No Task,2,MIJA04,
Yes-No Task,20,0,20,0,11.5,-1,Correct Rejection,0.497956499981,False,-1,stimulus_MIJA04_Yes-No Task_2019_Jun_17_1252_21,-1,False,2019_Jun_17_1252,Yes-No Task,2,MIJA04,
Yes-No Task,21,0,21,0,11.5,-1,Hit,0.303669599991,True,-1,stimulus_MIJA04_Yes-No Task_2019_Jun_17_1252_22,-1,False,2019_Jun_17_1252,Yes-No Task,2,MIJA04,
Yes-No Task,22,0,22,0,11.5,-1,Hit,0.400705899985,True,-1,stimulus_MIJA04_Yes-No Task_2019_Jun_17_1252_23,-1,False,2019_Jun_17_1252,Yes-No Task,2,MIJA04,
Yes-No Task,23,0,23,0,11.5,-1,Correct Rejection,0.400215700007,False,-1,stimulus_MIJA04_Yes-No Task_2019_Jun_17_1252_24,-1,False,2019_Jun_17_1252,Yes-No Task,2,MIJA04,
Yes-No Task,24,0,24,0,11.5,-1,Hit,0.433808399976,True,-1,stimulus_MIJA04_Yes-No Task_2019_Jun_17_1252_25,-1,False,2019_Jun_17_1252,Yes-No Task,2,MIJA04,
Yes-No Task,25,0,25,0,11.5,-1,Miss,0.500111100002,True,-1,stimulus_MIJA04_Yes-No Task_2019_Jun_17_1252_26,-1,False,2019_Jun_17_1252,Yes-No Task,2,MIJA04,
Yes-No Task,26,0,26,0,11.5,-1,Hit,0.467233899981,True,-1,stimulus_MIJA04_Yes-No Task_2019_Jun_17_1252_27,-1,False,2019_Jun_17_1252,Yes-No Task,2,MIJA04,
Yes-No Task,27,0,27,0,11.5,-1,Hit,0.437510700023,True,-1,stimulus_MIJA04_Yes-No Task_2019_Jun_17_1252_28,-1,False,2019_Jun_17_1252,Yes-No Task,2,MIJA04,
Yes-No Task,28,0,28,0,11.5,-1,Hit,0.399635399983,True,-1,stimulus_MIJA04_Yes-No Task_2019_Jun_17_1252_29,-1,False,2019_Jun_17_1252,Yes-No Task,2,MIJA04,
Yes-No Task,29,0,29,0,11.5,-1,Hit,0.435325899976,True,-1,stimulus_MIJA04_Yes-No Task_2019_Jun_17_1252_30,-1,False,2019_Jun_17_1252,Yes-No Task,2,MIJA04,
Yes-No Task,30,0,30,0,11.5,-1,Correct Rejection,0.433967199991,False,-1,stimulus_MIJA04_Yes-No Task_2019_Jun_17_1252_31,-1,False,2019_Jun_17_1252,Yes-No Task,2,MIJA04,
Yes-No Task,31,0,31,0,11.5,-1,Hit,0.434002499998,True,-1,stimulus_MIJA04_Yes-No Task_2019_Jun_17_1252_32,-1,False,2019_Jun_17_1252,Yes-No Task,2,MIJA04,
Yes-No Task,32,0,32,0,11.5,-1,Hit,0.400638099993,True,-1,stimulus_MIJA04_Yes-No Task_2019_Jun_17_1252_33,-1,False,2019_Jun_17_1252,Yes-No Task,2,MIJA04,
Yes-No Task,33,0,33,0,11.5,-1,Hit,0.400693899981,True,-1,stimulus_MIJA04_Yes-No Task_2019_Jun_17_1252_34,-1,False,2019_Jun_17_1252,Yes-No Task,2,MIJA04,
Yes-No Task,34,0,34,0,11.5,-1,Correct Rejection,0.500497700006,False,-1,stimulus_MIJA04_Yes-No Task_2019_Jun_17_1252_35,-1,False,2019_Jun_17_1252,Yes-No Task,2,MIJA04,
Yes-No Task,35,0,35,0,11.5,-1,Hit,0.534441700001,True,-1,stimulus_MIJA04_Yes-No Task_2019_Jun_17_1252_36,-1,False,2019_Jun_17_1252,Yes-No Task,2,MIJA04,
Yes-No Task,36,0,36,0,11.5,-1,Correct Rejection,0.500627600006,False,-1,stimulus_MIJA04_Yes-No Task_2019_Jun_17_1252_37,-1,False,2019_Jun_17_1252,Yes-No Task,2,MIJA04,
Yes-No Task,37,0,37,0,11.5,-1,False Alarm,0.367446399992,False,-1,stimulus_MIJA04_Yes-No Task_2019_Jun_17_1252_38,-1,False,2019_Jun_17_1252,Yes-No Task,2,MIJA04,
Yes-No Task,38,0,38,0,11.5,-1,Hit,0.367159799993,True,-1,stimulus_MIJA04_Yes-No Task_2019_Jun_17_1252_39,-1,False,2019_Jun_17_1252,Yes-No Task,2,MIJA04,
Yes-No Task,39,0,39,0,11.5,-1,Hit,0.534045899985,True,-1,stimulus_MIJA04_Yes-No Task_2019_Jun_17_1252_40,-1,False,2019_Jun_17_1252,Yes-No Task,2,MIJA04,
Yes-No Task,40,0,40,0,11.5,-1,Correct Rejection,0.467050000007,False,-1,stimulus_MIJA04_Yes-No Task_2019_Jun_17_1252_41,-1,False,2019_Jun_17_1252,Yes-No Task,2,MIJA04,
Yes-No Task,41,0,41,0,11.5,-1,Hit,0.465975699975,True,-1,stimulus_MIJA04_Yes-No Task_2019_Jun_17_1252_42,-1,False,2019_Jun_17_1252,Yes-No Task,2,MIJA04,
Yes-No Task,42,0,42,0,11.5,-1,Correct Rejection,0.500536000007,False,-1,stimulus_MIJA04_Yes-No Task_2019_Jun_17_1252_43,-1,False,2019_Jun_17_1252,Yes-No Task,2,MIJA04,
Yes-No Task,43,0,43,0,11.5,-1,Correct Rejection,0.501933699998,False,-1,stimulus_MIJA04_Yes-No Task_2019_Jun_17_1252_44,-1,False,2019_Jun_17_1252,Yes-No Task,2,MIJA04,
Yes-No Task,44,0,44,0,11.5,-1,Hit,0.535096100008,True,-1,stimulus_MIJA04_Yes-No Task_2019_Jun_17_1252_45,-1,False,2019_Jun_17_1252,Yes-No Task,2,MIJA04,
Yes-No Task,45,0,45,0,11.5,-1,Correct Rejection,0.600532200013,False,-1,stimulus_MIJA04_Yes-No Task_2019_Jun_17_1252_46,-1,False,2019_Jun_17_1252,Yes-No Task,2,MIJA04,
Yes-No Task,46,0,46,0,11.5,-1,No Answer,-1,True,-1,stimulus_MIJA04_Yes-No Task_2019_Jun_17_1252_47,-1,False,2019_Jun_17_1252,Yes-No Task,2,MIJA04,
Yes-No Task,47,0,47,0,11.5,-1,Correct Rejection,0.567668100004,False,-1,stimulus_MIJA04_Yes-No Task_2019_Jun_17_1252_48,-1,False,2019_Jun_17_1252,Yes-No Task,2,MIJA04,
Yes-No Task,48,0,48,0,11.5,-1,Correct Rejection,0.467293399997,False,-1,stimulus_MIJA04_Yes-No Task_2019_Jun_17_1252_49,-1,False,2019_Jun_17_1252,Yes-No Task,2,MIJA04,
Yes-No Task,49,0,49,0,11.5,-1,Hit,0.400389799994,True,-1,stimulus_MIJA04_Yes-No Task_2019_Jun_17_1252_50,-1,False,2019_Jun_17_1252,Yes-No Task,2,MIJA04,
Yes-No Task,50,0,50,0,11.5,-1,Correct Rejection,0.399061300006,False,-1,stimulus_MIJA04_Yes-No Task_2019_Jun_17_1252_51,-1,False,2019_Jun_17_1252,Yes-No Task,2,MIJA04,
Yes-No Task,51,0,51,0,11.5,-1,Hit,0.533638400026,True,-1,stimulus_MIJA04_Yes-No Task_2019_Jun_17_1252_52,-1,False,2019_Jun_17_1252,Yes-No Task,2,MIJA04,
Yes-No Task,52,0,52,0,11.5,-1,Hit,0.435208899988,True,-1,stimulus_MIJA04_Yes-No Task_2019_Jun_17_1252_53,-1,False,2019_Jun_17_1252,Yes-No Task,2,MIJA04,
Yes-No Task,53,0,53,0,11.5,-1,Correct Rejection,0.466219599999,False,-1,stimulus_MIJA04_Yes-No Task_2019_Jun_17_1252_54,-1,False,2019_Jun_17_1252,Yes-No Task,2,MIJA04,
Yes-No Task,54,0,54,0,11.5,-1,Correct Rejection,0.46616109999,False,-1,stimulus_MIJA04_Yes-No Task_2019_Jun_17_1252_55,-1,False,2019_Jun_17_1252,Yes-No Task,2,MIJA04,
Yes-No Task,55,0,55,0,11.5,-1,Correct Rejection,0.500868100004,False,-1,stimulus_MIJA04_Yes-No Task_2019_Jun_17_1252_56,-1,False,2019_Jun_17_1252,Yes-No Task,2,MIJA04,
Yes-No Task,56,0,56,0,11.5,-1,False Alarm,0.5682371,False,-1,stimulus_MIJA04_Yes-No Task_2019_Jun_17_1252_57,-1,False,2019_Jun_17_1252,Yes-No Task,2,MIJA04,
Yes-No Task,57,0,57,0,11.5,-1,Correct Rejection,0.466960699996,False,-1,stimulus_MIJA04_Yes-No Task_2019_Jun_17_1252_58,-1,False,2019_Jun_17_1252,Yes-No Task,2,MIJA04,
Yes-No Task,58,0,58,0,11.5,-1,Hit,0.499975400016,True,-1,stimulus_MIJA04_Yes-No Task_2019_Jun_17_1252_59,-1,False,2019_Jun_17_1252,Yes-No Task,2,MIJA04,
Yes-No Task,59,0,59,0,11.5,-1,Correct Rejection,0.433946200006,False,-1,stimulus_MIJA04_Yes-No Task_2019_Jun_17_1252_60,-1,False,2019_Jun_17_1252,Yes-No Task,2,MIJA04,
Yes-No Task,60,0,60,0,11.5,-1,Correct Rejection,0.433308100008,False,-1,stimulus_MIJA04_Yes-No Task_2019_Jun_17_1252_61,-1,False,2019_Jun_17_1252,Yes-No Task,2,MIJA04,
Yes-No Task,61,0,61,0,11.5,-1,Hit,0.466946800007,True,-1,stimulus_MIJA04_Yes-No Task_2019_Jun_17_1252_62,-1,False,2019_Jun_17_1252,Yes-No Task,2,MIJA04,
Yes-No Task,62,0,62,0,11.5,-1,Correct Rejection,0.500450399995,False,-1,stimulus_MIJA04_Yes-No Task_2019_Jun_17_1252_63,-1,False,2019_Jun_17_1252,Yes-No Task,2,MIJA04,
Yes-No Task,63,0,63,0,11.5,-1,Hit,0.500884899986,True,-1,stimulus_MIJA04_Yes-No Task_2019_Jun_17_1252_64,-1,False,2019_Jun_17_1252,Yes-No Task,2,MIJA04,
Yes-No Task,64,0,64,0,11.5,-1,Correct Rejection,0.432969199988,False,-1,stimulus_MIJA04_Yes-No Task_2019_Jun_17_1252_65,-1,False,2019_Jun_17_1252,Yes-No Task,2,MIJA04,
Yes-No Task,65,0,65,0,11.5,-1,Correct Rejection,0.434407199995,False,-1,stimulus_MIJA04_Yes-No Task_2019_Jun_17_1252_66,-1,False,2019_Jun_17_1252,Yes-No Task,2,MIJA04,
Yes-No Task,66,0,66,0,11.5,-1,Correct Rejection,0.434287299984,False,-1,stimulus_MIJA04_Yes-No Task_2019_Jun_17_1252_67,-1,False,2019_Jun_17_1252,Yes-No Task,2,MIJA04,
Yes-No Task,67,0,67,0,11.5,-1,Miss,0.365265,True,-1,stimulus_MIJA04_Yes-No Task_2019_Jun_17_1252_68,-1,False,2019_Jun_17_1252,Yes-No Task,2,MIJA04,
Yes-No Task,68,0,68,0,11.5,-1,Hit,0.400145299995,True,-1,stimulus_MIJA04_Yes-No Task_2019_Jun_17_1252_69,-1,False,2019_Jun_17_1252,Yes-No Task,2,MIJA04,
Yes-No Task,69,0,69,0,11.5,-1,Hit,0.368835300003,True,-1,stimulus_MIJA04_Yes-No Task_2019_Jun_17_1252_70,-1,False,2019_Jun_17_1252,Yes-No Task,2,MIJA04,
Yes-No Task,70,0,70,0,11.5,-1,Hit,0.467228699999,True,-1,stimulus_MIJA04_Yes-No Task_2019_Jun_17_1252_71,-1,False,2019_Jun_17_1252,Yes-No Task,2,MIJA04,
Yes-No Task,71,0,71,0,11.5,-1,Hit,0.400553200016,True,-1,stimulus_MIJA04_Yes-No Task_2019_Jun_17_1252_72,-1,False,2019_Jun_17_1252,Yes-No Task,2,MIJA04,
Yes-No Task,72,0,72,0,11.5,-1,Hit,0.400870299985,True,-1,stimulus_MIJA04_Yes-No Task_2019_Jun_17_1252_73,-1,False,2019_Jun_17_1252,Yes-No Task,2,MIJA04,
Yes-No Task,73,0,73,0,11.5,-1,Correct Rejection,0.433555399999,False,-1,stimulus_MIJA04_Yes-No Task_2019_Jun_17_1252_74,-1,False,2019_Jun_17_1252,Yes-No Task,2,MIJA04,
Yes-No Task,74,0,74,0,11.5,-1,Correct Rejection,0.401296299999,False,-1,stimulus_MIJA04_Yes-No Task_2019_Jun_17_1252_75,-1,False,2019_Jun_17_1252,Yes-No Task,2,MIJA04,
Yes-No Task,0,0,0,0,9.6,-1,Correct Rejection,0.60048339999,False,-1,stimulus_MIJA04_Yes-No Task_2019_Jun_17_1252_76,-1,False,2019_Jun_17_1252,Yes-No Task,2,MIJA04,
Yes-No Task,1,0,1,0,9.6,-1,Correct Rejection,0.566940199991,False,-1,stimulus_MIJA04_Yes-No Task_2019_Jun_17_1252_77,-1,False,2019_Jun_17_1252,Yes-No Task,2,MIJA04,
Yes-No Task,2,0,2,0,9.6,-1,Correct Rejection,0.568282499997,False,-1,stimulus_MIJA04_Yes-No Task_2019_Jun_17_1252_78,-1,False,2019_Jun_17_1252,Yes-No Task,2,MIJA04,
Yes-No Task,3,0,3,0,9.6,-1,Hit,0.367163499992,True,-1,stimulus_MIJA04_Yes-No Task_2019_Jun_17_1252_79,-1,False,2019_Jun_17_1252,Yes-No Task,2,MIJA04,
Yes-No Task,4,0,4,0,9.6,-1,Hit,0.431826999993,True,-1,stimulus_MIJA04_Yes-No Task_2019_Jun_17_1252_80,-1,False,2019_Jun_17_1252,Yes-No Task,2,MIJA04,
Yes-No Task,5,0,5,0,9.6,-1,Correct Rejection,0.401452699996,False,-1,stimulus_MIJA04_Yes-No Task_2019_Jun_17_1252_81,-1,False,2019_Jun_17_1252,Yes-No Task,2,MIJA04,
Yes-No Task,6,0,6,0,9.6,-1,Correct Rejection,0.5002866,False,-1,stimulus_MIJA04_Yes-No Task_2019_Jun_17_1252_82,-1,False,2019_Jun_17_1252,Yes-No Task,2,MIJA04,
Yes-No Task,7,0,7,0,9.6,-1,Hit,0.43341160001,True,-1,stimulus_MIJA04_Yes-No Task_2019_Jun_17_1252_83,-1,False,2019_Jun_17_1252,Yes-No Task,2,MIJA04,
Yes-No Task,8,0,8,0,9.6,-1,Correct Rejection,0.433559199999,False,-1,stimulus_MIJA04_Yes-No Task_2019_Jun_17_1252_84,-1,False,2019_Jun_17_1252,Yes-No Task,2,MIJA04,
Yes-No Task,9,0,9,0,9.6,-1,Hit,0.500473599997,True,-1,stimulus_MIJA04_Yes-No Task_2019_Jun_17_1252_85,-1,False,2019_Jun_17_1252,Yes-No Task,2,MIJA04,
Yes-No Task,10,0,10,0,9.6,-1,Miss,0.568296799989,True,-1,stimulus_MIJA04_Yes-No Task_2019_Jun_17_1252_86,-1,False,2019_Jun_17_1252,Yes-No Task,2,MIJA04,
Yes-No Task,11,0,11,0,9.6,-1,Correct Rejection,0.433864000021,False,-1,stimulus_MIJA04_Yes-No Task_2019_Jun_17_1252_87,-1,False,2019_Jun_17_1252,Yes-No Task,2,MIJA04,
Yes-No Task,12,0,12,0,9.6,-1,Hit,0.468304300011,True,-1,stimulus_MIJA04_Yes-No Task_2019_Jun_17_1252_88,-1,False,2019_Jun_17_1252,Yes-No Task,2,MIJA04,
Yes-No Task,13,0,13,0,9.6,-1,Correct Rejection,0.400609200005,False,-1,stimulus_MIJA04_Yes-No Task_2019_Jun_17_1252_89,-1,False,2019_Jun_17_1252,Yes-No Task,2,MIJA04,
Yes-No Task,14,0,14,0,9.6,-1,Miss,0.400143700012,True,-1,stimulus_MIJA04_Yes-No Task_2019_Jun_17_1252_90,-1,False,2019_Jun_17_1252,Yes-No Task,2,MIJA04,
Yes-No Task,15,0,15,0,9.6,-1,Hit,0.433446099982,True,-1,stimulus_MIJA04_Yes-No Task_2019_Jun_17_1252_91,-1,False,2019_Jun_17_1252,Yes-No Task,2,MIJA04,
Yes-No Task,16,0,16,0,9.6,-1,Correct Rejection,0.469620999997,False,-1,stimulus_MIJA04_Yes-No Task_2019_Jun_17_1252_92,-1,False,2019_Jun_17_1252,Yes-No Task,2,MIJA04,
Yes-No Task,17,0,17,0,9.6,-1,Correct Rejection,0.499934299994,False,-1,stimulus_MIJA04_Yes-No Task_2019_Jun_17_1252_93,-1,False,2019_Jun_17_1252,Yes-No Task,2,MIJA04,
Yes-No Task,18,0,18,0,9.6,-1,False Alarm,0.300389899989,False,-1,stimulus_MIJA04_Yes-No Task_2019_Jun_17_1252_94,-1,False,2019_Jun_17_1252,Yes-No Task,2,MIJA04,
Yes-No Task,19,0,19,0,9.6,-1,Hit,0.400631800003,True,-1,stimulus_MIJA04_Yes-No Task_2019_Jun_17_1252_95,-1,False,2019_Jun_17_1252,Yes-No Task,2,MIJA04,
Yes-No Task,20,0,20,0,9.6,-1,Correct Rejection,0.4340065,False,-1,stimulus_MIJA04_Yes-No Task_2019_Jun_17_1252_96,-1,False,2019_Jun_17_1252,Yes-No Task,2,MIJA04,
Yes-No Task,21,0,21,0,9.6,-1,Correct Rejection,0.500608999981,False,-1,stimulus_MIJA04_Yes-No Task_2019_Jun_17_1252_97,-1,False,2019_Jun_17_1252,Yes-No Task,2,MIJA04,
Yes-No Task,22,0,22,0,9.6,-1,Hit,0.467395799991,True,-1,stimulus_MIJA04_Yes-No Task_2019_Jun_17_1252_98,-1,False,2019_Jun_17_1252,Yes-No Task,2,MIJA04,
Yes-No Task,23,0,23,0,9.6,-1,Correct Rejection,0.433955000015,False,-1,stimulus_MIJA04_Yes-No Task_2019_Jun_17_1252_99,-1,False,2019_Jun_17_1252,Yes-No Task,2,MIJA04,
Yes-No Task,24,0,24,0,9.6,-1,Correct Rejection,0.433809700015,False,-1,stimulus_MIJA04_Yes-No Task_2019_Jun_17_1252_100,-1,False,2019_Jun_17_1252,Yes-No Task,2,MIJA04,
Yes-No Task,25,0,25,0,9.6,-1,Correct Rejection,0.433980500005,False,-1,stimulus_MIJA04_Yes-No Task_2019_Jun_17_1252_101,-1,False,2019_Jun_17_1252,Yes-No Task,2,MIJA04,
Yes-No Task,26,0,26,0,9.6,-1,Correct Rejection,0.568218799977,False,-1,stimulus_MIJA04_Yes-No Task_2019_Jun_17_1252_102,-1,False,2019_Jun_17_1252,Yes-No Task,2,MIJA04,
Yes-No Task,27,0,27,0,9.6,-1,Correct Rejection,0.434288899996,False,-1,stimulus_MIJA04_Yes-No Task_2019_Jun_17_1252_103,-1,False,2019_Jun_17_1252,Yes-No Task,2,MIJA04,
Yes-No Task,28,0,28,0,9.6,-1,Hit,0.500401400001,True,-1,stimulus_MIJA04_Yes-No Task_2019_Jun_17_1252_104,-1,False,2019_Jun_17_1252,Yes-No Task,2,MIJA04,
Yes-No Task,29,0,29,0,9.6,-1,Correct Rejection,0.468527899997,False,-1,stimulus_MIJA04_Yes-No Task_2019_Jun_17_1252_105,-1,False,2019_Jun_17_1252,Yes-No Task,2,MIJA04,
Yes-No Task,30,0,30,0,9.6,-1,Correct Rejection,0.433522000007,False,-1,stimulus_MIJA04_Yes-No Task_2019_Jun_17_1252_106,-1,False,2019_Jun_17_1252,Yes-No Task,2,MIJA04,
Yes-No Task,31,0,31,0,9.6,-1,Correct Rejection,0.466185900004,False,-1,stimulus_MIJA04_Yes-No Task_2019_Jun_17_1252_107,-1,False,2019_Jun_17_1252,Yes-No Task,2,MIJA04,
Yes-No Task,32,0,32,0,9.6,-1,Correct Rejection,0.435339599993,False,-1,stimulus_MIJA04_Yes-No Task_2019_Jun_17_1252_108,-1,False,2019_Jun_17_1252,Yes-No Task,2,MIJA04,
Yes-No Task,33,0,33,0,9.6,-1,Hit,0.499504900014,True,-1,stimulus_MIJA04_Yes-No Task_2019_Jun_17_1252_109,-1,False,2019_Jun_17_1252,Yes-No Task,2,MIJA04,
Yes-No Task,34,0,34,0,9.6,-1,Correct Rejection,0.400516100024,False,-1,stimulus_MIJA04_Yes-No Task_2019_Jun_17_1252_110,-1,False,2019_Jun_17_1252,Yes-No Task,2,MIJA04,
Yes-No Task,35,0,35,0,9.6,-1,Hit,0.533207,True,-1,stimulus_MIJA04_Yes-No Task_2019_Jun_17_1252_111,-1,False,2019_Jun_17_1252,Yes-No Task,2,MIJA04,
Yes-No Task,36,0,36,0,9.6,-1,Hit,0.566112300003,True,-1,stimulus_MIJA04_Yes-No Task_2019_Jun_17_1252_112,-1,False,2019_Jun_17_1252,Yes-No Task,2,MIJA04,
Yes-No Task,37,0,37,0,9.6,-1,Correct Rejection,0.566656900017,False,-1,stimulus_MIJA04_Yes-No Task_2019_Jun_17_1252_113,-1,False,2019_Jun_17_1252,Yes-No Task,2,MIJA04,
Yes-No Task,38,0,38,0,9.6,-1,False Alarm,0.667449499975,False,-1,stimulus_MIJA04_Yes-No Task_2019_Jun_17_1252_114,-1,False,2019_Jun_17_1252,Yes-No Task,2,MIJA04,
Yes-No Task,39,0,39,0,9.6,-1,Hit,0.500828799995,True,-1,stimulus_MIJA04_Yes-No Task_2019_Jun_17_1252_115,-1,False,2019_Jun_17_1252,Yes-No Task,2,MIJA04,
Yes-No Task,40,0,40,0,9.6,-1,Hit,0.534221999987,True,-1,stimulus_MIJA04_Yes-No Task_2019_Jun_17_1252_116,-1,False,2019_Jun_17_1252,Yes-No Task,2,MIJA04,
Yes-No Task,41,0,41,0,9.6,-1,Correct Rejection,0.667088499991,False,-1,stimulus_MIJA04_Yes-No Task_2019_Jun_17_1252_117,-1,False,2019_Jun_17_1252,Yes-No Task,2,MIJA04,
Yes-No Task,42,0,42,0,9.6,-1,False Alarm,0.50143080001,False,-1,stimulus_MIJA04_Yes-No Task_2019_Jun_17_1252_118,-1,False,2019_Jun_17_1252,Yes-No Task,2,MIJA04,
Yes-No Task,43,0,43,0,9.6,-1,Hit,0.366286000004,True,-1,stimulus_MIJA04_Yes-No Task_2019_Jun_17_1252_119,-1,False,2019_Jun_17_1252,Yes-No Task,2,MIJA04,
Yes-No Task,44,0,44,0,9.6,-1,Hit,0.467710700002,True,-1,stimulus_MIJA04_Yes-No Task_2019_Jun_17_1252_120,-1,False,2019_Jun_17_1252,Yes-No Task,2,MIJA04,
Yes-No Task,45,0,45,0,9.6,-1,Correct Rejection,0.500318700011,False,-1,stimulus_MIJA04_Yes-No Task_2019_Jun_17_1252_121,-1,False,2019_Jun_17_1252,Yes-No Task,2,MIJA04,
Yes-No Task,46,0,46,0,9.6,-1,Hit,0.433649100014,True,-1,stimulus_MIJA04_Yes-No Task_2019_Jun_17_1252_122,-1,False,2019_Jun_17_1252,Yes-No Task,2,MIJA04,
Yes-No Task,47,0,47,0,9.6,-1,Correct Rejection,0.433175499988,False,-1,stimulus_MIJA04_Yes-No Task_2019_Jun_17_1252_123,-1,False,2019_Jun_17_1252,Yes-No Task,2,MIJA04,
Yes-No Task,48,0,48,0,9.6,-1,Hit,0.299224200018,True,-1,stimulus_MIJA04_Yes-No Task_2019_Jun_17_1252_124,-1,False,2019_Jun_17_1252,Yes-No Task,2,MIJA04,
Yes-No Task,49,0,49,0,9.6,-1,Correct Rejection,0.467345299985,False,-1,stimulus_MIJA04_Yes-No Task_2019_Jun_17_1252_125,-1,False,2019_Jun_17_1252,Yes-No Task,2,MIJA04,
Yes-No Task,50,0,50,0,9.6,-1,Hit,0.433629300009,True,-1,stimulus_MIJA04_Yes-No Task_2019_Jun_17_1252_126,-1,False,2019_Jun_17_1252,Yes-No Task,2,MIJA04,
Yes-No Task,51,0,51,0,9.6,-1,Correct Rejection,0.469317299983,False,-1,stimulus_MIJA04_Yes-No Task_2019_Jun_17_1252_127,-1,False,2019_Jun_17_1252,Yes-No Task,2,MIJA04,
Yes-No Task,52,0,52,0,9.6,-1,Hit,0.400339600019,True,-1,stimulus_MIJA04_Yes-No Task_2019_Jun_17_1252_128,-1,False,2019_Jun_17_1252,Yes-No Task,2,MIJA04,
Yes-No Task,53,0,53,0,9.6,-1,Correct Rejection,0.567595700006,False,-1,stimulus_MIJA04_Yes-No Task_2019_Jun_17_1252_129,-1,False,2019_Jun_17_1252,Yes-No Task,2,MIJA04,
Yes-No Task,54,0,54,0,9.6,-1,Hit,0.333098000003,True,-1,stimulus_MIJA04_Yes-No Task_2019_Jun_17_1252_130,-1,False,2019_Jun_17_1252,Yes-No Task,2,MIJA04,
Yes-No Task,55,0,55,0,9.6,-1,Correct Rejection,0.434917499981,False,-1,stimulus_MIJA04_Yes-No Task_2019_Jun_17_1252_131,-1,False,2019_Jun_17_1252,Yes-No Task,2,MIJA04,
Yes-No Task,56,0,56,0,9.6,-1,Hit,0.332794999995,True,-1,stimulus_MIJA04_Yes-No Task_2019_Jun_17_1252_132,-1,False,2019_Jun_17_1252,Yes-No Task,2,MIJA04,
Yes-No Task,57,0,57,0,9.6,-1,Correct Rejection,0.433537499979,False,-1,stimulus_MIJA04_Yes-No Task_2019_Jun_17_1252_133,-1,False,2019_Jun_17_1252,Yes-No Task,2,MIJA04,
Yes-No Task,58,0,58,0,9.6,-1,Hit,0.433785799978,True,-1,stimulus_MIJA04_Yes-No Task_2019_Jun_17_1252_134,-1,False,2019_Jun_17_1252,Yes-No Task,2,MIJA04,
Yes-No Task,59,0,59,0,9.6,-1,Hit,0.500579799991,True,-1,stimulus_MIJA04_Yes-No Task_2019_Jun_17_1252_135,-1,False,2019_Jun_17_1252,Yes-No Task,2,MIJA04,
Yes-No Task,60,0,60,0,9.6,-1,Hit,0.466062699998,True,-1,stimulus_MIJA04_Yes-No Task_2019_Jun_17_1252_136,-1,False,2019_Jun_17_1252,Yes-No Task,2,MIJA04,
Yes-No Task,61,0,61,0,9.6,-1,Correct Rejection,0.467107400007,False,-1,stimulus_MIJA04_Yes-No Task_2019_Jun_17_1252_137,-1,False,2019_Jun_17_1252,Yes-No Task,2,MIJA04,
Yes-No Task,62,0,62,0,9.6,-1,False Alarm,0.367654300004,False,-1,stimulus_MIJA04_Yes-No Task_2019_Jun_17_1252_138,-1,False,2019_Jun_17_1252,Yes-No Task,2,MIJA04,
Yes-No Task,63,0,63,0,9.6,-1,Hit,0.466713300004,True,-1,stimulus_MIJA04_Yes-No Task_2019_Jun_17_1252_139,-1,False,2019_Jun_17_1252,Yes-No Task,2,MIJA04,
Yes-No Task,64,0,64,0,9.6,-1,Hit,0.467099000001,True,-1,stimulus_MIJA04_Yes-No Task_2019_Jun_17_1252_140,-1,False,2019_Jun_17_1252,Yes-No Task,2,MIJA04,
Yes-No Task,65,0,65,0,9.6,-1,Correct Rejection,0.500473099994,False,-1,stimulus_MIJA04_Yes-No Task_2019_Jun_17_1252_141,-1,False,2019_Jun_17_1252,Yes-No Task,2,MIJA04,
Yes-No Task,66,0,66,0,9.6,-1,Correct Rejection,0.565975000005,False,-1,stimulus_MIJA04_Yes-No Task_2019_Jun_17_1252_142,-1,False,2019_Jun_17_1252,Yes-No Task,2,MIJA04,
Yes-No Task,67,0,67,0,9.6,-1,Hit,0.500635900011,True,-1,stimulus_MIJA04_Yes-No Task_2019_Jun_17_1252_143,-1,False,2019_Jun_17_1252,Yes-No Task,2,MIJA04,
Yes-No Task,68,0,68,0,9.6,-1,Hit,0.535744299996,True,-1,stimulus_MIJA04_Yes-No Task_2019_Jun_17_1252_144,-1,False,2019_Jun_17_1252,Yes-No Task,2,MIJA04,
Yes-No Task,69,0,69,0,9.6,-1,Correct Rejection,0.564747700002,False,-1,stimulus_MIJA04_Yes-No Task_2019_Jun_17_1252_145,-1,False,2019_Jun_17_1252,Yes-No Task,2,MIJA04,
Yes-No Task,70,0,70,0,9.6,-1,Correct Rejection,0.333961299999,False,-1,stimulus_MIJA04_Yes-No Task_2019_Jun_17_1252_146,-1,False,2019_Jun_17_1252,Yes-No Task,2,MIJA04,
Yes-No Task,71,0,71,0,9.6,-1,Correct Rejection,0.4000543,False,-1,stimulus_MIJA04_Yes-No Task_2019_Jun_17_1252_147,-1,False,2019_Jun_17_1252,Yes-No Task,2,MIJA04,
Yes-No Task,72,0,72,0,9.6,-1,Correct Rejection,0.368960699998,False,-1,stimulus_MIJA04_Yes-No Task_2019_Jun_17_1252_148,-1,False,2019_Jun_17_1252,Yes-No Task,2,MIJA04,
Yes-No Task,73,0,73,0,9.6,-1,Correct Rejection,0.333917500015,False,-1,stimulus_MIJA04_Yes-No Task_2019_Jun_17_1252_149,-1,False,2019_Jun_17_1252,Yes-No Task,2,MIJA04,
Yes-No Task,74,0,74,0,9.6,-1,Correct Rejection,0.334993700002,False,-1,stimulus_MIJA04_Yes-No Task_2019_Jun_17_1252_150,-1,False,2019_Jun_17_1252,Yes-No Task,2,MIJA04,
Yes-No Task,0,0,0,0,4.9,-1,Miss,0.501602700009,True,-1,stimulus_MIJA04_Yes-No Task_2019_Jun_17_1252_151,-1,False,2019_Jun_17_1252,Yes-No Task,2,MIJA04,
Yes-No Task,1,0,1,0,4.9,-1,Correct Rejection,0.596102099982,False,-1,stimulus_MIJA04_Yes-No Task_2019_Jun_17_1252_152,-1,False,2019_Jun_17_1252,Yes-No Task,2,MIJA04,
Yes-No Task,2,0,2,0,4.9,-1,Hit,0.600508300005,True,-1,stimulus_MIJA04_Yes-No Task_2019_Jun_17_1252_153,-1,False,2019_Jun_17_1252,Yes-No Task,2,MIJA04,
Yes-No Task,3,0,3,0,4.9,-1,Correct Rejection,0.433987199998,False,-1,stimulus_MIJA04_Yes-No Task_2019_Jun_17_1252_154,-1,False,2019_Jun_17_1252,Yes-No Task,2,MIJA04,
Yes-No Task,4,0,4,0,4.9,-1,Miss,0.400417600002,True,-1,stimulus_MIJA04_Yes-No Task_2019_Jun_17_1252_155,-1,False,2019_Jun_17_1252,Yes-No Task,2,MIJA04,
Yes-No Task,5,0,5,0,4.9,-1,False Alarm,0.36819530002,False,-1,stimulus_MIJA04_Yes-No Task_2019_Jun_17_1252_156,-1,False,2019_Jun_17_1252,Yes-No Task,2,MIJA04,
Yes-No Task,6,0,6,0,4.9,-1,Correct Rejection,0.567311899998,False,-1,stimulus_MIJA04_Yes-No Task_2019_Jun_17_1252_157,-1,False,2019_Jun_17_1252,Yes-No Task,2,MIJA04,
Yes-No Task,7,0,7,0,4.9,-1,Miss,0.433944199991,True,-1,stimulus_MIJA04_Yes-No Task_2019_Jun_17_1252_158,-1,False,2019_Jun_17_1252,Yes-No Task,2,MIJA04,
Yes-No Task,8,0,8,0,4.9,-1,Correct Rejection,0.46804930002,False,-1,stimulus_MIJA04_Yes-No Task_2019_Jun_17_1252_159,-1,False,2019_Jun_17_1252,Yes-No Task,2,MIJA04,
Yes-No Task,9,0,9,0,4.9,-1,Correct Rejection,0.534904800006,False,-1,stimulus_MIJA04_Yes-No Task_2019_Jun_17_1252_160,-1,False,2019_Jun_17_1252,Yes-No Task,2,MIJA04,
Yes-No Task,10,0,10,0,4.9,-1,Hit,0.333649799984,True,-1,stimulus_MIJA04_Yes-No Task_2019_Jun_17_1252_161,-1,False,2019_Jun_17_1252,Yes-No Task,2,MIJA04,
Yes-No Task,11,0,11,0,4.9,-1,Hit,0.466692899994,True,-1,stimulus_MIJA04_Yes-No Task_2019_Jun_17_1252_162,-1,False,2019_Jun_17_1252,Yes-No Task,2,MIJA04,
Yes-No Task,12,0,12,0,4.9,-1,Hit,0.564367200015,True,-1,stimulus_MIJA04_Yes-No Task_2019_Jun_17_1252_163,-1,False,2019_Jun_17_1252,Yes-No Task,2,MIJA04,
Yes-No Task,13,0,13,0,4.9,-1,Correct Rejection,0.434651699994,False,-1,stimulus_MIJA04_Yes-No Task_2019_Jun_17_1252_164,-1,False,2019_Jun_17_1252,Yes-No Task,2,MIJA04,
Yes-No Task,14,0,14,0,4.9,-1,False Alarm,0.500629499991,False,-1,stimulus_MIJA04_Yes-No Task_2019_Jun_17_1252_165,-1,False,2019_Jun_17_1252,Yes-No Task,2,MIJA04,
Yes-No Task,15,0,15,0,4.9,-1,False Alarm,0.500791099999,False,-1,stimulus_MIJA04_Yes-No Task_2019_Jun_17_1252_166,-1,False,2019_Jun_17_1252,Yes-No Task,2,MIJA04,
Yes-No Task,16,0,16,0,4.9,-1,Miss,0.468037000013,True,-1,stimulus_MIJA04_Yes-No Task_2019_Jun_17_1252_167,-1,False,2019_Jun_17_1252,Yes-No Task,2,MIJA04,
Yes-No Task,17,0,17,0,4.9,-1,Hit,0.435462399997,True,-1,stimulus_MIJA04_Yes-No Task_2019_Jun_17_1252_168,-1,False,2019_Jun_17_1252,Yes-No Task,2,MIJA04,
Yes-No Task,18,0,18,0,4.9,-1,Correct Rejection,0.534702600009,False,-1,stimulus_MIJA04_Yes-No Task_2019_Jun_17_1252_169,-1,False,2019_Jun_17_1252,Yes-No Task,2,MIJA04,
Yes-No Task,19,0,19,0,4.9,-1,Hit,0.366342900001,True,-1,stimulus_MIJA04_Yes-No Task_2019_Jun_17_1252_170,-1,False,2019_Jun_17_1252,Yes-No Task,2,MIJA04,
Yes-No Task,20,0,20,0,4.9,-1,False Alarm,0.367355100025,False,-1,stimulus_MIJA04_Yes-No Task_2019_Jun_17_1252_171,-1,False,2019_Jun_17_1252,Yes-No Task,2,MIJA04,
Yes-No Task,21,0,21,0,4.9,-1,False Alarm,0.467570600013,False,-1,stimulus_MIJA04_Yes-No Task_2019_Jun_17_1252_172,-1,False,2019_Jun_17_1252,Yes-No Task,2,MIJA04,
Yes-No Task,22,0,22,0,4.9,-1,False Alarm,0.568790999998,False,-1,stimulus_MIJA04_Yes-No Task_2019_Jun_17_1252_173,-1,False,2019_Jun_17_1252,Yes-No Task,2,MIJA04,
Yes-No Task,23,0,23,0,4.9,-1,Hit,0.367409699975,True,-1,stimulus_MIJA04_Yes-No Task_2019_Jun_17_1252_174,-1,False,2019_Jun_17_1252,Yes-No Task,2,MIJA04,
Yes-No Task,24,0,24,0,4.9,-1,Correct Rejection,0.367418900016,False,-1,stimulus_MIJA04_Yes-No Task_2019_Jun_17_1252_175,-1,False,2019_Jun_17_1252,Yes-No Task,2,MIJA04,
Yes-No Task,25,0,25,0,4.9,-1,Correct Rejection,0.399370999978,False,-1,stimulus_MIJA04_Yes-No Task_2019_Jun_17_1252_176,-1,False,2019_Jun_17_1252,Yes-No Task,2,MIJA04,
Yes-No Task,26,0,26,0,4.9,-1,Correct Rejection,0.534648600005,False,-1,stimulus_MIJA04_Yes-No Task_2019_Jun_17_1252_177,-1,False,2019_Jun_17_1252,Yes-No Task,2,MIJA04,
Yes-No Task,27,0,27,0,4.9,-1,Miss,0.29968560001,True,-1,stimulus_MIJA04_Yes-No Task_2019_Jun_17_1252_178,-1,False,2019_Jun_17_1252,Yes-No Task,2,MIJA04,
Yes-No Task,28,0,28,0,4.9,-1,Correct Rejection,0.400541799987,False,-1,stimulus_MIJA04_Yes-No Task_2019_Jun_17_1252_179,-1,False,2019_Jun_17_1252,Yes-No Task,2,MIJA04,
Yes-No Task,29,0,29,0,4.9,-1,False Alarm,0.434767700004,False,-1,stimulus_MIJA04_Yes-No Task_2019_Jun_17_1252_180,-1,False,2019_Jun_17_1252,Yes-No Task,2,MIJA04,
Yes-No Task,30,0,30,0,4.9,-1,Hit,0.333882000006,True,-1,stimulus_MIJA04_Yes-No Task_2019_Jun_17_1252_181,-1,False,2019_Jun_17_1252,Yes-No Task,2,MIJA04,
Yes-No Task,31,0,31,0,4.9,-1,Correct Rejection,0.400633599987,False,-1,stimulus_MIJA04_Yes-No Task_2019_Jun_17_1252_182,-1,False,2019_Jun_17_1252,Yes-No Task,2,MIJA04,
Yes-No Task,32,0,32,0,4.9,-1,False Alarm,0.300240800017,False,-1,stimulus_MIJA04_Yes-No Task_2019_Jun_17_1252_183,-1,False,2019_Jun_17_1252,Yes-No Task,2,MIJA04,
Yes-No Task,33,0,33,0,4.9,-1,False Alarm,0.534233100014,False,-1,stimulus_MIJA04_Yes-No Task_2019_Jun_17_1252_184,-1,False,2019_Jun_17_1252,Yes-No Task,2,MIJA04,
Yes-No Task,34,0,34,0,4.9,-1,False Alarm,0.300511600013,False,-1,stimulus_MIJA04_Yes-No Task_2019_Jun_17_1252_185,-1,False,2019_Jun_17_1252,Yes-No Task,2,MIJA04,
Yes-No Task,35,0,35,0,4.9,-1,Hit,0.501634600019,True,-1,stimulus_MIJA04_Yes-No Task_2019_Jun_17_1252_186,-1,False,2019_Jun_17_1252,Yes-No Task,2,MIJA04,
Yes-No Task,36,0,36,0,4.9,-1,Miss,0.434368499991,True,-1,stimulus_MIJA04_Yes-No Task_2019_Jun_17_1252_187,-1,False,2019_Jun_17_1252,Yes-No Task,2,MIJA04,
Yes-No Task,37,0,37,0,4.9,-1,Correct Rejection,0.635475099989,False,-1,stimulus_MIJA04_Yes-No Task_2019_Jun_17_1252_188,-1,False,2019_Jun_17_1252,Yes-No Task,2,MIJA04,
Yes-No Task,38,0,38,0,4.9,-1,False Alarm,0.466394900024,False,-1,stimulus_MIJA04_Yes-No Task_2019_Jun_17_1252_189,-1,False,2019_Jun_17_1252,Yes-No Task,2,MIJA04,
Yes-No Task,39,0,39,0,4.9,-1,Correct Rejection,0.568371400004,False,-1,stimulus_MIJA04_Yes-No Task_2019_Jun_17_1252_190,-1,False,2019_Jun_17_1252,Yes-No Task,2,MIJA04,
Yes-No Task,40,0,40,0,4.9,-1,Hit,0.50059120002,True,-1,stimulus_MIJA04_Yes-No Task_2019_Jun_17_1252_191,-1,False,2019_Jun_17_1252,Yes-No Task,2,MIJA04,
Yes-No Task,41,0,41,0,4.9,-1,Hit,0.500369099987,True,-1,stimulus_MIJA04_Yes-No Task_2019_Jun_17_1252_192,-1,False,2019_Jun_17_1252,Yes-No Task,2,MIJA04,
Yes-No Task,42,0,42,0,4.9,-1,Hit,0.368235900009,True,-1,stimulus_MIJA04_Yes-No Task_2019_Jun_17_1252_193,-1,False,2019_Jun_17_1252,Yes-No Task,2,MIJA04,
Yes-No Task,43,0,43,0,4.9,-1,False Alarm,0.400948299997,False,-1,stimulus_MIJA04_Yes-No Task_2019_Jun_17_1252_194,-1,False,2019_Jun_17_1252,Yes-No Task,2,MIJA04,
Yes-No Task,44,0,44,0,4.9,-1,False Alarm,0.467404199997,False,-1,stimulus_MIJA04_Yes-No Task_2019_Jun_17_1252_195,-1,False,2019_Jun_17_1252,Yes-No Task,2,MIJA04,
Yes-No Task,45,0,45,0,4.9,-1,Correct Rejection,0.702246900008,False,-1,stimulus_MIJA04_Yes-No Task_2019_Jun_17_1252_196,-1,False,2019_Jun_17_1252,Yes-No Task,2,MIJA04,
Yes-No Task,46,0,46,0,4.9,-1,False Alarm,0.800846600003,False,-1,stimulus_MIJA04_Yes-No Task_2019_Jun_17_1252_197,-1,False,2019_Jun_17_1252,Yes-No Task,2,MIJA04,
Yes-No Task,47,0,47,0,4.9,-1,Correct Rejection,0.499519199977,False,-1,stimulus_MIJA04_Yes-No Task_2019_Jun_17_1252_198,-1,False,2019_Jun_17_1252,Yes-No Task,2,MIJA04,
Yes-No Task,48,0,48,0,4.9,-1,Hit,0.574706300016,True,-1,stimulus_MIJA04_Yes-No Task_2019_Jun_17_1252_199,-1,False,2019_Jun_17_1252,Yes-No Task,2,MIJA04,
Yes-No Task,49,0,49,0,4.9,-1,Hit,0.466389300011,True,-1,stimulus_MIJA04_Yes-No Task_2019_Jun_17_1252_200,-1,False,2019_Jun_17_1252,Yes-No Task,2,MIJA04,
Yes-No Task,50,0,50,0,4.9,-1,Hit,0.533897099987,True,-1,stimulus_MIJA04_Yes-No Task_2019_Jun_17_1252_201,-1,False,2019_Jun_17_1252,Yes-No Task,2,MIJA04,
Yes-No Task,51,0,51,0,4.9,-1,False Alarm,0.467319399992,False,-1,stimulus_MIJA04_Yes-No Task_2019_Jun_17_1252_202,-1,False,2019_Jun_17_1252,Yes-No Task,2,MIJA04,
Yes-No Task,52,0,52,0,4.9,-1,Hit,0.501611499989,True,-1,stimulus_MIJA04_Yes-No Task_2019_Jun_17_1252_203,-1,False,2019_Jun_17_1252,Yes-No Task,2,MIJA04,
Yes-No Task,53,0,53,0,4.9,-1,Correct Rejection,0.533890099992,False,-1,stimulus_MIJA04_Yes-No Task_2019_Jun_17_1252_204,-1,False,2019_Jun_17_1252,Yes-No Task,2,MIJA04,
Yes-No Task,54,0,54,0,4.9,-1,Miss,0.434182799974,True,-1,stimulus_MIJA04_Yes-No Task_2019_Jun_17_1252_205,-1,False,2019_Jun_17_1252,Yes-No Task,2,MIJA04,
Yes-No Task,55,0,55,0,4.9,-1,Hit,0.46439410001,True,-1,stimulus_MIJA04_Yes-No Task_2019_Jun_17_1252_206,-1,False,2019_Jun_17_1252,Yes-No Task,2,MIJA04,
Yes-No Task,56,0,56,0,4.9,-1,False Alarm,0.468876400002,False,-1,stimulus_MIJA04_Yes-No Task_2019_Jun_17_1252_207,-1,False,2019_Jun_17_1252,Yes-No Task,2,MIJA04,
Yes-No Task,57,0,57,0,4.9,-1,Hit,0.332974599994,True,-1,stimulus_MIJA04_Yes-No Task_2019_Jun_17_1252_208,-1,False,2019_Jun_17_1252,Yes-No Task,2,MIJA04,
Yes-No Task,58,0,58,0,4.9,-1,Hit,0.500646400003,True,-1,stimulus_MIJA04_Yes-No Task_2019_Jun_17_1252_209,-1,False,2019_Jun_17_1252,Yes-No Task,2,MIJA04,
Yes-No Task,59,0,59,0,4.9,-1,Miss,0.501620499999,True,-1,stimulus_MIJA04_Yes-No Task_2019_Jun_17_1252_210,-1,False,2019_Jun_17_1252,Yes-No Task,2,MIJA04,
Yes-No Task,60,0,60,0,4.9,-1,False Alarm,0.535171399999,False,-1,stimulus_MIJA04_Yes-No Task_2019_Jun_17_1252_211,-1,False,2019_Jun_17_1252,Yes-No Task,2,MIJA04,
Yes-No Task,61,0,61,0,4.9,-1,False Alarm,0.400278400019,False,-1,stimulus_MIJA04_Yes-No Task_2019_Jun_17_1252_212,-1,False,2019_Jun_17_1252,Yes-No Task,2,MIJA04,
Yes-No Task,62,0,62,0,4.9,-1,Miss,0.534506399999,True,-1,stimulus_MIJA04_Yes-No Task_2019_Jun_17_1252_213,-1,False,2019_Jun_17_1252,Yes-No Task,2,MIJA04,
Yes-No Task,63,0,63,0,4.9,-1,Hit,0.533725299989,True,-1,stimulus_MIJA04_Yes-No Task_2019_Jun_17_1252_214,-1,False,2019_Jun_17_1252,Yes-No Task,2,MIJA04,
Yes-No Task,64,0,64,0,4.9,-1,Hit,0.500018399995,True,-1,stimulus_MIJA04_Yes-No Task_2019_Jun_17_1252_215,-1,False,2019_Jun_17_1252,Yes-No Task,2,MIJA04,
Yes-No Task,65,0,65,0,4.9,-1,Hit,0.56737460001,True,-1,stimulus_MIJA04_Yes-No Task_2019_Jun_17_1252_216,-1,False,2019_Jun_17_1252,Yes-No Task,2,MIJA04,
Yes-No Task,66,0,66,0,4.9,-1,Hit,0.501747700007,True,-1,stimulus_MIJA04_Yes-No Task_2019_Jun_17_1252_217,-1,False,2019_Jun_17_1252,Yes-No Task,2,MIJA04,
Yes-No Task,67,0,67,0,4.9,-1,Miss,0.501654299995,True,-1,stimulus_MIJA04_Yes-No Task_2019_Jun_17_1252_218,-1,False,2019_Jun_17_1252,Yes-No Task,2,MIJA04,
Yes-No Task,68,0,68,0,4.9,-1,Miss,0.634636900009,True,-1,stimulus_MIJA04_Yes-No Task_2019_Jun_17_1252_219,-1,False,2019_Jun_17_1252,Yes-No Task,2,MIJA04,
Yes-No Task,69,0,69,0,4.9,-1,Correct Rejection,0.667674099997,False,-1,stimulus_MIJA04_Yes-No Task_2019_Jun_17_1252_220,-1,False,2019_Jun_17_1252,Yes-No Task,2,MIJA04,
Yes-No Task,70,0,70,0,4.9,-1,Correct Rejection,0.400415799988,False,-1,stimulus_MIJA04_Yes-No Task_2019_Jun_17_1252_221,-1,False,2019_Jun_17_1252,Yes-No Task,2,MIJA04,
Yes-No Task,71,0,71,0,4.9,-1,Correct Rejection,0.53354579999,False,-1,stimulus_MIJA04_Yes-No Task_2019_Jun_17_1252_222,-1,False,2019_Jun_17_1252,Yes-No Task,2,MIJA04,
Yes-No Task,72,0,72,0,4.9,-1,Hit,0.534123399993,True,-1,stimulus_MIJA04_Yes-No Task_2019_Jun_17_1252_223,-1,False,2019_Jun_17_1252,Yes-No Task,2,MIJA04,
Yes-No Task,73,0,73,0,4.9,-1,Correct Rejection,0.467105299991,False,-1,stimulus_MIJA04_Yes-No Task_2019_Jun_17_1252_224,-1,False,2019_Jun_17_1252,Yes-No Task,2,MIJA04,
Yes-No Task,74,0,74,0,4.9,-1,False Alarm,0.367262099986,False,-1,stimulus_MIJA04_Yes-No Task_2019_Jun_17_1252_225,-1,False,2019_Jun_17_1252,Yes-No Task,2,MIJA04,
Yes-No Task,0,0,0,0,1,-1,Correct Rejection,0.500862599991,False,-1,stimulus_MIJA04_Yes-No Task_2019_Jun_17_1252_226,-1,False,2019_Jun_17_1252,Yes-No Task,2,MIJA04,
Yes-No Task,1,0,1,0,1,-1,Correct Rejection,0.36741430001,False,-1,stimulus_MIJA04_Yes-No Task_2019_Jun_17_1252_227,-1,False,2019_Jun_17_1252,Yes-No Task,2,MIJA04,
Yes-No Task,2,0,2,0,1,-1,Hit,0.266567499988,True,-1,stimulus_MIJA04_Yes-No Task_2019_Jun_17_1252_228,-1,False,2019_Jun_17_1252,Yes-No Task,2,MIJA04,
Yes-No Task,3,0,3,0,1,-1,Correct Rejection,0.300484800013,False,-1,stimulus_MIJA04_Yes-No Task_2019_Jun_17_1252_229,-1,False,2019_Jun_17_1252,Yes-No Task,2,MIJA04,
Yes-No Task,4,0,4,0,1,-1,Hit,0.267751099978,True,-1,stimulus_MIJA04_Yes-No Task_2019_Jun_17_1252_230,-1,False,2019_Jun_17_1252,Yes-No Task,2,MIJA04,
Yes-No Task,5,0,5,0,1,-1,Correct Rejection,0.300364800001,False,-1,stimulus_MIJA04_Yes-No Task_2019_Jun_17_1252_231,-1,False,2019_Jun_17_1252,Yes-No Task,2,MIJA04,
Yes-No Task,6,0,6,0,1,-1,Miss,0.299200599984,True,-1,stimulus_MIJA04_Yes-No Task_2019_Jun_17_1252_232,-1,False,2019_Jun_17_1252,Yes-No Task,2,MIJA04,
Yes-No Task,7,0,7,0,1,-1,Correct Rejection,0.366110600007,False,-1,stimulus_MIJA04_Yes-No Task_2019_Jun_17_1252_233,-1,False,2019_Jun_17_1252,Yes-No Task,2,MIJA04,
Yes-No Task,8,0,8,0,1,-1,False Alarm,0.265933799994,False,-1,stimulus_MIJA04_Yes-No Task_2019_Jun_17_1252_234,-1,False,2019_Jun_17_1252,Yes-No Task,2,MIJA04,
Yes-No Task,9,0,9,0,1,-1,Miss,0.300882099982,True,-1,stimulus_MIJA04_Yes-No Task_2019_Jun_17_1252_235,-1,False,2019_Jun_17_1252,Yes-No Task,2,MIJA04,
Yes-No Task,10,0,10,0,1,-1,Correct Rejection,0.533207100001,False,-1,stimulus_MIJA04_Yes-No Task_2019_Jun_17_1252_236,-1,False,2019_Jun_17_1252,Yes-No Task,2,MIJA04,
Yes-No Task,11,0,11,0,1,-1,Hit,0.333921900019,True,-1,stimulus_MIJA04_Yes-No Task_2019_Jun_17_1252_237,-1,False,2019_Jun_17_1252,Yes-No Task,2,MIJA04,
Yes-No Task,12,0,12,0,1,-1,False Alarm,0.400674999983,False,-1,stimulus_MIJA04_Yes-No Task_2019_Jun_17_1252_238,-1,False,2019_Jun_17_1252,Yes-No Task,2,MIJA04,
Yes-No Task,13,0,13,0,1,-1,Hit,0.300121599983,True,-1,stimulus_MIJA04_Yes-No Task_2019_Jun_17_1252_239,-1,False,2019_Jun_17_1252,Yes-No Task,2,MIJA04,
Yes-No Task,14,0,14,0,1,-1,Hit,0.299661600002,True,-1,stimulus_MIJA04_Yes-No Task_2019_Jun_17_1252_240,-1,False,2019_Jun_17_1252,Yes-No Task,2,MIJA04,
Yes-No Task,15,0,15,0,1,-1,Hit,0.333804199996,True,-1,stimulus_MIJA04_Yes-No Task_2019_Jun_17_1252_241,-1,False,2019_Jun_17_1252,Yes-No Task,2,MIJA04,
Yes-No Task,16,0,16,0,1,-1,Correct Rejection,0.30024099999,False,-1,stimulus_MIJA04_Yes-No Task_2019_Jun_17_1252_242,-1,False,2019_Jun_17_1252,Yes-No Task,2,MIJA04,
Yes-No Task,17,0,17,0,1,-1,Correct Rejection,0.401944799989,False,-1,stimulus_MIJA04_Yes-No Task_2019_Jun_17_1252_243,-1,False,2019_Jun_17_1252,Yes-No Task,2,MIJA04,
Yes-No Task,18,0,18,0,1,-1,Hit,0.334937200008,True,-1,stimulus_MIJA04_Yes-No Task_2019_Jun_17_1252_244,-1,False,2019_Jun_17_1252,Yes-No Task,2,MIJA04,
Yes-No Task,19,0,19,0,1,-1,False Alarm,0.300360699999,False,-1,stimulus_MIJA04_Yes-No Task_2019_Jun_17_1252_245,-1,False,2019_Jun_17_1252,Yes-No Task,2,MIJA04,
Yes-No Task,20,0,20,0,1,-1,False Alarm,0.267369799985,False,-1,stimulus_MIJA04_Yes-No Task_2019_Jun_17_1252_246,-1,False,2019_Jun_17_1252,Yes-No Task,2,MIJA04,
Yes-No Task,21,0,21,0,1,-1,Miss,0.36735049999,True,-1,stimulus_MIJA04_Yes-No Task_2019_Jun_17_1252_247,-1,False,2019_Jun_17_1252,Yes-No Task,2,MIJA04,
Yes-No Task,22,0,22,0,1,-1,Hit,0.234435199993,True,-1,stimulus_MIJA04_Yes-No Task_2019_Jun_17_1252_248,-1,False,2019_Jun_17_1252,Yes-No Task,2,MIJA04,
Yes-No Task,23,0,23,0,1,-1,Hit,0.234704900009,True,-1,stimulus_MIJA04_Yes-No Task_2019_Jun_17_1252_249,-1,False,2019_Jun_17_1252,Yes-No Task,2,MIJA04,
Yes-No Task,24,0,24,0,1,-1,False Alarm,0.267994499998,False,-1,stimulus_MIJA04_Yes-No Task_2019_Jun_17_1252_250,-1,False,2019_Jun_17_1252,Yes-No Task,2,MIJA04,
Yes-No Task,25,0,25,0,1,-1,Hit,0.167276399996,True,-1,stimulus_MIJA04_Yes-No Task_2019_Jun_17_1252_251,-1,False,2019_Jun_17_1252,Yes-No Task,2,MIJA04,
Yes-No Task,26,0,26,0,1,-1,Miss,0.367270800023,True,-1,stimulus_MIJA04_Yes-No Task_2019_Jun_17_1252_252,-1,False,2019_Jun_17_1252,Yes-No Task,2,MIJA04,
Yes-No Task,27,0,27,0,1,-1,Hit,0.166978499998,True,-1,stimulus_MIJA04_Yes-No Task_2019_Jun_17_1252_253,-1,False,2019_Jun_17_1252,Yes-No Task,2,MIJA04,
Yes-No Task,28,0,28,0,1,-1,Hit,0.299050800008,True,-1,stimulus_MIJA04_Yes-No Task_2019_Jun_17_1252_254,-1,False,2019_Jun_17_1252,Yes-No Task,2,MIJA04,
Yes-No Task,29,0,29,0,1,-1,False Alarm,0.233032000018,False,-1,stimulus_MIJA04_Yes-No Task_2019_Jun_17_1252_255,-1,False,2019_Jun_17_1252,Yes-No Task,2,MIJA04,
Yes-No Task,30,0,30,0,1,-1,Hit,0.26735770001,True,-1,stimulus_MIJA04_Yes-No Task_2019_Jun_17_1252_256,-1,False,2019_Jun_17_1252,Yes-No Task,2,MIJA04,
Yes-No Task,31,0,31,0,1,-1,Hit,0.268200200022,True,-1,stimulus_MIJA04_Yes-No Task_2019_Jun_17_1252_257,-1,False,2019_Jun_17_1252,Yes-No Task,2,MIJA04,
Yes-No Task,32,0,32,0,1,-1,Hit,0.299885299988,True,-1,stimulus_MIJA04_Yes-No Task_2019_Jun_17_1252_258,-1,False,2019_Jun_17_1252,Yes-No Task,2,MIJA04,
Yes-No Task,33,0,33,0,1,-1,Hit,0.267049999995,True,-1,stimulus_MIJA04_Yes-No Task_2019_Jun_17_1252_259,-1,False,2019_Jun_17_1252,Yes-No Task,2,MIJA04,
Yes-No Task,34,0,34,0,1,-1,Correct Rejection,0.199435699993,False,-1,stimulus_MIJA04_Yes-No Task_2019_Jun_17_1252_260,-1,False,2019_Jun_17_1252,Yes-No Task,2,MIJA04,
Yes-No Task,35,0,35,0,1,-1,Miss,0.267097299977,True,-1,stimulus_MIJA04_Yes-No Task_2019_Jun_17_1252_261,-1,False,2019_Jun_17_1252,Yes-No Task,2,MIJA04,
Yes-No Task,36,0,36,0,1,-1,Miss,0.297922599973,True,-1,stimulus_MIJA04_Yes-No Task_2019_Jun_17_1252_262,-1,False,2019_Jun_17_1252,Yes-No Task,2,MIJA04,
Yes-No Task,37,0,37,0,1,-1,False Alarm,0.20023799999,False,-1,stimulus_MIJA04_Yes-No Task_2019_Jun_17_1252_263,-1,False,2019_Jun_17_1252,Yes-No Task,2,MIJA04,
Yes-No Task,38,0,38,0,1,-1,False Alarm,0.268388099998,False,-1,stimulus_MIJA04_Yes-No Task_2019_Jun_17_1252_264,-1,False,2019_Jun_17_1252,Yes-No Task,2,MIJA04,
Yes-No Task,39,0,39,0,1,-1,Hit,0.434274400002,True,-1,stimulus_MIJA04_Yes-No Task_2019_Jun_17_1252_265,-1,False,2019_Jun_17_1252,Yes-No Task,2,MIJA04,
Yes-No Task,40,0,40,0,1,-1,False Alarm,0.333782099973,False,-1,stimulus_MIJA04_Yes-No Task_2019_Jun_17_1252_266,-1,False,2019_Jun_17_1252,Yes-No Task,2,MIJA04,
Yes-No Task,41,0,41,0,1,-1,Miss,0.363754099992,True,-1,stimulus_MIJA04_Yes-No Task_2019_Jun_17_1252_267,-1,False,2019_Jun_17_1252,Yes-No Task,2,MIJA04,
Yes-No Task,42,0,42,0,1,-1,False Alarm,0.467142499983,False,-1,stimulus_MIJA04_Yes-No Task_2019_Jun_17_1252_268,-1,False,2019_Jun_17_1252,Yes-No Task,2,MIJA04,
Yes-No Task,43,0,43,0,1,-1,False Alarm,0.166939499992,False,-1,stimulus_MIJA04_Yes-No Task_2019_Jun_17_1252_269,-1,False,2019_Jun_17_1252,Yes-No Task,2,MIJA04,
Yes-No Task,44,0,44,0,1,-1,False Alarm,0.333698200004,False,-1,stimulus_MIJA04_Yes-No Task_2019_Jun_17_1252_270,-1,False,2019_Jun_17_1252,Yes-No Task,2,MIJA04,
Yes-No Task,45,0,45,0,1,-1,Hit,0.600305100001,True,-1,stimulus_MIJA04_Yes-No Task_2019_Jun_17_1252_271,-1,False,2019_Jun_17_1252,Yes-No Task,2,MIJA04,
Yes-No Task,46,0,46,0,1,-1,Hit,0.466341099993,True,-1,stimulus_MIJA04_Yes-No Task_2019_Jun_17_1252_272,-1,False,2019_Jun_17_1252,Yes-No Task,2,MIJA04,
Yes-No Task,47,0,47,0,1,-1,Correct Rejection,0.500696300005,False,-1,stimulus_MIJA04_Yes-No Task_2019_Jun_17_1252_273,-1,False,2019_Jun_17_1252,Yes-No Task,2,MIJA04,
Yes-No Task,48,0,48,0,1,-1,False Alarm,0.6341121,False,-1,stimulus_MIJA04_Yes-No Task_2019_Jun_17_1252_274,-1,False,2019_Jun_17_1252,Yes-No Task,2,MIJA04,
Yes-No Task,49,0,49,0,1,-1,False Alarm,0.599855900015,False,-1,stimulus_MIJA04_Yes-No Task_2019_Jun_17_1252_275,-1,False,2019_Jun_17_1252,Yes-No Task,2,MIJA04,
Yes-No Task,50,0,50,0,1,-1,False Alarm,0.567568500002,False,-1,stimulus_MIJA04_Yes-No Task_2019_Jun_17_1252_276,-1,False,2019_Jun_17_1252,Yes-No Task,2,MIJA04,
Yes-No Task,51,0,51,0,1,-1,False Alarm,0.768592100008,False,-1,stimulus_MIJA04_Yes-No Task_2019_Jun_17_1252_277,-1,False,2019_Jun_17_1252,Yes-No Task,2,MIJA04,
Yes-No Task,52,0,52,0,1,-1,No Answer,-1,False,-1,stimulus_MIJA04_Yes-No Task_2019_Jun_17_1252_278,-1,False,2019_Jun_17_1252,Yes-No Task,2,MIJA04,
Yes-No Task,53,0,53,0,1,-1,No Answer,-1,True,-1,stimulus_MIJA04_Yes-No Task_2019_Jun_17_1252_279,-1,False,2019_Jun_17_1252,Yes-No Task,2,MIJA04,
Yes-No Task,54,0,54,0,1,-1,Miss,0.400521899981,True,-1,stimulus_MIJA04_Yes-No Task_2019_Jun_17_1252_280,-1,False,2019_Jun_17_1252,Yes-No Task,2,MIJA04,
Yes-No Task,55,0,55,0,1,-1,Miss,0.466585899994,True,-1,stimulus_MIJA04_Yes-No Task_2019_Jun_17_1252_281,-1,False,2019_Jun_17_1252,Yes-No Task,2,MIJA04,
Yes-No Task,56,0,56,0,1,-1,Hit,0.46680200001,True,-1,stimulus_MIJA04_Yes-No Task_2019_Jun_17_1252_282,-1,False,2019_Jun_17_1252,Yes-No Task,2,MIJA04,
Yes-No Task,57,0,57,0,1,-1,False Alarm,0.400324199989,False,-1,stimulus_MIJA04_Yes-No Task_2019_Jun_17_1252_283,-1,False,2019_Jun_17_1252,Yes-No Task,2,MIJA04,
Yes-No Task,58,0,58,0,1,-1,Hit,0.267407600011,True,-1,stimulus_MIJA04_Yes-No Task_2019_Jun_17_1252_284,-1,False,2019_Jun_17_1252,Yes-No Task,2,MIJA04,
Yes-No Task,59,0,59,0,1,-1,Hit,0.299700600008,True,-1,stimulus_MIJA04_Yes-No Task_2019_Jun_17_1252_285,-1,False,2019_Jun_17_1252,Yes-No Task,2,MIJA04,
Yes-No Task,60,0,60,0,1,-1,Hit,0.200538899982,True,-1,stimulus_MIJA04_Yes-No Task_2019_Jun_17_1252_286,-1,False,2019_Jun_17_1252,Yes-No Task,2,MIJA04,
Yes-No Task,61,0,61,0,1,-1,Hit,0.200184199988,True,-1,stimulus_MIJA04_Yes-No Task_2019_Jun_17_1252_287,-1,False,2019_Jun_17_1252,Yes-No Task,2,MIJA04,
Yes-No Task,62,0,62,0,1,-1,Hit,0.200214499986,True,-1,stimulus_MIJA04_Yes-No Task_2019_Jun_17_1252_288,-1,False,2019_Jun_17_1252,Yes-No Task,2,MIJA04,
Yes-No Task,63,0,63,0,1,-1,False Alarm,0.133961299987,False,-1,stimulus_MIJA04_Yes-No Task_2019_Jun_17_1252_289,-1,False,2019_Jun_17_1252,Yes-No Task,2,MIJA04,
Yes-No Task,64,0,64,0,1,-1,Miss,0.235253000021,True,-1,stimulus_MIJA04_Yes-No Task_2019_Jun_17_1252_290,-1,False,2019_Jun_17_1252,Yes-No Task,2,MIJA04,
Yes-No Task,65,0,65,0,1,-1,False Alarm,0.400208900013,False,-1,stimulus_MIJA04_Yes-No Task_2019_Jun_17_1252_291,-1,False,2019_Jun_17_1252,Yes-No Task,2,MIJA04,
Yes-No Task,66,0,66,0,1,-1,False Alarm,0.767151799984,False,-1,stimulus_MIJA04_Yes-No Task_2019_Jun_17_1252_292,-1,False,2019_Jun_17_1252,Yes-No Task,2,MIJA04,
Yes-No Task,67,0,67,0,1,-1,Miss,0.231680700002,True,-1,stimulus_MIJA04_Yes-No Task_2019_Jun_17_1252_293,-1,False,2019_Jun_17_1252,Yes-No Task,2,MIJA04,
Yes-No Task,68,0,68,0,1,-1,Miss,0.633778399992,True,-1,stimulus_MIJA04_Yes-No Task_2019_Jun_17_1252_294,-1,False,2019_Jun_17_1252,Yes-No Task,2,MIJA04,
Yes-No Task,69,0,69,0,1,-1,False Alarm,0.633860899979,False,-1,stimulus_MIJA04_Yes-No Task_2019_Jun_17_1252_295,-1,False,2019_Jun_17_1252,Yes-No Task,2,MIJA04,
Yes-No Task,70,0,70,0,1,-1,Miss,0.534029900009,True,-1,stimulus_MIJA04_Yes-No Task_2019_Jun_17_1252_296,-1,False,2019_Jun_17_1252,Yes-No Task,2,MIJA04,
Yes-No Task,71,0,71,0,1,-1,False Alarm,0.367483400012,False,-1,stimulus_MIJA04_Yes-No Task_2019_Jun_17_1252_297,-1,False,2019_Jun_17_1252,Yes-No Task,2,MIJA04,
Yes-No Task,72,0,72,0,1,-1,False Alarm,0.333777099993,False,-1,stimulus_MIJA04_Yes-No Task_2019_Jun_17_1252_298,-1,False,2019_Jun_17_1252,Yes-No Task,2,MIJA04,
Yes-No Task,73,0,73,0,1,-1,False Alarm,0.400629100011,False,-1,stimulus_MIJA04_Yes-No Task_2019_Jun_17_1252_299,-1,False,2019_Jun_17_1252,Yes-No Task,2,MIJA04,
Yes-No Task,74,0,74,0,1,-1,Miss,0.634089600004,True,-1,stimulus_MIJA04_Yes-No Task_2019_Jun_17_1252_300,-1,False,2019_Jun_17_1252,Yes-No Task,2,MIJA04,
Yes-No Task,0,0,0,0,1.7,-1,Correct Rejection,0.667207499995,False,-1,stimulus_MIJA04_Yes-No Task_2019_Jun_17_1252_301,-1,False,2019_Jun_17_1252,Yes-No Task,2,MIJA04,
Yes-No Task,1,0,1,0,1.7,-1,Correct Rejection,0.432200899988,False,-1,stimulus_MIJA04_Yes-No Task_2019_Jun_17_1252_302,-1,False,2019_Jun_17_1252,Yes-No Task,2,MIJA04,
Yes-No Task,2,0,2,0,1.7,-1,False Alarm,0.267919300008,False,-1,stimulus_MIJA04_Yes-No Task_2019_Jun_17_1252_303,-1,False,2019_Jun_17_1252,Yes-No Task,2,MIJA04,
Yes-No Task,3,0,3,0,1.7,-1,Hit,0.500504299998,True,-1,stimulus_MIJA04_Yes-No Task_2019_Jun_17_1252_304,-1,False,2019_Jun_17_1252,Yes-No Task,2,MIJA04,
Yes-No Task,4,0,4,0,1.7,-1,Correct Rejection,0.299920200021,False,-1,stimulus_MIJA04_Yes-No Task_2019_Jun_17_1252_305,-1,False,2019_Jun_17_1252,Yes-No Task,2,MIJA04,
Yes-No Task,5,0,5,0,1.7,-1,False Alarm,0.300228699984,False,-1,stimulus_MIJA04_Yes-No Task_2019_Jun_17_1252_306,-1,False,2019_Jun_17_1252,Yes-No Task,2,MIJA04,
Yes-No Task,6,0,6,0,1.7,-1,Hit,0.567593200016,True,-1,stimulus_MIJA04_Yes-No Task_2019_Jun_17_1252_307,-1,False,2019_Jun_17_1252,Yes-No Task,2,MIJA04,
Yes-No Task,7,0,7,0,1.7,-1,Correct Rejection,0.301290300005,False,-1,stimulus_MIJA04_Yes-No Task_2019_Jun_17_1252_308,-1,False,2019_Jun_17_1252,Yes-No Task,2,MIJA04,
Yes-No Task,8,0,8,0,1.7,-1,Hit,0.266885300021,True,-1,stimulus_MIJA04_Yes-No Task_2019_Jun_17_1252_309,-1,False,2019_Jun_17_1252,Yes-No Task,2,MIJA04,
Yes-No Task,9,0,9,0,1.7,-1,False Alarm,0.267094099981,False,-1,stimulus_MIJA04_Yes-No Task_2019_Jun_17_1252_310,-1,False,2019_Jun_17_1252,Yes-No Task,2,MIJA04,
Yes-No Task,10,0,10,0,1.7,-1,False Alarm,0.233132700028,False,-1,stimulus_MIJA04_Yes-No Task_2019_Jun_17_1252_311,-1,False,2019_Jun_17_1252,Yes-No Task,2,MIJA04,
Yes-No Task,11,0,11,0,1.7,-1,Hit,0.599248499988,True,-1,stimulus_MIJA04_Yes-No Task_2019_Jun_17_1252_312,-1,False,2019_Jun_17_1252,Yes-No Task,2,MIJA04,
Yes-No Task,12,0,12,0,1.7,-1,False Alarm,0.467208899994,False,-1,stimulus_MIJA04_Yes-No Task_2019_Jun_17_1252_313,-1,False,2019_Jun_17_1252,Yes-No Task,2,MIJA04,
Yes-No Task,13,0,13,0,1.7,-1,False Alarm,0.434039899992,False,-1,stimulus_MIJA04_Yes-No Task_2019_Jun_17_1252_314,-1,False,2019_Jun_17_1252,Yes-No Task,2,MIJA04,
Yes-No Task,14,0,14,0,1.7,-1,Correct Rejection,0.500632399984,False,-1,stimulus_MIJA04_Yes-No Task_2019_Jun_17_1252_315,-1,False,2019_Jun_17_1252,Yes-No Task,2,MIJA04,
Yes-No Task,15,0,15,0,1.7,-1,Hit,0.434780199983,True,-1,stimulus_MIJA04_Yes-No Task_2019_Jun_17_1252_316,-1,False,2019_Jun_17_1252,Yes-No Task,2,MIJA04,
Yes-No Task,16,0,16,0,1.7,-1,Correct Rejection,0.500696800009,False,-1,stimulus_MIJA04_Yes-No Task_2019_Jun_17_1252_317,-1,False,2019_Jun_17_1252,Yes-No Task,2,MIJA04,
Yes-No Task,17,0,17,0,1.7,-1,Miss,0.467234000011,True,-1,stimulus_MIJA04_Yes-No Task_2019_Jun_17_1252_318,-1,False,2019_Jun_17_1252,Yes-No Task,2,MIJA04,
Yes-No Task,18,0,18,0,1.7,-1,Miss,0.267001100001,True,-1,stimulus_MIJA04_Yes-No Task_2019_Jun_17_1252_319,-1,False,2019_Jun_17_1252,Yes-No Task,2,MIJA04,
Yes-No Task,19,0,19,0,1.7,-1,False Alarm,0.333495300001,False,-1,stimulus_MIJA04_Yes-No Task_2019_Jun_17_1252_320,-1,False,2019_Jun_17_1252,Yes-No Task,2,MIJA04,
Yes-No Task,20,0,20,0,1.7,-1,Miss,0.40064800001,True,-1,stimulus_MIJA04_Yes-No Task_2019_Jun_17_1252_321,-1,False,2019_Jun_17_1252,Yes-No Task,2,MIJA04,
Yes-No Task,21,0,21,0,1.7,-1,False Alarm,0.533541500015,False,-1,stimulus_MIJA04_Yes-No Task_2019_Jun_17_1252_322,-1,False,2019_Jun_17_1252,Yes-No Task,2,MIJA04,
Yes-No Task,22,0,22,0,1.7,-1,Hit,0.36798760001,True,-1,stimulus_MIJA04_Yes-No Task_2019_Jun_17_1252_323,-1,False,2019_Jun_17_1252,Yes-No Task,2,MIJA04,
Yes-No Task,23,0,23,0,1.7,-1,False Alarm,0.467629099992,False,-1,stimulus_MIJA04_Yes-No Task_2019_Jun_17_1252_324,-1,False,2019_Jun_17_1252,Yes-No Task,2,MIJA04,
Yes-No Task,24,0,24,0,1.7,-1,Correct Rejection,0.201098599995,False,-1,stimulus_MIJA04_Yes-No Task_2019_Jun_17_1252_325,-1,False,2019_Jun_17_1252,Yes-No Task,2,MIJA04,
Yes-No Task,25,0,25,0,1.7,-1,Miss,0.367872500006,True,-1,stimulus_MIJA04_Yes-No Task_2019_Jun_17_1252_326,-1,False,2019_Jun_17_1252,Yes-No Task,2,MIJA04,
Yes-No Task,26,0,26,0,1.7,-1,False Alarm,0.200566899992,False,-1,stimulus_MIJA04_Yes-No Task_2019_Jun_17_1252_327,-1,False,2019_Jun_17_1252,Yes-No Task,2,MIJA04,
Yes-No Task,27,0,27,0,1.7,-1,Correct Rejection,0.402423899999,False,-1,stimulus_MIJA04_Yes-No Task_2019_Jun_17_1252_328,-1,False,2019_Jun_17_1252,Yes-No Task,2,MIJA04,
Yes-No Task,28,0,28,0,1.7,-1,Miss,0.36750979998,True,-1,stimulus_MIJA04_Yes-No Task_2019_Jun_17_1252_329,-1,False,2019_Jun_17_1252,Yes-No Task,2,MIJA04,
Yes-No Task,29,0,29,0,1.7,-1,False Alarm,0.399815899989,False,-1,stimulus_MIJA04_Yes-No Task_2019_Jun_17_1252_330,-1,False,2019_Jun_17_1252,Yes-No Task,2,MIJA04,
Yes-No Task,30,0,30,0,1.7,-1,Correct Rejection,0.467451700009,False,-1,stimulus_MIJA04_Yes-No Task_2019_Jun_17_1252_331,-1,False,2019_Jun_17_1252,Yes-No Task,2,MIJA04,
Yes-No Task,31,0,31,0,1.7,-1,False Alarm,0.533871299995,False,-1,stimulus_MIJA04_Yes-No Task_2019_Jun_17_1252_332,-1,False,2019_Jun_17_1252,Yes-No Task,2,MIJA04,
Yes-No Task,32,0,32,0,1.7,-1,Correct Rejection,0.4682875,False,-1,stimulus_MIJA04_Yes-No Task_2019_Jun_17_1252_333,-1,False,2019_Jun_17_1252,Yes-No Task,2,MIJA04,
Yes-No Task,33,0,33,0,1.7,-1,Correct Rejection,0.400393199991,False,-1,stimulus_MIJA04_Yes-No Task_2019_Jun_17_1252_334,-1,False,2019_Jun_17_1252,Yes-No Task,2,MIJA04,
Yes-No Task,34,0,34,0,1.7,-1,Correct Rejection,0.167055500002,False,-1,stimulus_MIJA04_Yes-No Task_2019_Jun_17_1252_335,-1,False,2019_Jun_17_1252,Yes-No Task,2,MIJA04,
Yes-No Task,35,0,35,0,1.7,-1,Correct Rejection,0.267430100008,False,-1,stimulus_MIJA04_Yes-No Task_2019_Jun_17_1252_336,-1,False,2019_Jun_17_1252,Yes-No Task,2,MIJA04,
Yes-No Task,36,0,36,0,1.7,-1,Miss,0.267574900005,True,-1,stimulus_MIJA04_Yes-No Task_2019_Jun_17_1252_337,-1,False,2019_Jun_17_1252,Yes-No Task,2,MIJA04,
Yes-No Task,37,0,37,0,1.7,-1,Correct Rejection,0.702166899981,False,-1,stimulus_MIJA04_Yes-No Task_2019_Jun_17_1252_338,-1,False,2019_Jun_17_1252,Yes-No Task,2,MIJA04,
Yes-No Task,38,0,38,0,1.7,-1,Miss,0.300396800012,True,-1,stimulus_MIJA04_Yes-No Task_2019_Jun_17_1252_339,-1,False,2019_Jun_17_1252,Yes-No Task,2,MIJA04,
Yes-No Task,39,0,39,0,1.7,-1,False Alarm,0.300825100014,False,-1,stimulus_MIJA04_Yes-No Task_2019_Jun_17_1252_340,-1,False,2019_Jun_17_1252,Yes-No Task,2,MIJA04,
Yes-No Task,40,0,40,0,1.7,-1,Miss,0.401538999984,True,-1,stimulus_MIJA04_Yes-No Task_2019_Jun_17_1252_341,-1,False,2019_Jun_17_1252,Yes-No Task,2,MIJA04,
Yes-No Task,41,0,41,0,1.7,-1,Correct Rejection,0.500492399995,False,-1,stimulus_MIJA04_Yes-No Task_2019_Jun_17_1252_342,-1,False,2019_Jun_17_1252,Yes-No Task,2,MIJA04,
Yes-No Task,42,0,42,0,1.7,-1,Correct Rejection,0.400650199997,False,-1,stimulus_MIJA04_Yes-No Task_2019_Jun_17_1252_343,-1,False,2019_Jun_17_1252,Yes-No Task,2,MIJA04,
Yes-No Task,43,0,43,0,1.7,-1,Hit,0.199408300017,True,-1,stimulus_MIJA04_Yes-No Task_2019_Jun_17_1252_344,-1,False,2019_Jun_17_1252,Yes-No Task,2,MIJA04,
Yes-No Task,44,0,44,0,1.7,-1,Hit,0.232677199994,True,-1,stimulus_MIJA04_Yes-No Task_2019_Jun_17_1252_345,-1,False,2019_Jun_17_1252,Yes-No Task,2,MIJA04,
Yes-No Task,45,0,45,0,1.7,-1,Correct Rejection,0.400484800019,False,-1,stimulus_MIJA04_Yes-No Task_2019_Jun_17_1252_346,-1,False,2019_Jun_17_1252,Yes-No Task,2,MIJA04,
Yes-No Task,46,0,46,0,1.7,-1,Miss,0.266037199995,True,-1,stimulus_MIJA04_Yes-No Task_2019_Jun_17_1252_347,-1,False,2019_Jun_17_1252,Yes-No Task,2,MIJA04,
Yes-No Task,47,0,47,0,1.7,-1,Miss,0.266099800006,True,-1,stimulus_MIJA04_Yes-No Task_2019_Jun_17_1252_348,-1,False,2019_Jun_17_1252,Yes-No Task,2,MIJA04,
Yes-No Task,48,0,48,0,1.7,-1,False Alarm,0.300563299999,False,-1,stimulus_MIJA04_Yes-No Task_2019_Jun_17_1252_349,-1,False,2019_Jun_17_1252,Yes-No Task,2,MIJA04,
Yes-No Task,49,0,49,0,1.7,-1,False Alarm,0.132736300002,False,-1,stimulus_MIJA04_Yes-No Task_2019_Jun_17_1252_350,-1,False,2019_Jun_17_1252,Yes-No Task,2,MIJA04,
Yes-No Task,50,0,50,0,1.7,-1,Correct Rejection,0.300160500017,False,-1,stimulus_MIJA04_Yes-No Task_2019_Jun_17_1252_351,-1,False,2019_Jun_17_1252,Yes-No Task,2,MIJA04,
Yes-No Task,51,0,51,0,1.7,-1,Miss,0.334024599986,True,-1,stimulus_MIJA04_Yes-No Task_2019_Jun_17_1252_352,-1,False,2019_Jun_17_1252,Yes-No Task,2,MIJA04,
Yes-No Task,52,0,52,0,1.7,-1,Hit,0.367119800008,True,-1,stimulus_MIJA04_Yes-No Task_2019_Jun_17_1252_353,-1,False,2019_Jun_17_1252,Yes-No Task,2,MIJA04,
Yes-No Task,53,0,53,0,1.7,-1,Miss,0.236425899988,True,-1,stimulus_MIJA04_Yes-No Task_2019_Jun_17_1252_354,-1,False,2019_Jun_17_1252,Yes-No Task,2,MIJA04,
Yes-No Task,54,0,54,0,1.7,-1,False Alarm,0.333877199999,False,-1,stimulus_MIJA04_Yes-No Task_2019_Jun_17_1252_355,-1,False,2019_Jun_17_1252,Yes-No Task,2,MIJA04,
Yes-No Task,55,0,55,0,1.7,-1,False Alarm,0.535034400003,False,-1,stimulus_MIJA04_Yes-No Task_2019_Jun_17_1252_356,-1,False,2019_Jun_17_1252,Yes-No Task,2,MIJA04,
Yes-No Task,56,0,56,0,1.7,-1,Hit,0.200301900011,True,-1,stimulus_MIJA04_Yes-No Task_2019_Jun_17_1252_357,-1,False,2019_Jun_17_1252,Yes-No Task,2,MIJA04,
Yes-No Task,57,0,57,0,1.7,-1,False Alarm,0.368002499978,False,-1,stimulus_MIJA04_Yes-No Task_2019_Jun_17_1252_358,-1,False,2019_Jun_17_1252,Yes-No Task,2,MIJA04,
Yes-No Task,58,0,58,0,1.7,-1,Miss,0.300498800003,True,-1,stimulus_MIJA04_Yes-No Task_2019_Jun_17_1252_359,-1,False,2019_Jun_17_1252,Yes-No Task,2,MIJA04,
Yes-No Task,59,0,59,0,1.7,-1,Correct Rejection,0.53382099999,False,-1,stimulus_MIJA04_Yes-No Task_2019_Jun_17_1252_360,-1,False,2019_Jun_17_1252,Yes-No Task,2,MIJA04,
Yes-No Task,60,0,60,0,1.7,-1,Correct Rejection,0.5013416,False,-1,stimulus_MIJA04_Yes-No Task_2019_Jun_17_1252_361,-1,False,2019_Jun_17_1252,Yes-No Task,2,MIJA04,
Yes-No Task,61,0,61,0,1.7,-1,Correct Rejection,0.367421999981,False,-1,stimulus_MIJA04_Yes-No Task_2019_Jun_17_1252_362,-1,False,2019_Jun_17_1252,Yes-No Task,2,MIJA04,
Yes-No Task,62,0,62,0,1.7,-1,Correct Rejection,0.334905900003,False,-1,stimulus_MIJA04_Yes-No Task_2019_Jun_17_1252_363,-1,False,2019_Jun_17_1252,Yes-No Task,2,MIJA04,
Yes-No Task,63,0,63,0,1.7,-1,Correct Rejection,0.266907300014,False,-1,stimulus_MIJA04_Yes-No Task_2019_Jun_17_1252_364,-1,False,2019_Jun_17_1252,Yes-No Task,2,MIJA04,
Yes-No Task,64,0,64,0,1.7,-1,False Alarm,0.168829100003,False,-1,stimulus_MIJA04_Yes-No Task_2019_Jun_17_1252_365,-1,False,2019_Jun_17_1252,Yes-No Task,2,MIJA04,
Yes-No Task,65,0,65,0,1.7,-1,Correct Rejection,0.333700000017,False,-1,stimulus_MIJA04_Yes-No Task_2019_Jun_17_1252_366,-1,False,2019_Jun_17_1252,Yes-No Task,2,MIJA04,
Yes-No Task,66,0,66,0,1.7,-1,Miss,0.29938479999,True,-1,stimulus_MIJA04_Yes-No Task_2019_Jun_17_1252_367,-1,False,2019_Jun_17_1252,Yes-No Task,2,MIJA04,
Yes-No Task,67,0,67,0,1.7,-1,False Alarm,0.133903899987,False,-1,stimulus_MIJA04_Yes-No Task_2019_Jun_17_1252_368,-1,False,2019_Jun_17_1252,Yes-No Task,2,MIJA04,
Yes-No Task,68,0,68,0,1.7,-1,Correct Rejection,0.467153400008,False,-1,stimulus_MIJA04_Yes-No Task_2019_Jun_17_1252_369,-1,False,2019_Jun_17_1252,Yes-No Task,2,MIJA04,
Yes-No Task,69,0,69,0,1.7,-1,False Alarm,0.433847800014,False,-1,stimulus_MIJA04_Yes-No Task_2019_Jun_17_1252_370,-1,False,2019_Jun_17_1252,Yes-No Task,2,MIJA04,
Yes-No Task,70,0,70,0,1.7,-1,Hit,0.333140400006,True,-1,stimulus_MIJA04_Yes-No Task_2019_Jun_17_1252_371,-1,False,2019_Jun_17_1252,Yes-No Task,2,MIJA04,
Yes-No Task,71,0,71,0,1.7,-1,False Alarm,0.366697599995,False,-1,stimulus_MIJA04_Yes-No Task_2019_Jun_17_1252_372,-1,False,2019_Jun_17_1252,Yes-No Task,2,MIJA04,
Yes-No Task,72,0,72,0,1.7,-1,Correct Rejection,0.300930600002,False,-1,stimulus_MIJA04_Yes-No Task_2019_Jun_17_1252_373,-1,False,2019_Jun_17_1252,Yes-No Task,2,MIJA04,
Yes-No Task,73,0,73,0,1.7,-1,Hit,0.301027600013,True,-1,stimulus_MIJA04_Yes-No Task_2019_Jun_17_1252_374,-1,False,2019_Jun_17_1252,Yes-No Task,2,MIJA04,
Yes-No Task,74,0,74,0,1.7,-1,False Alarm,0.233850300021,False,-1,stimulus_MIJA04_Yes-No Task_2019_Jun_17_1252_375,-1,False,2019_Jun_17_1252,Yes-No Task,2,MIJA04,
Yes-No Task,0,0,0,0,8,-1,Correct Rejection,0.697438800009,False,-1,stimulus_MIJA04_Yes-No Task_2019_Jun_17_1252_376,-1,False,2019_Jun_17_1252,Yes-No Task,2,MIJA04,
Yes-No Task,1,0,1,0,8,-1,False Alarm,0.433869400003,False,-1,stimulus_MIJA04_Yes-No Task_2019_Jun_17_1252_377,-1,False,2019_Jun_17_1252,Yes-No Task,2,MIJA04,
Yes-No Task,2,0,2,0,8,-1,False Alarm,0.468327400013,False,-1,stimulus_MIJA04_Yes-No Task_2019_Jun_17_1252_378,-1,False,2019_Jun_17_1252,Yes-No Task,2,MIJA04,
Yes-No Task,3,0,3,0,8,-1,Hit,0.468037400016,True,-1,stimulus_MIJA04_Yes-No Task_2019_Jun_17_1252_379,-1,False,2019_Jun_17_1252,Yes-No Task,2,MIJA04,
Yes-No Task,4,0,4,0,8,-1,Correct Rejection,0.300511700014,False,-1,stimulus_MIJA04_Yes-No Task_2019_Jun_17_1252_380,-1,False,2019_Jun_17_1252,Yes-No Task,2,MIJA04,
Yes-No Task,5,0,5,0,8,-1,Correct Rejection,0.368261299998,False,-1,stimulus_MIJA04_Yes-No Task_2019_Jun_17_1252_381,-1,False,2019_Jun_17_1252,Yes-No Task,2,MIJA04,
Yes-No Task,6,0,6,0,8,-1,Correct Rejection,0.500674999988,False,-1,stimulus_MIJA04_Yes-No Task_2019_Jun_17_1252_382,-1,False,2019_Jun_17_1252,Yes-No Task,2,MIJA04,
Yes-No Task,7,0,7,0,8,-1,Hit,0.367203200003,True,-1,stimulus_MIJA04_Yes-No Task_2019_Jun_17_1252_383,-1,False,2019_Jun_17_1252,Yes-No Task,2,MIJA04,
Yes-No Task,8,0,8,0,8,-1,Correct Rejection,0.400782200013,False,-1,stimulus_MIJA04_Yes-No Task_2019_Jun_17_1252_384,-1,False,2019_Jun_17_1252,Yes-No Task,2,MIJA04,
Yes-No Task,9,0,9,0,8,-1,Hit,0.200489700015,True,-1,stimulus_MIJA04_Yes-No Task_2019_Jun_17_1252_385,-1,False,2019_Jun_17_1252,Yes-No Task,2,MIJA04,
Yes-No Task,10,0,10,0,8,-1,Hit,0.400602700014,True,-1,stimulus_MIJA04_Yes-No Task_2019_Jun_17_1252_386,-1,False,2019_Jun_17_1252,Yes-No Task,2,MIJA04,
Yes-No Task,11,0,11,0,8,-1,Miss,0.367174499988,True,-1,stimulus_MIJA04_Yes-No Task_2019_Jun_17_1252_387,-1,False,2019_Jun_17_1252,Yes-No Task,2,MIJA04,
Yes-No Task,12,0,12,0,8,-1,Hit,0.467587699997,True,-1,stimulus_MIJA04_Yes-No Task_2019_Jun_17_1252_388,-1,False,2019_Jun_17_1252,Yes-No Task,2,MIJA04,
Yes-No Task,13,0,13,0,8,-1,Hit,0.434311499994,True,-1,stimulus_MIJA04_Yes-No Task_2019_Jun_17_1252_389,-1,False,2019_Jun_17_1252,Yes-No Task,2,MIJA04,
Yes-No Task,14,0,14,0,8,-1,Hit,0.366429899994,True,-1,stimulus_MIJA04_Yes-No Task_2019_Jun_17_1252_390,-1,False,2019_Jun_17_1252,Yes-No Task,2,MIJA04,
Yes-No Task,15,0,15,0,8,-1,Hit,0.367177799984,True,-1,stimulus_MIJA04_Yes-No Task_2019_Jun_17_1252_391,-1,False,2019_Jun_17_1252,Yes-No Task,2,MIJA04,
Yes-No Task,16,0,16,0,8,-1,Hit,0.533628200006,True,-1,stimulus_MIJA04_Yes-No Task_2019_Jun_17_1252_392,-1,False,2019_Jun_17_1252,Yes-No Task,2,MIJA04,
Yes-No Task,17,0,17,0,8,-1,Correct Rejection,0.433614799986,False,-1,stimulus_MIJA04_Yes-No Task_2019_Jun_17_1252_393,-1,False,2019_Jun_17_1252,Yes-No Task,2,MIJA04,
Yes-No Task,18,0,18,0,8,-1,Correct Rejection,0.433973700012,False,-1,stimulus_MIJA04_Yes-No Task_2019_Jun_17_1252_394,-1,False,2019_Jun_17_1252,Yes-No Task,2,MIJA04,
Yes-No Task,19,0,19,0,8,-1,False Alarm,0.434650899988,False,-1,stimulus_MIJA04_Yes-No Task_2019_Jun_17_1252_395,-1,False,2019_Jun_17_1252,Yes-No Task,2,MIJA04,
Yes-No Task,20,0,20,0,8,-1,Correct Rejection,0.567321199982,False,-1,stimulus_MIJA04_Yes-No Task_2019_Jun_17_1252_396,-1,False,2019_Jun_17_1252,Yes-No Task,2,MIJA04,
Yes-No Task,21,0,21,0,8,-1,Hit,0.500186499994,True,-1,stimulus_MIJA04_Yes-No Task_2019_Jun_17_1252_397,-1,False,2019_Jun_17_1252,Yes-No Task,2,MIJA04,
Yes-No Task,22,0,22,0,8,-1,False Alarm,0.534027899994,False,-1,stimulus_MIJA04_Yes-No Task_2019_Jun_17_1252_398,-1,False,2019_Jun_17_1252,Yes-No Task,2,MIJA04,
Yes-No Task,23,0,23,0,8,-1,False Alarm,0.66728210001,False,-1,stimulus_MIJA04_Yes-No Task_2019_Jun_17_1252_399,-1,False,2019_Jun_17_1252,Yes-No Task,2,MIJA04,
Yes-No Task,24,0,24,0,8,-1,Hit,0.36714300001,True,-1,stimulus_MIJA04_Yes-No Task_2019_Jun_17_1252_400,-1,False,2019_Jun_17_1252,Yes-No Task,2,MIJA04,
Yes-No Task,25,0,25,0,8,-1,Correct Rejection,0.533890399995,False,-1,stimulus_MIJA04_Yes-No Task_2019_Jun_17_1252_401,-1,False,2019_Jun_17_1252,Yes-No Task,2,MIJA04,
Yes-No Task,26,0,26,0,8,-1,Hit,0.500239299989,True,-1,stimulus_MIJA04_Yes-No Task_2019_Jun_17_1252_402,-1,False,2019_Jun_17_1252,Yes-No Task,2,MIJA04,
Yes-No Task,27,0,27,0,8,-1,Hit,0.398181099998,True,-1,stimulus_MIJA04_Yes-No Task_2019_Jun_17_1252_403,-1,False,2019_Jun_17_1252,Yes-No Task,2,MIJA04,
Yes-No Task,28,0,28,0,8,-1,False Alarm,0.400512399996,False,-1,stimulus_MIJA04_Yes-No Task_2019_Jun_17_1252_404,-1,False,2019_Jun_17_1252,Yes-No Task,2,MIJA04,
Yes-No Task,29,0,29,0,8,-1,Hit,0.400479300006,True,-1,stimulus_MIJA04_Yes-No Task_2019_Jun_17_1252_405,-1,False,2019_Jun_17_1252,Yes-No Task,2,MIJA04,
Yes-No Task,30,0,30,0,8,-1,Hit,0.433924300014,True,-1,stimulus_MIJA04_Yes-No Task_2019_Jun_17_1252_406,-1,False,2019_Jun_17_1252,Yes-No Task,2,MIJA04,
Yes-No Task,31,0,31,0,8,-1,Correct Rejection,0.40093969999,False,-1,stimulus_MIJA04_Yes-No Task_2019_Jun_17_1252_407,-1,False,2019_Jun_17_1252,Yes-No Task,2,MIJA04,
Yes-No Task,32,0,32,0,8,-1,Hit,0.467301500001,True,-1,stimulus_MIJA04_Yes-No Task_2019_Jun_17_1252_408,-1,False,2019_Jun_17_1252,Yes-No Task,2,MIJA04,
Yes-No Task,33,0,33,0,8,-1,Hit,0.367047000007,True,-1,stimulus_MIJA04_Yes-No Task_2019_Jun_17_1252_409,-1,False,2019_Jun_17_1252,Yes-No Task,2,MIJA04,
Yes-No Task,34,0,34,0,8,-1,False Alarm,0.366857199988,False,-1,stimulus_MIJA04_Yes-No Task_2019_Jun_17_1252_410,-1,False,2019_Jun_17_1252,Yes-No Task,2,MIJA04,
Yes-No Task,35,0,35,0,8,-1,Hit,0.26647219999,True,-1,stimulus_MIJA04_Yes-No Task_2019_Jun_17_1252_411,-1,False,2019_Jun_17_1252,Yes-No Task,2,MIJA04,
Yes-No Task,36,0,36,0,8,-1,Miss,0.333855300007,True,-1,stimulus_MIJA04_Yes-No Task_2019_Jun_17_1252_412,-1,False,2019_Jun_17_1252,Yes-No Task,2,MIJA04,
Yes-No Task,37,0,37,0,8,-1,Correct Rejection,0.533433200006,False,-1,stimulus_MIJA04_Yes-No Task_2019_Jun_17_1252_413,-1,False,2019_Jun_17_1252,Yes-No Task,2,MIJA04,
Yes-No Task,38,0,38,0,8,-1,Hit,0.30024750001,True,-1,stimulus_MIJA04_Yes-No Task_2019_Jun_17_1252_414,-1,False,2019_Jun_17_1252,Yes-No Task,2,MIJA04,
Yes-No Task,39,0,39,0,8,-1,Hit,0.367071599991,True,-1,stimulus_MIJA04_Yes-No Task_2019_Jun_17_1252_415,-1,False,2019_Jun_17_1252,Yes-No Task,2,MIJA04,
Yes-No Task,40,0,40,0,8,-1,False Alarm,0.40117300002,False,-1,stimulus_MIJA04_Yes-No Task_2019_Jun_17_1252_416,-1,False,2019_Jun_17_1252,Yes-No Task,2,MIJA04,
Yes-No Task,41,0,41,0,8,-1,Correct Rejection,0.500548400014,False,-1,stimulus_MIJA04_Yes-No Task_2019_Jun_17_1252_417,-1,False,2019_Jun_17_1252,Yes-No Task,2,MIJA04,
Yes-No Task,42,0,42,0,8,-1,Correct Rejection,0.667324399983,False,-1,stimulus_MIJA04_Yes-No Task_2019_Jun_17_1252_418,-1,False,2019_Jun_17_1252,Yes-No Task,2,MIJA04,
Yes-No Task,43,0,43,0,8,-1,Correct Rejection,0.56682149999,False,-1,stimulus_MIJA04_Yes-No Task_2019_Jun_17_1252_419,-1,False,2019_Jun_17_1252,Yes-No Task,2,MIJA04,
Yes-No Task,44,0,44,0,8,-1,Hit,0.533467500005,True,-1,stimulus_MIJA04_Yes-No Task_2019_Jun_17_1252_420,-1,False,2019_Jun_17_1252,Yes-No Task,2,MIJA04,
Yes-No Task,45,0,45,0,8,-1,Hit,0.633844600001,True,-1,stimulus_MIJA04_Yes-No Task_2019_Jun_17_1252_421,-1,False,2019_Jun_17_1252,Yes-No Task,2,MIJA04,
Yes-No Task,46,0,46,0,8,-1,Hit,0.467126400006,True,-1,stimulus_MIJA04_Yes-No Task_2019_Jun_17_1252_422,-1,False,2019_Jun_17_1252,Yes-No Task,2,MIJA04,
Yes-No Task,47,0,47,0,8,-1,Hit,0.400524199998,True,-1,stimulus_MIJA04_Yes-No Task_2019_Jun_17_1252_423,-1,False,2019_Jun_17_1252,Yes-No Task,2,MIJA04,
Yes-No Task,48,0,48,0,8,-1,Hit,0.367950499989,True,-1,stimulus_MIJA04_Yes-No Task_2019_Jun_17_1252_424,-1,False,2019_Jun_17_1252,Yes-No Task,2,MIJA04,
Yes-No Task,49,0,49,0,8,-1,Hit,0.367471400008,True,-1,stimulus_MIJA04_Yes-No Task_2019_Jun_17_1252_425,-1,False,2019_Jun_17_1252,Yes-No Task,2,MIJA04,
Yes-No Task,50,0,50,0,8,-1,Hit,0.333455000015,True,-1,stimulus_MIJA04_Yes-No Task_2019_Jun_17_1252_426,-1,False,2019_Jun_17_1252,Yes-No Task,2,MIJA04,
Yes-No Task,51,0,51,0,8,-1,Correct Rejection,0.466711599991,False,-1,stimulus_MIJA04_Yes-No Task_2019_Jun_17_1252_427,-1,False,2019_Jun_17_1252,Yes-No Task,2,MIJA04,
Yes-No Task,52,0,52,0,8,-1,Hit,0.535021899996,True,-1,stimulus_MIJA04_Yes-No Task_2019_Jun_17_1252_428,-1,False,2019_Jun_17_1252,Yes-No Task,2,MIJA04,
Yes-No Task,53,0,53,0,8,-1,Hit,0.399720100017,True,-1,stimulus_MIJA04_Yes-No Task_2019_Jun_17_1252_429,-1,False,2019_Jun_17_1252,Yes-No Task,2,MIJA04,
Yes-No Task,54,0,54,0,8,-1,Correct Rejection,0.433798999991,False,-1,stimulus_MIJA04_Yes-No Task_2019_Jun_17_1252_430,-1,False,2019_Jun_17_1252,Yes-No Task,2,MIJA04,
Yes-No Task,55,0,55,0,8,-1,Hit,0.433606499981,True,-1,stimulus_MIJA04_Yes-No Task_2019_Jun_17_1252_431,-1,False,2019_Jun_17_1252,Yes-No Task,2,MIJA04,
Yes-No Task,56,0,56,0,8,-1,Hit,0.565094999998,True,-1,stimulus_MIJA04_Yes-No Task_2019_Jun_17_1252_432,-1,False,2019_Jun_17_1252,Yes-No Task,2,MIJA04,
Yes-No Task,57,0,57,0,8,-1,Hit,0.500710599998,True,-1,stimulus_MIJA04_Yes-No Task_2019_Jun_17_1252_433,-1,False,2019_Jun_17_1252,Yes-No Task,2,MIJA04,
Yes-No Task,58,0,58,0,8,-1,Correct Rejection,0.466960099991,False,-1,stimulus_MIJA04_Yes-No Task_2019_Jun_17_1252_434,-1,False,2019_Jun_17_1252,Yes-No Task,2,MIJA04,
Yes-No Task,59,0,59,0,8,-1,Correct Rejection,0.497260500008,False,-1,stimulus_MIJA04_Yes-No Task_2019_Jun_17_1252_435,-1,False,2019_Jun_17_1252,Yes-No Task,2,MIJA04,
Yes-No Task,60,0,60,0,8,-1,False Alarm,0.500741600001,False,-1,stimulus_MIJA04_Yes-No Task_2019_Jun_17_1252_436,-1,False,2019_Jun_17_1252,Yes-No Task,2,MIJA04,
Yes-No Task,61,0,61,0,8,-1,Miss,0.467148000025,True,-1,stimulus_MIJA04_Yes-No Task_2019_Jun_17_1252_437,-1,False,2019_Jun_17_1252,Yes-No Task,2,MIJA04,
Yes-No Task,62,0,62,0,8,-1,Correct Rejection,0.600955299975,False,-1,stimulus_MIJA04_Yes-No Task_2019_Jun_17_1252_438,-1,False,2019_Jun_17_1252,Yes-No Task,2,MIJA04,
Yes-No Task,63,0,63,0,8,-1,Hit,0.400627399998,True,-1,stimulus_MIJA04_Yes-No Task_2019_Jun_17_1252_439,-1,False,2019_Jun_17_1252,Yes-No Task,2,MIJA04,
Yes-No Task,64,0,64,0,8,-1,Hit,0.435505100002,True,-1,stimulus_MIJA04_Yes-No Task_2019_Jun_17_1252_440,-1,False,2019_Jun_17_1252,Yes-No Task,2,MIJA04,
Yes-No Task,65,0,65,0,8,-1,Hit,0.435347200022,True,-1,stimulus_MIJA04_Yes-No Task_2019_Jun_17_1252_441,-1,False,2019_Jun_17_1252,Yes-No Task,2,MIJA04,
Yes-No Task,66,0,66,0,8,-1,Correct Rejection,0.499836200004,False,-1,stimulus_MIJA04_Yes-No Task_2019_Jun_17_1252_442,-1,False,2019_Jun_17_1252,Yes-No Task,2,MIJA04,
Yes-No Task,67,0,67,0,8,-1,Correct Rejection,0.601454600022,False,-1,stimulus_MIJA04_Yes-No Task_2019_Jun_17_1252_443,-1,False,2019_Jun_17_1252,Yes-No Task,2,MIJA04,
Yes-No Task,68,0,68,0,8,-1,Hit,0.433655699977,True,-1,stimulus_MIJA04_Yes-No Task_2019_Jun_17_1252_444,-1,False,2019_Jun_17_1252,Yes-No Task,2,MIJA04,
Yes-No Task,69,0,69,0,8,-1,False Alarm,0.53396120001,False,-1,stimulus_MIJA04_Yes-No Task_2019_Jun_17_1252_445,-1,False,2019_Jun_17_1252,Yes-No Task,2,MIJA04,
Yes-No Task,70,0,70,0,8,-1,Correct Rejection,0.500963999977,False,-1,stimulus_MIJA04_Yes-No Task_2019_Jun_17_1252_446,-1,False,2019_Jun_17_1252,Yes-No Task,2,MIJA04,
Yes-No Task,71,0,71,0,8,-1,Correct Rejection,0.600678199989,False,-1,stimulus_MIJA04_Yes-No Task_2019_Jun_17_1252_447,-1,False,2019_Jun_17_1252,Yes-No Task,2,MIJA04,
Yes-No Task,72,0,72,0,8,-1,Hit,0.466881700006,True,-1,stimulus_MIJA04_Yes-No Task_2019_Jun_17_1252_448,-1,False,2019_Jun_17_1252,Yes-No Task,2,MIJA04,
Yes-No Task,73,0,73,0,8,-1,False Alarm,0.434260200011,False,-1,stimulus_MIJA04_Yes-No Task_2019_Jun_17_1252_449,-1,False,2019_Jun_17_1252,Yes-No Task,2,MIJA04,
Yes-No Task,74,0,74,0,8,-1,Hit,0.267804700008,True,-1,stimulus_MIJA04_Yes-No Task_2019_Jun_17_1252_450,-1,False,2019_Jun_17_1252,Yes-No Task,2,MIJA04,
Yes-No Task,0,0,0,0,6.6,-1,No Answer,-1,True,-1,stimulus_MIJA04_Yes-No Task_2019_Jun_17_1252_451,-1,False,2019_Jun_17_1252,Yes-No Task,2,MIJA04,
Yes-No Task,1,0,1,0,6.6,-1,Correct Rejection,0.500492299994,False,-1,stimulus_MIJA04_Yes-No Task_2019_Jun_17_1252_452,-1,False,2019_Jun_17_1252,Yes-No Task,2,MIJA04,
Yes-No Task,2,0,2,0,6.6,-1,Miss,0.535336399975,True,-1,stimulus_MIJA04_Yes-No Task_2019_Jun_17_1252_453,-1,False,2019_Jun_17_1252,Yes-No Task,2,MIJA04,
Yes-No Task,3,0,3,0,6.6,-1,Hit,0.567084800015,True,-1,stimulus_MIJA04_Yes-No Task_2019_Jun_17_1252_454,-1,False,2019_Jun_17_1252,Yes-No Task,2,MIJA04,
Yes-No Task,4,0,4,0,6.6,-1,Correct Rejection,0.533620799979,False,-1,stimulus_MIJA04_Yes-No Task_2019_Jun_17_1252_455,-1,False,2019_Jun_17_1252,Yes-No Task,2,MIJA04,
Yes-No Task,5,0,5,0,6.6,-1,Correct Rejection,0.468005800009,False,-1,stimulus_MIJA04_Yes-No Task_2019_Jun_17_1252_456,-1,False,2019_Jun_17_1252,Yes-No Task,2,MIJA04,
Yes-No Task,6,0,6,0,6.6,-1,False Alarm,0.400523199991,False,-1,stimulus_MIJA04_Yes-No Task_2019_Jun_17_1252_457,-1,False,2019_Jun_17_1252,Yes-No Task,2,MIJA04,
Yes-No Task,7,0,7,0,6.6,-1,Hit,0.501496800018,True,-1,stimulus_MIJA04_Yes-No Task_2019_Jun_17_1252_458,-1,False,2019_Jun_17_1252,Yes-No Task,2,MIJA04,
Yes-No Task,8,0,8,0,6.6,-1,Correct Rejection,0.400769,False,-1,stimulus_MIJA04_Yes-No Task_2019_Jun_17_1252_459,-1,False,2019_Jun_17_1252,Yes-No Task,2,MIJA04,
Yes-No Task,9,0,9,0,6.6,-1,Correct Rejection,0.467125199997,False,-1,stimulus_MIJA04_Yes-No Task_2019_Jun_17_1252_460,-1,False,2019_Jun_17_1252,Yes-No Task,2,MIJA04,
Yes-No Task,10,0,10,0,6.6,-1,Hit,0.43338469998,True,-1,stimulus_MIJA04_Yes-No Task_2019_Jun_17_1252_461,-1,False,2019_Jun_17_1252,Yes-No Task,2,MIJA04,
Yes-No Task,11,0,11,0,6.6,-1,Hit,0.36726639999,True,-1,stimulus_MIJA04_Yes-No Task_2019_Jun_17_1252_462,-1,False,2019_Jun_17_1252,Yes-No Task,2,MIJA04,
Yes-No Task,12,0,12,0,6.6,-1,Hit,0.667075799982,True,-1,stimulus_MIJA04_Yes-No Task_2019_Jun_17_1252_463,-1,False,2019_Jun_17_1252,Yes-No Task,2,MIJA04,
Yes-No Task,13,0,13,0,6.6,-1,Correct Rejection,0.434262700001,False,-1,stimulus_MIJA04_Yes-No Task_2019_Jun_17_1252_464,-1,False,2019_Jun_17_1252,Yes-No Task,2,MIJA04,
Yes-No Task,14,0,14,0,6.6,-1,Correct Rejection,0.600678399991,False,-1,stimulus_MIJA04_Yes-No Task_2019_Jun_17_1252_465,-1,False,2019_Jun_17_1252,Yes-No Task,2,MIJA04,
Yes-No Task,15,0,15,0,6.6,-1,Correct Rejection,0.467578999989,False,-1,stimulus_MIJA04_Yes-No Task_2019_Jun_17_1252_466,-1,False,2019_Jun_17_1252,Yes-No Task,2,MIJA04,
Yes-No Task,16,0,16,0,6.6,-1,Hit,0.366752200003,True,-1,stimulus_MIJA04_Yes-No Task_2019_Jun_17_1252_467,-1,False,2019_Jun_17_1252,Yes-No Task,2,MIJA04,
Yes-No Task,17,0,17,0,6.6,-1,False Alarm,0.365995800006,False,-1,stimulus_MIJA04_Yes-No Task_2019_Jun_17_1252_468,-1,False,2019_Jun_17_1252,Yes-No Task,2,MIJA04,
Yes-No Task,18,0,18,0,6.6,-1,Hit,0.400249099999,True,-1,stimulus_MIJA04_Yes-No Task_2019_Jun_17_1252_469,-1,False,2019_Jun_17_1252,Yes-No Task,2,MIJA04,
Yes-No Task,19,0,19,0,6.6,-1,Hit,0.567036699998,True,-1,stimulus_MIJA04_Yes-No Task_2019_Jun_17_1252_470,-1,False,2019_Jun_17_1252,Yes-No Task,2,MIJA04,
Yes-No Task,20,0,20,0,6.6,-1,Correct Rejection,0.500178599992,False,-1,stimulus_MIJA04_Yes-No Task_2019_Jun_17_1252_471,-1,False,2019_Jun_17_1252,Yes-No Task,2,MIJA04,
Yes-No Task,21,0,21,0,6.6,-1,Correct Rejection,0.500969500019,False,-1,stimulus_MIJA04_Yes-No Task_2019_Jun_17_1252_472,-1,False,2019_Jun_17_1252,Yes-No Task,2,MIJA04,
Yes-No Task,22,0,22,0,6.6,-1,Correct Rejection,0.533363299997,False,-1,stimulus_MIJA04_Yes-No Task_2019_Jun_17_1252_473,-1,False,2019_Jun_17_1252,Yes-No Task,2,MIJA04,
Yes-No Task,23,0,23,0,6.6,-1,Hit,0.533104900009,True,-1,stimulus_MIJA04_Yes-No Task_2019_Jun_17_1252_474,-1,False,2019_Jun_17_1252,Yes-No Task,2,MIJA04,
Yes-No Task,24,0,24,0,6.6,-1,Hit,0.468547900004,True,-1,stimulus_MIJA04_Yes-No Task_2019_Jun_17_1252_475,-1,False,2019_Jun_17_1252,Yes-No Task,2,MIJA04,
Yes-No Task,25,0,25,0,6.6,-1,Hit,0.401314199989,True,-1,stimulus_MIJA04_Yes-No Task_2019_Jun_17_1252_476,-1,False,2019_Jun_17_1252,Yes-No Task,2,MIJA04,
Yes-No Task,26,0,26,0,6.6,-1,Hit,0.534039100021,True,-1,stimulus_MIJA04_Yes-No Task_2019_Jun_17_1252_477,-1,False,2019_Jun_17_1252,Yes-No Task,2,MIJA04,
Yes-No Task,27,0,27,0,6.6,-1,False Alarm,0.500594100013,False,-1,stimulus_MIJA04_Yes-No Task_2019_Jun_17_1252_478,-1,False,2019_Jun_17_1252,Yes-No Task,2,MIJA04,
Yes-No Task,28,0,28,0,6.6,-1,Correct Rejection,0.566688199993,False,-1,stimulus_MIJA04_Yes-No Task_2019_Jun_17_1252_479,-1,False,2019_Jun_17_1252,Yes-No Task,2,MIJA04,
Yes-No Task,29,0,29,0,6.6,-1,False Alarm,0.467869300017,False,-1,stimulus_MIJA04_Yes-No Task_2019_Jun_17_1252_480,-1,False,2019_Jun_17_1252,Yes-No Task,2,MIJA04,
Yes-No Task,30,0,30,0,6.6,-1,Correct Rejection,0.533827699983,False,-1,stimulus_MIJA04_Yes-No Task_2019_Jun_17_1252_481,-1,False,2019_Jun_17_1252,Yes-No Task,2,MIJA04,
Yes-No Task,31,0,31,0,6.6,-1,Correct Rejection,0.434038499981,False,-1,stimulus_MIJA04_Yes-No Task_2019_Jun_17_1252_482,-1,False,2019_Jun_17_1252,Yes-No Task,2,MIJA04,
Yes-No Task,32,0,32,0,6.6,-1,Correct Rejection,0.433478799998,False,-1,stimulus_MIJA04_Yes-No Task_2019_Jun_17_1252_483,-1,False,2019_Jun_17_1252,Yes-No Task,2,MIJA04,
Yes-No Task,33,0,33,0,6.6,-1,Hit,0.500589100004,True,-1,stimulus_MIJA04_Yes-No Task_2019_Jun_17_1252_484,-1,False,2019_Jun_17_1252,Yes-No Task,2,MIJA04,
Yes-No Task,34,0,34,0,6.6,-1,Hit,0.567285099998,True,-1,stimulus_MIJA04_Yes-No Task_2019_Jun_17_1252_485,-1,False,2019_Jun_17_1252,Yes-No Task,2,MIJA04,
Yes-No Task,35,0,35,0,6.6,-1,Correct Rejection,0.500364200008,False,-1,stimulus_MIJA04_Yes-No Task_2019_Jun_17_1252_486,-1,False,2019_Jun_17_1252,Yes-No Task,2,MIJA04,
Yes-No Task,36,0,36,0,6.6,-1,Correct Rejection,0.466769199993,False,-1,stimulus_MIJA04_Yes-No Task_2019_Jun_17_1252_487,-1,False,2019_Jun_17_1252,Yes-No Task,2,MIJA04,
Yes-No Task,37,0,37,0,6.6,-1,Miss,0.434542299976,True,-1,stimulus_MIJA04_Yes-No Task_2019_Jun_17_1252_488,-1,False,2019_Jun_17_1252,Yes-No Task,2,MIJA04,
Yes-No Task,38,0,38,0,6.6,-1,Hit,0.467442499998,True,-1,stimulus_MIJA04_Yes-No Task_2019_Jun_17_1252_489,-1,False,2019_Jun_17_1252,Yes-No Task,2,MIJA04,
Yes-No Task,39,0,39,0,6.6,-1,Correct Rejection,0.367218500003,False,-1,stimulus_MIJA04_Yes-No Task_2019_Jun_17_1252_490,-1,False,2019_Jun_17_1252,Yes-No Task,2,MIJA04,
Yes-No Task,40,0,40,0,6.6,-1,Correct Rejection,0.434065800015,False,-1,stimulus_MIJA04_Yes-No Task_2019_Jun_17_1252_491,-1,False,2019_Jun_17_1252,Yes-No Task,2,MIJA04,
Yes-No Task,41,0,41,0,6.6,-1,Miss,0.49997819998,True,-1,stimulus_MIJA04_Yes-No Task_2019_Jun_17_1252_492,-1,False,2019_Jun_17_1252,Yes-No Task,2,MIJA04,
Yes-No Task,42,0,42,0,6.6,-1,Hit,0.534147900005,True,-1,stimulus_MIJA04_Yes-No Task_2019_Jun_17_1252_493,-1,False,2019_Jun_17_1252,Yes-No Task,2,MIJA04,
Yes-No Task,43,0,43,0,6.6,-1,Hit,0.567254199996,True,-1,stimulus_MIJA04_Yes-No Task_2019_Jun_17_1252_494,-1,False,2019_Jun_17_1252,Yes-No Task,2,MIJA04,
Yes-No Task,44,0,44,0,6.6,-1,False Alarm,0.667232000007,False,-1,stimulus_MIJA04_Yes-No Task_2019_Jun_17_1252_495,-1,False,2019_Jun_17_1252,Yes-No Task,2,MIJA04,
Yes-No Task,45,0,45,0,6.6,-1,False Alarm,0.434856500011,False,-1,stimulus_MIJA04_Yes-No Task_2019_Jun_17_1252_496,-1,False,2019_Jun_17_1252,Yes-No Task,2,MIJA04,
Yes-No Task,46,0,46,0,6.6,-1,Correct Rejection,0.668416600005,False,-1,stimulus_MIJA04_Yes-No Task_2019_Jun_17_1252_497,-1,False,2019_Jun_17_1252,Yes-No Task,2,MIJA04,
Yes-No Task,47,0,47,0,6.6,-1,Correct Rejection,0.567257800023,False,-1,stimulus_MIJA04_Yes-No Task_2019_Jun_17_1252_498,-1,False,2019_Jun_17_1252,Yes-No Task,2,MIJA04,
Yes-No Task,48,0,48,0,6.6,-1,Hit,0.434660799976,True,-1,stimulus_MIJA04_Yes-No Task_2019_Jun_17_1252_499,-1,False,2019_Jun_17_1252,Yes-No Task,2,MIJA04,
Yes-No Task,49,0,49,0,6.6,-1,Hit,0.467330600019,True,-1,stimulus_MIJA04_Yes-No Task_2019_Jun_17_1252_500,-1,False,2019_Jun_17_1252,Yes-No Task,2,MIJA04,
Yes-No Task,50,0,50,0,6.6,-1,False Alarm,0.433900999982,False,-1,stimulus_MIJA04_Yes-No Task_2019_Jun_17_1252_501,-1,False,2019_Jun_17_1252,Yes-No Task,2,MIJA04,
Yes-No Task,51,0,51,0,6.6,-1,Hit,0.46764290001,True,-1,stimulus_MIJA04_Yes-No Task_2019_Jun_17_1252_502,-1,False,2019_Jun_17_1252,Yes-No Task,2,MIJA04,
Yes-No Task,52,0,52,0,6.6,-1,Correct Rejection,0.399825100001,False,-1,stimulus_MIJA04_Yes-No Task_2019_Jun_17_1252_503,-1,False,2019_Jun_17_1252,Yes-No Task,2,MIJA04,
Yes-No Task,53,0,53,0,6.6,-1,Correct Rejection,0.46814479999,False,-1,stimulus_MIJA04_Yes-No Task_2019_Jun_17_1252_504,-1,False,2019_Jun_17_1252,Yes-No Task,2,MIJA04,
Yes-No Task,54,0,54,0,6.6,-1,Correct Rejection,0.567408100003,False,-1,stimulus_MIJA04_Yes-No Task_2019_Jun_17_1252_505,-1,False,2019_Jun_17_1252,Yes-No Task,2,MIJA04,
Yes-No Task,55,0,55,0,6.6,-1,Miss,0.667631899996,True,-1,stimulus_MIJA04_Yes-No Task_2019_Jun_17_1252_506,-1,False,2019_Jun_17_1252,Yes-No Task,2,MIJA04,
Yes-No Task,56,0,56,0,6.6,-1,Hit,0.500754800014,True,-1,stimulus_MIJA04_Yes-No Task_2019_Jun_17_1252_507,-1,False,2019_Jun_17_1252,Yes-No Task,2,MIJA04,
Yes-No Task,57,0,57,0,6.6,-1,Correct Rejection,0.465327399987,False,-1,stimulus_MIJA04_Yes-No Task_2019_Jun_17_1252_508,-1,False,2019_Jun_17_1252,Yes-No Task,2,MIJA04,
Yes-No Task,58,0,58,0,6.6,-1,Miss,0.467935499997,True,-1,stimulus_MIJA04_Yes-No Task_2019_Jun_17_1252_509,-1,False,2019_Jun_17_1252,Yes-No Task,2,MIJA04,
Yes-No Task,59,0,59,0,6.6,-1,Correct Rejection,0.535167800001,False,-1,stimulus_MIJA04_Yes-No Task_2019_Jun_17_1252_510,-1,False,2019_Jun_17_1252,Yes-No Task,2,MIJA04,
Yes-No Task,60,0,60,0,6.6,-1,Correct Rejection,0.434048099996,False,-1,stimulus_MIJA04_Yes-No Task_2019_Jun_17_1252_511,-1,False,2019_Jun_17_1252,Yes-No Task,2,MIJA04,
Yes-No Task,61,0,61,0,6.6,-1,Hit,0.534236499981,True,-1,stimulus_MIJA04_Yes-No Task_2019_Jun_17_1252_512,-1,False,2019_Jun_17_1252,Yes-No Task,2,MIJA04,
Yes-No Task,62,0,62,0,6.6,-1,Hit,0.668028999993,True,-1,stimulus_MIJA04_Yes-No Task_2019_Jun_17_1252_513,-1,False,2019_Jun_17_1252,Yes-No Task,2,MIJA04,
Yes-No Task,63,0,63,0,6.6,-1,Miss,0.534005499998,True,-1,stimulus_MIJA04_Yes-No Task_2019_Jun_17_1252_514,-1,False,2019_Jun_17_1252,Yes-No Task,2,MIJA04,
Yes-No Task,64,0,64,0,6.6,-1,Correct Rejection,0.367524799978,False,-1,stimulus_MIJA04_Yes-No Task_2019_Jun_17_1252_515,-1,False,2019_Jun_17_1252,Yes-No Task,2,MIJA04,
Yes-No Task,65,0,65,0,6.6,-1,False Alarm,0.333447600016,False,-1,stimulus_MIJA04_Yes-No Task_2019_Jun_17_1252_516,-1,False,2019_Jun_17_1252,Yes-No Task,2,MIJA04,
Yes-No Task,66,0,66,0,6.6,-1,Miss,0.399472500023,True,-1,stimulus_MIJA04_Yes-No Task_2019_Jun_17_1252_517,-1,False,2019_Jun_17_1252,Yes-No Task,2,MIJA04,
Yes-No Task,67,0,67,0,6.6,-1,Hit,0.500705200015,True,-1,stimulus_MIJA04_Yes-No Task_2019_Jun_17_1252_518,-1,False,2019_Jun_17_1252,Yes-No Task,2,MIJA04,
Yes-No Task,68,0,68,0,6.6,-1,Hit,0.699807900004,True,-1,stimulus_MIJA04_Yes-No Task_2019_Jun_17_1252_519,-1,False,2019_Jun_17_1252,Yes-No Task,2,MIJA04,
Yes-No Task,69,0,69,0,6.6,-1,False Alarm,0.633823200013,False,-1,stimulus_MIJA04_Yes-No Task_2019_Jun_17_1252_520,-1,False,2019_Jun_17_1252,Yes-No Task,2,MIJA04,
Yes-No Task,70,0,70,0,6.6,-1,Correct Rejection,0.70092079998,False,-1,stimulus_MIJA04_Yes-No Task_2019_Jun_17_1252_521,-1,False,2019_Jun_17_1252,Yes-No Task,2,MIJA04,
Yes-No Task,71,0,71,0,6.6,-1,Correct Rejection,0.500354399992,False,-1,stimulus_MIJA04_Yes-No Task_2019_Jun_17_1252_522,-1,False,2019_Jun_17_1252,Yes-No Task,2,MIJA04,
Yes-No Task,72,0,72,0,6.6,-1,Hit,0.402076400002,True,-1,stimulus_MIJA04_Yes-No Task_2019_Jun_17_1252_523,-1,False,2019_Jun_17_1252,Yes-No Task,2,MIJA04,
Yes-No Task,73,0,73,0,6.6,-1,Correct Rejection,0.500486000004,False,-1,stimulus_MIJA04_Yes-No Task_2019_Jun_17_1252_524,-1,False,2019_Jun_17_1252,Yes-No Task,2,MIJA04,
Yes-No Task,74,0,74,0,6.6,-1,False Alarm,0.333594099997,False,-1,stimulus_MIJA04_Yes-No Task_2019_Jun_17_1252_525,-1,False,2019_Jun_17_1252,Yes-No Task,2,MIJA04,
Yes-No Task,0,0,0,0,3.3,-1,No Answer,-1,False,-1,stimulus_MIJA04_Yes-No Task_2019_Jun_17_1252_526,-1,False,2019_Jun_17_1252,Yes-No Task,2,MIJA04,
Yes-No Task,1,0,1,0,3.3,-1,Correct Rejection,0.63366729999,False,-1,stimulus_MIJA04_Yes-No Task_2019_Jun_17_1252_527,-1,False,2019_Jun_17_1252,Yes-No Task,2,MIJA04,
Yes-No Task,2,0,2,0,3.3,-1,Miss,0.434645000001,True,-1,stimulus_MIJA04_Yes-No Task_2019_Jun_17_1252_528,-1,False,2019_Jun_17_1252,Yes-No Task,2,MIJA04,
Yes-No Task,3,0,3,0,3.3,-1,Correct Rejection,0.466591200005,False,-1,stimulus_MIJA04_Yes-No Task_2019_Jun_17_1252_529,-1,False,2019_Jun_17_1252,Yes-No Task,2,MIJA04,
Yes-No Task,4,0,4,0,3.3,-1,Correct Rejection,0.400278500019,False,-1,stimulus_MIJA04_Yes-No Task_2019_Jun_17_1252_530,-1,False,2019_Jun_17_1252,Yes-No Task,2,MIJA04,
Yes-No Task,5,0,5,0,3.3,-1,Correct Rejection,0.433927799982,False,-1,stimulus_MIJA04_Yes-No Task_2019_Jun_17_1252_531,-1,False,2019_Jun_17_1252,Yes-No Task,2,MIJA04,
Yes-No Task,6,0,6,0,3.3,-1,Miss,0.334222199977,True,-1,stimulus_MIJA04_Yes-No Task_2019_Jun_17_1252_532,-1,False,2019_Jun_17_1252,Yes-No Task,2,MIJA04,
Yes-No Task,7,0,7,0,3.3,-1,Correct Rejection,0.299984499987,False,-1,stimulus_MIJA04_Yes-No Task_2019_Jun_17_1252_533,-1,False,2019_Jun_17_1252,Yes-No Task,2,MIJA04,
Yes-No Task,8,0,8,0,3.3,-1,Hit,0.367134699976,True,-1,stimulus_MIJA04_Yes-No Task_2019_Jun_17_1252_534,-1,False,2019_Jun_17_1252,Yes-No Task,2,MIJA04,
Yes-No Task,9,0,9,0,3.3,-1,Correct Rejection,0.434069199982,False,-1,stimulus_MIJA04_Yes-No Task_2019_Jun_17_1252_535,-1,False,2019_Jun_17_1252,Yes-No Task,2,MIJA04,
Yes-No Task,10,0,10,0,3.3,-1,Hit,0.367315699987,True,-1,stimulus_MIJA04_Yes-No Task_2019_Jun_17_1252_536,-1,False,2019_Jun_17_1252,Yes-No Task,2,MIJA04,
Yes-No Task,11,0,11,0,3.3,-1,Correct Rejection,0.36707540002,False,-1,stimulus_MIJA04_Yes-No Task_2019_Jun_17_1252_537,-1,False,2019_Jun_17_1252,Yes-No Task,2,MIJA04,
Yes-No Task,12,0,12,0,3.3,-1,Miss,0.334501200006,True,-1,stimulus_MIJA04_Yes-No Task_2019_Jun_17_1252_538,-1,False,2019_Jun_17_1252,Yes-No Task,2,MIJA04,
Yes-No Task,13,0,13,0,3.3,-1,Miss,0.332847800018,True,-1,stimulus_MIJA04_Yes-No Task_2019_Jun_17_1252_539,-1,False,2019_Jun_17_1252,Yes-No Task,2,MIJA04,
Yes-No Task,14,0,14,0,3.3,-1,False Alarm,0.333653699985,False,-1,stimulus_MIJA04_Yes-No Task_2019_Jun_17_1252_540,-1,False,2019_Jun_17_1252,Yes-No Task,2,MIJA04,
Yes-No Task,15,0,15,0,3.3,-1,Miss,0.433584600018,True,-1,stimulus_MIJA04_Yes-No Task_2019_Jun_17_1252_541,-1,False,2019_Jun_17_1252,Yes-No Task,2,MIJA04,
Yes-No Task,16,0,16,0,3.3,-1,Miss,0.468074600009,True,-1,stimulus_MIJA04_Yes-No Task_2019_Jun_17_1252_542,-1,False,2019_Jun_17_1252,Yes-No Task,2,MIJA04,
Yes-No Task,17,0,17,0,3.3,-1,Correct Rejection,0.467791500007,False,-1,stimulus_MIJA04_Yes-No Task_2019_Jun_17_1252_543,-1,False,2019_Jun_17_1252,Yes-No Task,2,MIJA04,
Yes-No Task,18,0,18,0,3.3,-1,Hit,0.469419300003,True,-1,stimulus_MIJA04_Yes-No Task_2019_Jun_17_1252_544,-1,False,2019_Jun_17_1252,Yes-No Task,2,MIJA04,
Yes-No Task,19,0,19,0,3.3,-1,Miss,0.599692599993,True,-1,stimulus_MIJA04_Yes-No Task_2019_Jun_17_1252_545,-1,False,2019_Jun_17_1252,Yes-No Task,2,MIJA04,
Yes-No Task,20,0,20,0,3.3,-1,Hit,0.466952600022,True,-1,stimulus_MIJA04_Yes-No Task_2019_Jun_17_1252_546,-1,False,2019_Jun_17_1252,Yes-No Task,2,MIJA04,
Yes-No Task,21,0,21,0,3.3,-1,False Alarm,0.400480400014,False,-1,stimulus_MIJA04_Yes-No Task_2019_Jun_17_1252_547,-1,False,2019_Jun_17_1252,Yes-No Task,2,MIJA04,
Yes-No Task,22,0,22,0,3.3,-1,False Alarm,0.333737000008,False,-1,stimulus_MIJA04_Yes-No Task_2019_Jun_17_1252_548,-1,False,2019_Jun_17_1252,Yes-No Task,2,MIJA04,
Yes-No Task,23,0,23,0,3.3,-1,Correct Rejection,0.501106600015,False,-1,stimulus_MIJA04_Yes-No Task_2019_Jun_17_1252_549,-1,False,2019_Jun_17_1252,Yes-No Task,2,MIJA04,
Yes-No Task,24,0,24,0,3.3,-1,False Alarm,0.6339821,False,-1,stimulus_MIJA04_Yes-No Task_2019_Jun_17_1252_550,-1,False,2019_Jun_17_1252,Yes-No Task,2,MIJA04,
Yes-No Task,25,0,25,0,3.3,-1,Miss,0.799936399999,True,-1,stimulus_MIJA04_Yes-No Task_2019_Jun_17_1252_551,-1,False,2019_Jun_17_1252,Yes-No Task,2,MIJA04,
Yes-No Task,26,0,26,0,3.3,-1,False Alarm,0.297966599988,False,-1,stimulus_MIJA04_Yes-No Task_2019_Jun_17_1252_552,-1,False,2019_Jun_17_1252,Yes-No Task,2,MIJA04,
Yes-No Task,27,0,27,0,3.3,-1,Correct Rejection,0.501743300003,False,-1,stimulus_MIJA04_Yes-No Task_2019_Jun_17_1252_553,-1,False,2019_Jun_17_1252,Yes-No Task,2,MIJA04,
Yes-No Task,28,0,28,0,3.3,-1,Hit,0.400474499998,True,-1,stimulus_MIJA04_Yes-No Task_2019_Jun_17_1252_554,-1,False,2019_Jun_17_1252,Yes-No Task,2,MIJA04,
Yes-No Task,29,0,29,0,3.3,-1,Correct Rejection,0.4674581,False,-1,stimulus_MIJA04_Yes-No Task_2019_Jun_17_1252_555,-1,False,2019_Jun_17_1252,Yes-No Task,2,MIJA04,
Yes-No Task,30,0,30,0,3.3,-1,Hit,0.367350000015,True,-1,stimulus_MIJA04_Yes-No Task_2019_Jun_17_1252_556,-1,False,2019_Jun_17_1252,Yes-No Task,2,MIJA04,
Yes-No Task,31,0,31,0,3.3,-1,Hit,0.333853599994,True,-1,stimulus_MIJA04_Yes-No Task_2019_Jun_17_1252_557,-1,False,2019_Jun_17_1252,Yes-No Task,2,MIJA04,
Yes-No Task,32,0,32,0,3.3,-1,False Alarm,0.300650300022,False,-1,stimulus_MIJA04_Yes-No Task_2019_Jun_17_1252_558,-1,False,2019_Jun_17_1252,Yes-No Task,2,MIJA04,
Yes-No Task,33,0,33,0,3.3,-1,Hit,0.400479400007,True,-1,stimulus_MIJA04_Yes-No Task_2019_Jun_17_1252_559,-1,False,2019_Jun_17_1252,Yes-No Task,2,MIJA04,
Yes-No Task,34,0,34,0,3.3,-1,Correct Rejection,0.267308799986,False,-1,stimulus_MIJA04_Yes-No Task_2019_Jun_17_1252_560,-1,False,2019_Jun_17_1252,Yes-No Task,2,MIJA04,
Yes-No Task,35,0,35,0,3.3,-1,False Alarm,0.435733399994,False,-1,stimulus_MIJA04_Yes-No Task_2019_Jun_17_1252_561,-1,False,2019_Jun_17_1252,Yes-No Task,2,MIJA04,
Yes-No Task,36,0,36,0,3.3,-1,False Alarm,0.400143799983,False,-1,stimulus_MIJA04_Yes-No Task_2019_Jun_17_1252_562,-1,False,2019_Jun_17_1252,Yes-No Task,2,MIJA04,
Yes-No Task,37,0,37,0,3.3,-1,Correct Rejection,0.599855000008,False,-1,stimulus_MIJA04_Yes-No Task_2019_Jun_17_1252_563,-1,False,2019_Jun_17_1252,Yes-No Task,2,MIJA04,
Yes-No Task,38,0,38,0,3.3,-1,Miss,0.403674400004,True,-1,stimulus_MIJA04_Yes-No Task_2019_Jun_17_1252_564,-1,False,2019_Jun_17_1252,Yes-No Task,2,MIJA04,
Yes-No Task,39,0,39,0,3.3,-1,Miss,0.334470000002,True,-1,stimulus_MIJA04_Yes-No Task_2019_Jun_17_1252_565,-1,False,2019_Jun_17_1252,Yes-No Task,2,MIJA04,
Yes-No Task,40,0,40,0,3.3,-1,Hit,0.333628599998,True,-1,stimulus_MIJA04_Yes-No Task_2019_Jun_17_1252_566,-1,False,2019_Jun_17_1252,Yes-No Task,2,MIJA04,
Yes-No Task,41,0,41,0,3.3,-1,Hit,0.367329600005,True,-1,stimulus_MIJA04_Yes-No Task_2019_Jun_17_1252_567,-1,False,2019_Jun_17_1252,Yes-No Task,2,MIJA04,
Yes-No Task,42,0,42,0,3.3,-1,Hit,0.301520000008,True,-1,stimulus_MIJA04_Yes-No Task_2019_Jun_17_1252_568,-1,False,2019_Jun_17_1252,Yes-No Task,2,MIJA04,
Yes-No Task,43,0,43,0,3.3,-1,Hit,0.267653399991,True,-1,stimulus_MIJA04_Yes-No Task_2019_Jun_17_1252_569,-1,False,2019_Jun_17_1252,Yes-No Task,2,MIJA04,
Yes-No Task,44,0,44,0,3.3,-1,Miss,0.233690599998,True,-1,stimulus_MIJA04_Yes-No Task_2019_Jun_17_1252_570,-1,False,2019_Jun_17_1252,Yes-No Task,2,MIJA04,
Yes-No Task,45,0,45,0,3.3,-1,Hit,0.400524299999,True,-1,stimulus_MIJA04_Yes-No Task_2019_Jun_17_1252_571,-1,False,2019_Jun_17_1252,Yes-No Task,2,MIJA04,
Yes-No Task,46,0,46,0,3.3,-1,Correct Rejection,0.299776700005,False,-1,stimulus_MIJA04_Yes-No Task_2019_Jun_17_1252_572,-1,False,2019_Jun_17_1252,Yes-No Task,2,MIJA04,
Yes-No Task,47,0,47,0,3.3,-1,Miss,0.2670736,True,-1,stimulus_MIJA04_Yes-No Task_2019_Jun_17_1252_573,-1,False,2019_Jun_17_1252,Yes-No Task,2,MIJA04,
Yes-No Task,48,0,48,0,3.3,-1,Correct Rejection,0.500562200003,False,-1,stimulus_MIJA04_Yes-No Task_2019_Jun_17_1252_574,-1,False,2019_Jun_17_1252,Yes-No Task,2,MIJA04,
Yes-No Task,49,0,49,0,3.3,-1,False Alarm,0.399634799978,False,-1,stimulus_MIJA04_Yes-No Task_2019_Jun_17_1252_575,-1,False,2019_Jun_17_1252,Yes-No Task,2,MIJA04,
Yes-No Task,50,0,50,0,3.3,-1,Hit,0.399980800023,True,-1,stimulus_MIJA04_Yes-No Task_2019_Jun_17_1252_576,-1,False,2019_Jun_17_1252,Yes-No Task,2,MIJA04,
Yes-No Task,51,0,51,0,3.3,-1,Hit,0.500495100016,True,-1,stimulus_MIJA04_Yes-No Task_2019_Jun_17_1252_577,-1,False,2019_Jun_17_1252,Yes-No Task,2,MIJA04,
Yes-No Task,52,0,52,0,3.3,-1,Hit,0.466993600014,True,-1,stimulus_MIJA04_Yes-No Task_2019_Jun_17_1252_578,-1,False,2019_Jun_17_1252,Yes-No Task,2,MIJA04,
Yes-No Task,53,0,53,0,3.3,-1,False Alarm,0.399565500004,False,-1,stimulus_MIJA04_Yes-No Task_2019_Jun_17_1252_579,-1,False,2019_Jun_17_1252,Yes-No Task,2,MIJA04,
Yes-No Task,54,0,54,0,3.3,-1,Hit,0.529482100013,True,-1,stimulus_MIJA04_Yes-No Task_2019_Jun_17_1252_580,-1,False,2019_Jun_17_1252,Yes-No Task,2,MIJA04,
Yes-No Task,55,0,55,0,3.3,-1,Hit,0.600243699999,True,-1,stimulus_MIJA04_Yes-No Task_2019_Jun_17_1252_581,-1,False,2019_Jun_17_1252,Yes-No Task,2,MIJA04,
Yes-No Task,56,0,56,0,3.3,-1,False Alarm,0.467367100006,False,-1,stimulus_MIJA04_Yes-No Task_2019_Jun_17_1252_582,-1,False,2019_Jun_17_1252,Yes-No Task,2,MIJA04,
Yes-No Task,57,0,57,0,3.3,-1,Hit,0.400870200014,True,-1,stimulus_MIJA04_Yes-No Task_2019_Jun_17_1252_583,-1,False,2019_Jun_17_1252,Yes-No Task,2,MIJA04,
Yes-No Task,58,0,58,0,3.3,-1,False Alarm,0.334765000007,False,-1,stimulus_MIJA04_Yes-No Task_2019_Jun_17_1252_584,-1,False,2019_Jun_17_1252,Yes-No Task,2,MIJA04,
Yes-No Task,59,0,59,0,3.3,-1,False Alarm,0.366767900006,False,-1,stimulus_MIJA04_Yes-No Task_2019_Jun_17_1252_585,-1,False,2019_Jun_17_1252,Yes-No Task,2,MIJA04,
Yes-No Task,60,0,60,0,3.3,-1,Hit,0.601030599995,True,-1,stimulus_MIJA04_Yes-No Task_2019_Jun_17_1252_586,-1,False,2019_Jun_17_1252,Yes-No Task,2,MIJA04,
Yes-No Task,61,0,61,0,3.3,-1,Correct Rejection,0.334836199996,False,-1,stimulus_MIJA04_Yes-No Task_2019_Jun_17_1252_587,-1,False,2019_Jun_17_1252,Yes-No Task,2,MIJA04,
Yes-No Task,62,0,62,0,3.3,-1,Correct Rejection,0.334933900012,False,-1,stimulus_MIJA04_Yes-No Task_2019_Jun_17_1252_588,-1,False,2019_Jun_17_1252,Yes-No Task,2,MIJA04,
Yes-No Task,63,0,63,0,3.3,-1,Correct Rejection,0.33434239999,False,-1,stimulus_MIJA04_Yes-No Task_2019_Jun_17_1252_589,-1,False,2019_Jun_17_1252,Yes-No Task,2,MIJA04,
Yes-No Task,64,0,64,0,3.3,-1,Correct Rejection,0.366983899992,False,-1,stimulus_MIJA04_Yes-No Task_2019_Jun_17_1252_590,-1,False,2019_Jun_17_1252,Yes-No Task,2,MIJA04,
Yes-No Task,65,0,65,0,3.3,-1,Correct Rejection,0.234485599998,False,-1,stimulus_MIJA04_Yes-No Task_2019_Jun_17_1252_591,-1,False,2019_Jun_17_1252,Yes-No Task,2,MIJA04,
Yes-No Task,66,0,66,0,3.3,-1,Miss,0.335163499985,True,-1,stimulus_MIJA04_Yes-No Task_2019_Jun_17_1252_592,-1,False,2019_Jun_17_1252,Yes-No Task,2,MIJA04,
Yes-No Task,67,0,67,0,3.3,-1,Correct Rejection,0.299587200017,False,-1,stimulus_MIJA04_Yes-No Task_2019_Jun_17_1252_593,-1,False,2019_Jun_17_1252,Yes-No Task,2,MIJA04,
Yes-No Task,68,0,68,0,3.3,-1,Correct Rejection,0.499926000019,False,-1,stimulus_MIJA04_Yes-No Task_2019_Jun_17_1252_594,-1,False,2019_Jun_17_1252,Yes-No Task,2,MIJA04,
Yes-No Task,69,0,69,0,3.3,-1,Correct Rejection,0.500395499985,False,-1,stimulus_MIJA04_Yes-No Task_2019_Jun_17_1252_595,-1,False,2019_Jun_17_1252,Yes-No Task,2,MIJA04,
Yes-No Task,70,0,70,0,3.3,-1,False Alarm,0.500643799984,False,-1,stimulus_MIJA04_Yes-No Task_2019_Jun_17_1252_596,-1,False,2019_Jun_17_1252,Yes-No Task,2,MIJA04,
Yes-No Task,71,0,71,0,3.3,-1,False Alarm,0.467455799982,False,-1,stimulus_MIJA04_Yes-No Task_2019_Jun_17_1252_597,-1,False,2019_Jun_17_1252,Yes-No Task,2,MIJA04,
Yes-No Task,72,0,72,0,3.3,-1,Hit,0.60095219998,True,-1,stimulus_MIJA04_Yes-No Task_2019_Jun_17_1252_598,-1,False,2019_Jun_17_1252,Yes-No Task,2,MIJA04,
Yes-No Task,73,0,73,0,3.3,-1,Miss,0.367909799999,True,-1,stimulus_MIJA04_Yes-No Task_2019_Jun_17_1252_599,-1,False,2019_Jun_17_1252,Yes-No Task,2,MIJA04,
Yes-No Task,74,0,74,0,3.3,-1,Correct Rejection,0.500488799997,False,-1,stimulus_MIJA04_Yes-No Task_2019_Jun_17_1252_600,-1,False,2019_Jun_17_1252,Yes-No Task,2,MIJA04,
