Task,trials.thisRepN,trials.thisTrialN,trials.thisN,trials.thisIndex,signal_intensity,constant Value,response,time_response,signal_on_stimuluspos1,signal_on_stimuluspos2,stimulus_name_pos1,stimulus_name_pos2,random_intensity,date,expName,session,participant,
Yes-No Task,0,0,0,0,9,-1,Miss,0.533399500011,True,-1,stimulus_MIJA04_Yes-No Task_2019_Jun_17_1208_1,-1,False,2019_Jun_17_1208,Yes-No Task,1,MIJA04,
Yes-No Task,1,0,1,0,9,-1,Correct Rejection,0.466829499986,False,-1,stimulus_MIJA04_Yes-No Task_2019_Jun_17_1208_2,-1,False,2019_Jun_17_1208,Yes-No Task,1,MIJA04,
Yes-No Task,2,0,2,0,9,-1,False Alarm,0.467237300007,False,-1,stimulus_MIJA04_Yes-No Task_2019_Jun_17_1208_3,-1,False,2019_Jun_17_1208,Yes-No Task,1,MIJA04,
Yes-No Task,3,0,3,0,9,-1,Hit,0.46734220002,True,-1,stimulus_MIJA04_Yes-No Task_2019_Jun_17_1208_4,-1,False,2019_Jun_17_1208,Yes-No Task,1,MIJA04,
Yes-No Task,4,0,4,0,9,-1,Hit,0.434099500009,True,-1,stimulus_MIJA04_Yes-No Task_2019_Jun_17_1208_5,-1,False,2019_Jun_17_1208,Yes-No Task,1,MIJA04,
Yes-No Task,5,0,5,0,9,-1,Hit,0.433738099993,True,-1,stimulus_MIJA04_Yes-No Task_2019_Jun_17_1208_6,-1,False,2019_Jun_17_1208,Yes-No Task,1,MIJA04,
Yes-No Task,6,0,6,0,9,-1,Correct Rejection,0.366788199986,False,-1,stimulus_MIJA04_Yes-No Task_2019_Jun_17_1208_7,-1,False,2019_Jun_17_1208,Yes-No Task,1,MIJA04,
Yes-No Task,7,0,7,0,9,-1,Hit,0.467476699996,True,-1,stimulus_MIJA04_Yes-No Task_2019_Jun_17_1208_8,-1,False,2019_Jun_17_1208,Yes-No Task,1,MIJA04,
Yes-No Task,8,0,8,0,9,-1,Correct Rejection,0.567618800007,False,-1,stimulus_MIJA04_Yes-No Task_2019_Jun_17_1208_9,-1,False,2019_Jun_17_1208,Yes-No Task,1,MIJA04,
Yes-No Task,9,0,9,0,9,-1,Hit,0.434553600004,True,-1,stimulus_MIJA04_Yes-No Task_2019_Jun_17_1208_10,-1,False,2019_Jun_17_1208,Yes-No Task,1,MIJA04,
Yes-No Task,10,0,10,0,9,-1,Miss,0.400633800018,True,-1,stimulus_MIJA04_Yes-No Task_2019_Jun_17_1208_11,-1,False,2019_Jun_17_1208,Yes-No Task,1,MIJA04,
Yes-No Task,11,0,11,0,9,-1,Hit,0.400271499995,True,-1,stimulus_MIJA04_Yes-No Task_2019_Jun_17_1208_12,-1,False,2019_Jun_17_1208,Yes-No Task,1,MIJA04,
Yes-No Task,12,0,12,0,9,-1,Correct Rejection,0.466968399996,False,-1,stimulus_MIJA04_Yes-No Task_2019_Jun_17_1208_13,-1,False,2019_Jun_17_1208,Yes-No Task,1,MIJA04,
Yes-No Task,13,0,13,0,9,-1,Hit,0.433809500013,True,-1,stimulus_MIJA04_Yes-No Task_2019_Jun_17_1208_14,-1,False,2019_Jun_17_1208,Yes-No Task,1,MIJA04,
Yes-No Task,14,0,14,0,9,-1,Hit,0.400329899974,True,-1,stimulus_MIJA04_Yes-No Task_2019_Jun_17_1208_15,-1,False,2019_Jun_17_1208,Yes-No Task,1,MIJA04,
Yes-No Task,15,0,15,0,9,-1,Correct Rejection,0.533752100018,False,-1,stimulus_MIJA04_Yes-No Task_2019_Jun_17_1208_16,-1,False,2019_Jun_17_1208,Yes-No Task,1,MIJA04,
Yes-No Task,16,0,16,0,9,-1,Correct Rejection,0.467038600007,False,-1,stimulus_MIJA04_Yes-No Task_2019_Jun_17_1208_17,-1,False,2019_Jun_17_1208,Yes-No Task,1,MIJA04,
Yes-No Task,17,0,17,0,9,-1,Correct Rejection,0.401450800011,False,-1,stimulus_MIJA04_Yes-No Task_2019_Jun_17_1208_18,-1,False,2019_Jun_17_1208,Yes-No Task,1,MIJA04,
Yes-No Task,18,0,18,0,9,-1,Correct Rejection,0.400460500008,False,-1,stimulus_MIJA04_Yes-No Task_2019_Jun_17_1208_19,-1,False,2019_Jun_17_1208,Yes-No Task,1,MIJA04,
Yes-No Task,19,0,19,0,9,-1,Hit,0.467137599975,True,-1,stimulus_MIJA04_Yes-No Task_2019_Jun_17_1208_20,-1,False,2019_Jun_17_1208,Yes-No Task,1,MIJA04,
Yes-No Task,20,0,20,0,9,-1,Miss,0.368264499994,True,-1,stimulus_MIJA04_Yes-No Task_2019_Jun_17_1208_21,-1,False,2019_Jun_17_1208,Yes-No Task,1,MIJA04,
Yes-No Task,21,0,21,0,9,-1,Miss,0.400373799988,True,-1,stimulus_MIJA04_Yes-No Task_2019_Jun_17_1208_22,-1,False,2019_Jun_17_1208,Yes-No Task,1,MIJA04,
Yes-No Task,22,0,22,0,9,-1,Hit,0.567452499992,True,-1,stimulus_MIJA04_Yes-No Task_2019_Jun_17_1208_23,-1,False,2019_Jun_17_1208,Yes-No Task,1,MIJA04,
Yes-No Task,23,0,23,0,9,-1,Hit,0.435008100001,True,-1,stimulus_MIJA04_Yes-No Task_2019_Jun_17_1208_24,-1,False,2019_Jun_17_1208,Yes-No Task,1,MIJA04,
Yes-No Task,24,0,24,0,9,-1,Correct Rejection,0.467154299986,False,-1,stimulus_MIJA04_Yes-No Task_2019_Jun_17_1208_25,-1,False,2019_Jun_17_1208,Yes-No Task,1,MIJA04,
Yes-No Task,25,0,25,0,9,-1,Correct Rejection,0.467246499989,False,-1,stimulus_MIJA04_Yes-No Task_2019_Jun_17_1208_26,-1,False,2019_Jun_17_1208,Yes-No Task,1,MIJA04,
Yes-No Task,26,0,26,0,9,-1,Correct Rejection,0.434024799993,False,-1,stimulus_MIJA04_Yes-No Task_2019_Jun_17_1208_27,-1,False,2019_Jun_17_1208,Yes-No Task,1,MIJA04,
Yes-No Task,27,0,27,0,9,-1,Correct Rejection,0.400143000006,False,-1,stimulus_MIJA04_Yes-No Task_2019_Jun_17_1208_28,-1,False,2019_Jun_17_1208,Yes-No Task,1,MIJA04,
Yes-No Task,28,0,28,0,9,-1,Miss,0.400403800013,True,-1,stimulus_MIJA04_Yes-No Task_2019_Jun_17_1208_29,-1,False,2019_Jun_17_1208,Yes-No Task,1,MIJA04,
Yes-No Task,29,0,29,0,9,-1,Hit,0.402059999993,True,-1,stimulus_MIJA04_Yes-No Task_2019_Jun_17_1208_30,-1,False,2019_Jun_17_1208,Yes-No Task,1,MIJA04,
Yes-No Task,0,0,0,0,6,-1,Miss,0.667267099983,True,-1,stimulus_MIJA04_Yes-No Task_2019_Jun_17_1208_31,-1,False,2019_Jun_17_1208,Yes-No Task,1,MIJA04,
Yes-No Task,1,0,1,0,6,-1,False Alarm,0.567604000011,False,-1,stimulus_MIJA04_Yes-No Task_2019_Jun_17_1208_32,-1,False,2019_Jun_17_1208,Yes-No Task,1,MIJA04,
Yes-No Task,2,0,2,0,6,-1,Miss,0.667778800009,True,-1,stimulus_MIJA04_Yes-No Task_2019_Jun_17_1208_33,-1,False,2019_Jun_17_1208,Yes-No Task,1,MIJA04,
Yes-No Task,3,0,3,0,6,-1,False Alarm,0.701102999999,False,-1,stimulus_MIJA04_Yes-No Task_2019_Jun_17_1208_34,-1,False,2019_Jun_17_1208,Yes-No Task,1,MIJA04,
Yes-No Task,4,0,4,0,6,-1,Hit,0.600790299999,True,-1,stimulus_MIJA04_Yes-No Task_2019_Jun_17_1208_35,-1,False,2019_Jun_17_1208,Yes-No Task,1,MIJA04,
Yes-No Task,5,0,5,0,6,-1,Correct Rejection,0.634202699992,False,-1,stimulus_MIJA04_Yes-No Task_2019_Jun_17_1208_36,-1,False,2019_Jun_17_1208,Yes-No Task,1,MIJA04,
Yes-No Task,6,0,6,0,6,-1,Miss,0.467962900002,True,-1,stimulus_MIJA04_Yes-No Task_2019_Jun_17_1208_37,-1,False,2019_Jun_17_1208,Yes-No Task,1,MIJA04,
Yes-No Task,7,0,7,0,6,-1,Correct Rejection,0.433512099989,False,-1,stimulus_MIJA04_Yes-No Task_2019_Jun_17_1208_38,-1,False,2019_Jun_17_1208,Yes-No Task,1,MIJA04,
Yes-No Task,8,0,8,0,6,-1,Hit,0.467366199999,True,-1,stimulus_MIJA04_Yes-No Task_2019_Jun_17_1208_39,-1,False,2019_Jun_17_1208,Yes-No Task,1,MIJA04,
Yes-No Task,9,0,9,0,6,-1,Correct Rejection,0.535757199978,False,-1,stimulus_MIJA04_Yes-No Task_2019_Jun_17_1208_40,-1,False,2019_Jun_17_1208,Yes-No Task,1,MIJA04,
Yes-No Task,10,0,10,0,6,-1,Correct Rejection,0.568452699983,False,-1,stimulus_MIJA04_Yes-No Task_2019_Jun_17_1208_41,-1,False,2019_Jun_17_1208,Yes-No Task,1,MIJA04,
Yes-No Task,11,0,11,0,6,-1,Correct Rejection,0.400425300002,False,-1,stimulus_MIJA04_Yes-No Task_2019_Jun_17_1208_42,-1,False,2019_Jun_17_1208,Yes-No Task,1,MIJA04,
Yes-No Task,12,0,12,0,6,-1,Miss,0.367102500022,True,-1,stimulus_MIJA04_Yes-No Task_2019_Jun_17_1208_43,-1,False,2019_Jun_17_1208,Yes-No Task,1,MIJA04,
Yes-No Task,13,0,13,0,6,-1,Correct Rejection,0.433814499993,False,-1,stimulus_MIJA04_Yes-No Task_2019_Jun_17_1208_44,-1,False,2019_Jun_17_1208,Yes-No Task,1,MIJA04,
Yes-No Task,14,0,14,0,6,-1,False Alarm,0.667447500018,False,-1,stimulus_MIJA04_Yes-No Task_2019_Jun_17_1208_45,-1,False,2019_Jun_17_1208,Yes-No Task,1,MIJA04,
Yes-No Task,15,0,15,0,6,-1,Hit,0.600552999997,True,-1,stimulus_MIJA04_Yes-No Task_2019_Jun_17_1208_46,-1,False,2019_Jun_17_1208,Yes-No Task,1,MIJA04,
Yes-No Task,16,0,16,0,6,-1,Hit,0.467946999997,True,-1,stimulus_MIJA04_Yes-No Task_2019_Jun_17_1208_47,-1,False,2019_Jun_17_1208,Yes-No Task,1,MIJA04,
Yes-No Task,17,0,17,0,6,-1,Correct Rejection,0.634896999982,False,-1,stimulus_MIJA04_Yes-No Task_2019_Jun_17_1208_48,-1,False,2019_Jun_17_1208,Yes-No Task,1,MIJA04,
Yes-No Task,18,0,18,0,6,-1,Miss,0.433900000004,True,-1,stimulus_MIJA04_Yes-No Task_2019_Jun_17_1208_49,-1,False,2019_Jun_17_1208,Yes-No Task,1,MIJA04,
Yes-No Task,19,0,19,0,6,-1,False Alarm,0.467323699995,False,-1,stimulus_MIJA04_Yes-No Task_2019_Jun_17_1208_50,-1,False,2019_Jun_17_1208,Yes-No Task,1,MIJA04,
Yes-No Task,20,0,20,0,6,-1,Miss,0.567032999999,True,-1,stimulus_MIJA04_Yes-No Task_2019_Jun_17_1208_51,-1,False,2019_Jun_17_1208,Yes-No Task,1,MIJA04,
Yes-No Task,21,0,21,0,6,-1,False Alarm,0.600546000001,False,-1,stimulus_MIJA04_Yes-No Task_2019_Jun_17_1208_52,-1,False,2019_Jun_17_1208,Yes-No Task,1,MIJA04,
Yes-No Task,22,0,22,0,6,-1,Correct Rejection,0.668675399997,False,-1,stimulus_MIJA04_Yes-No Task_2019_Jun_17_1208_53,-1,False,2019_Jun_17_1208,Yes-No Task,1,MIJA04,
Yes-No Task,23,0,23,0,6,-1,Hit,0.500606199988,True,-1,stimulus_MIJA04_Yes-No Task_2019_Jun_17_1208_54,-1,False,2019_Jun_17_1208,Yes-No Task,1,MIJA04,
Yes-No Task,24,0,24,0,6,-1,Correct Rejection,0.600638200005,False,-1,stimulus_MIJA04_Yes-No Task_2019_Jun_17_1208_55,-1,False,2019_Jun_17_1208,Yes-No Task,1,MIJA04,
Yes-No Task,25,0,25,0,6,-1,Hit,0.467423900001,True,-1,stimulus_MIJA04_Yes-No Task_2019_Jun_17_1208_56,-1,False,2019_Jun_17_1208,Yes-No Task,1,MIJA04,
Yes-No Task,26,0,26,0,6,-1,Hit,0.63431340002,True,-1,stimulus_MIJA04_Yes-No Task_2019_Jun_17_1208_57,-1,False,2019_Jun_17_1208,Yes-No Task,1,MIJA04,
Yes-No Task,27,0,27,0,6,-1,Miss,0.467929000006,True,-1,stimulus_MIJA04_Yes-No Task_2019_Jun_17_1208_58,-1,False,2019_Jun_17_1208,Yes-No Task,1,MIJA04,
Yes-No Task,28,0,28,0,6,-1,Hit,0.534441199998,True,-1,stimulus_MIJA04_Yes-No Task_2019_Jun_17_1208_59,-1,False,2019_Jun_17_1208,Yes-No Task,1,MIJA04,
Yes-No Task,29,0,29,0,6,-1,Correct Rejection,0.4679473,False,-1,stimulus_MIJA04_Yes-No Task_2019_Jun_17_1208_60,-1,False,2019_Jun_17_1208,Yes-No Task,1,MIJA04,
Yes-No Task,0,0,0,0,12,-1,Hit,0.767157800001,True,-1,stimulus_MIJA04_Yes-No Task_2019_Jun_17_1208_61,-1,False,2019_Jun_17_1208,Yes-No Task,1,MIJA04,
Yes-No Task,1,0,1,0,12,-1,Hit,0.533760499995,True,-1,stimulus_MIJA04_Yes-No Task_2019_Jun_17_1208_62,-1,False,2019_Jun_17_1208,Yes-No Task,1,MIJA04,
Yes-No Task,2,0,2,0,12,-1,Hit,0.500331499992,True,-1,stimulus_MIJA04_Yes-No Task_2019_Jun_17_1208_63,-1,False,2019_Jun_17_1208,Yes-No Task,1,MIJA04,
Yes-No Task,3,0,3,0,12,-1,Correct Rejection,0.400591099984,False,-1,stimulus_MIJA04_Yes-No Task_2019_Jun_17_1208_64,-1,False,2019_Jun_17_1208,Yes-No Task,1,MIJA04,
Yes-No Task,4,0,4,0,12,-1,Miss,0.433417699998,True,-1,stimulus_MIJA04_Yes-No Task_2019_Jun_17_1208_65,-1,False,2019_Jun_17_1208,Yes-No Task,1,MIJA04,
Yes-No Task,5,0,5,0,12,-1,False Alarm,0.467975300009,False,-1,stimulus_MIJA04_Yes-No Task_2019_Jun_17_1208_66,-1,False,2019_Jun_17_1208,Yes-No Task,1,MIJA04,
Yes-No Task,6,0,6,0,12,-1,Hit,0.499903999997,True,-1,stimulus_MIJA04_Yes-No Task_2019_Jun_17_1208_67,-1,False,2019_Jun_17_1208,Yes-No Task,1,MIJA04,
Yes-No Task,7,0,7,0,12,-1,Hit,0.467206899979,True,-1,stimulus_MIJA04_Yes-No Task_2019_Jun_17_1208_68,-1,False,2019_Jun_17_1208,Yes-No Task,1,MIJA04,
Yes-No Task,8,0,8,0,12,-1,Correct Rejection,0.433805500012,False,-1,stimulus_MIJA04_Yes-No Task_2019_Jun_17_1208_69,-1,False,2019_Jun_17_1208,Yes-No Task,1,MIJA04,
Yes-No Task,9,0,9,0,12,-1,Hit,0.500648999994,True,-1,stimulus_MIJA04_Yes-No Task_2019_Jun_17_1208_70,-1,False,2019_Jun_17_1208,Yes-No Task,1,MIJA04,
Yes-No Task,10,0,10,0,12,-1,Correct Rejection,0.466856100014,False,-1,stimulus_MIJA04_Yes-No Task_2019_Jun_17_1208_71,-1,False,2019_Jun_17_1208,Yes-No Task,1,MIJA04,
Yes-No Task,11,0,11,0,12,-1,Correct Rejection,0.501961200003,False,-1,stimulus_MIJA04_Yes-No Task_2019_Jun_17_1208_72,-1,False,2019_Jun_17_1208,Yes-No Task,1,MIJA04,
Yes-No Task,12,0,12,0,12,-1,Hit,0.501128100004,True,-1,stimulus_MIJA04_Yes-No Task_2019_Jun_17_1208_73,-1,False,2019_Jun_17_1208,Yes-No Task,1,MIJA04,
Yes-No Task,13,0,13,0,12,-1,Correct Rejection,0.500495100016,False,-1,stimulus_MIJA04_Yes-No Task_2019_Jun_17_1208_74,-1,False,2019_Jun_17_1208,Yes-No Task,1,MIJA04,
Yes-No Task,14,0,14,0,12,-1,Hit,0.467362199997,True,-1,stimulus_MIJA04_Yes-No Task_2019_Jun_17_1208_75,-1,False,2019_Jun_17_1208,Yes-No Task,1,MIJA04,
Yes-No Task,15,0,15,0,12,-1,Hit,0.466946500004,True,-1,stimulus_MIJA04_Yes-No Task_2019_Jun_17_1208_76,-1,False,2019_Jun_17_1208,Yes-No Task,1,MIJA04,
Yes-No Task,16,0,16,0,12,-1,Hit,0.432852600003,True,-1,stimulus_MIJA04_Yes-No Task_2019_Jun_17_1208_77,-1,False,2019_Jun_17_1208,Yes-No Task,1,MIJA04,
Yes-No Task,17,0,17,0,12,-1,Hit,0.500729399995,True,-1,stimulus_MIJA04_Yes-No Task_2019_Jun_17_1208_78,-1,False,2019_Jun_17_1208,Yes-No Task,1,MIJA04,
Yes-No Task,18,0,18,0,12,-1,Hit,0.400583400013,True,-1,stimulus_MIJA04_Yes-No Task_2019_Jun_17_1208_79,-1,False,2019_Jun_17_1208,Yes-No Task,1,MIJA04,
Yes-No Task,19,0,19,0,12,-1,Correct Rejection,0.434539900016,False,-1,stimulus_MIJA04_Yes-No Task_2019_Jun_17_1208_80,-1,False,2019_Jun_17_1208,Yes-No Task,1,MIJA04,
Yes-No Task,20,0,20,0,12,-1,False Alarm,0.433912999986,False,-1,stimulus_MIJA04_Yes-No Task_2019_Jun_17_1208_81,-1,False,2019_Jun_17_1208,Yes-No Task,1,MIJA04,
Yes-No Task,21,0,21,0,12,-1,Correct Rejection,0.567405899987,False,-1,stimulus_MIJA04_Yes-No Task_2019_Jun_17_1208_82,-1,False,2019_Jun_17_1208,Yes-No Task,1,MIJA04,
Yes-No Task,22,0,22,0,12,-1,Hit,0.467213099997,True,-1,stimulus_MIJA04_Yes-No Task_2019_Jun_17_1208_83,-1,False,2019_Jun_17_1208,Yes-No Task,1,MIJA04,
Yes-No Task,23,0,23,0,12,-1,Hit,0.501083300012,True,-1,stimulus_MIJA04_Yes-No Task_2019_Jun_17_1208_84,-1,False,2019_Jun_17_1208,Yes-No Task,1,MIJA04,
Yes-No Task,24,0,24,0,12,-1,Hit,0.433543300023,True,-1,stimulus_MIJA04_Yes-No Task_2019_Jun_17_1208_85,-1,False,2019_Jun_17_1208,Yes-No Task,1,MIJA04,
Yes-No Task,25,0,25,0,12,-1,Hit,0.402603299997,True,-1,stimulus_MIJA04_Yes-No Task_2019_Jun_17_1208_86,-1,False,2019_Jun_17_1208,Yes-No Task,1,MIJA04,
Yes-No Task,26,0,26,0,12,-1,Correct Rejection,0.533748600021,False,-1,stimulus_MIJA04_Yes-No Task_2019_Jun_17_1208_87,-1,False,2019_Jun_17_1208,Yes-No Task,1,MIJA04,
Yes-No Task,27,0,27,0,12,-1,False Alarm,0.468407299981,False,-1,stimulus_MIJA04_Yes-No Task_2019_Jun_17_1208_88,-1,False,2019_Jun_17_1208,Yes-No Task,1,MIJA04,
Yes-No Task,28,0,28,0,12,-1,Correct Rejection,0.733895700017,False,-1,stimulus_MIJA04_Yes-No Task_2019_Jun_17_1208_89,-1,False,2019_Jun_17_1208,Yes-No Task,1,MIJA04,
Yes-No Task,29,0,29,0,12,-1,Hit,0.467231300019,True,-1,stimulus_MIJA04_Yes-No Task_2019_Jun_17_1208_90,-1,False,2019_Jun_17_1208,Yes-No Task,1,MIJA04,
Yes-No Task,0,0,0,0,3,-1,No Answer,-1,False,-1,stimulus_MIJA04_Yes-No Task_2019_Jun_17_1208_91,-1,False,2019_Jun_17_1208,Yes-No Task,1,MIJA04,
Yes-No Task,1,0,1,0,3,-1,Correct Rejection,0.466988400003,False,-1,stimulus_MIJA04_Yes-No Task_2019_Jun_17_1208_92,-1,False,2019_Jun_17_1208,Yes-No Task,1,MIJA04,
Yes-No Task,2,0,2,0,3,-1,Hit,0.566622500017,True,-1,stimulus_MIJA04_Yes-No Task_2019_Jun_17_1208_93,-1,False,2019_Jun_17_1208,Yes-No Task,1,MIJA04,
Yes-No Task,3,0,3,0,3,-1,False Alarm,0.533841900004,False,-1,stimulus_MIJA04_Yes-No Task_2019_Jun_17_1208_94,-1,False,2019_Jun_17_1208,Yes-No Task,1,MIJA04,
Yes-No Task,4,0,4,0,3,-1,Miss,0.667275699991,True,-1,stimulus_MIJA04_Yes-No Task_2019_Jun_17_1208_95,-1,False,2019_Jun_17_1208,Yes-No Task,1,MIJA04,
Yes-No Task,5,0,5,0,3,-1,Correct Rejection,0.466610000003,False,-1,stimulus_MIJA04_Yes-No Task_2019_Jun_17_1208_96,-1,False,2019_Jun_17_1208,Yes-No Task,1,MIJA04,
Yes-No Task,6,0,6,0,3,-1,Correct Rejection,0.567433899996,False,-1,stimulus_MIJA04_Yes-No Task_2019_Jun_17_1208_97,-1,False,2019_Jun_17_1208,Yes-No Task,1,MIJA04,
Yes-No Task,7,0,7,0,3,-1,Correct Rejection,0.567478399986,False,-1,stimulus_MIJA04_Yes-No Task_2019_Jun_17_1208_98,-1,False,2019_Jun_17_1208,Yes-No Task,1,MIJA04,
Yes-No Task,8,0,8,0,3,-1,Hit,0.50069310001,True,-1,stimulus_MIJA04_Yes-No Task_2019_Jun_17_1208_99,-1,False,2019_Jun_17_1208,Yes-No Task,1,MIJA04,
Yes-No Task,9,0,9,0,3,-1,Miss,0.53339679999,True,-1,stimulus_MIJA04_Yes-No Task_2019_Jun_17_1208_100,-1,False,2019_Jun_17_1208,Yes-No Task,1,MIJA04,
Yes-No Task,10,0,10,0,3,-1,Hit,0.566789600009,True,-1,stimulus_MIJA04_Yes-No Task_2019_Jun_17_1208_101,-1,False,2019_Jun_17_1208,Yes-No Task,1,MIJA04,
Yes-No Task,11,0,11,0,3,-1,Hit,0.434456700023,True,-1,stimulus_MIJA04_Yes-No Task_2019_Jun_17_1208_102,-1,False,2019_Jun_17_1208,Yes-No Task,1,MIJA04,
Yes-No Task,12,0,12,0,3,-1,Correct Rejection,0.567269000021,False,-1,stimulus_MIJA04_Yes-No Task_2019_Jun_17_1208_103,-1,False,2019_Jun_17_1208,Yes-No Task,1,MIJA04,
Yes-No Task,13,0,13,0,3,-1,False Alarm,0.566213899991,False,-1,stimulus_MIJA04_Yes-No Task_2019_Jun_17_1208_104,-1,False,2019_Jun_17_1208,Yes-No Task,1,MIJA04,
Yes-No Task,14,0,14,0,3,-1,Hit,0.532985099999,True,-1,stimulus_MIJA04_Yes-No Task_2019_Jun_17_1208_105,-1,False,2019_Jun_17_1208,Yes-No Task,1,MIJA04,
Yes-No Task,15,0,15,0,3,-1,Hit,0.467160599976,True,-1,stimulus_MIJA04_Yes-No Task_2019_Jun_17_1208_106,-1,False,2019_Jun_17_1208,Yes-No Task,1,MIJA04,
Yes-No Task,16,0,16,0,3,-1,Miss,0.333121599979,True,-1,stimulus_MIJA04_Yes-No Task_2019_Jun_17_1208_107,-1,False,2019_Jun_17_1208,Yes-No Task,1,MIJA04,
Yes-No Task,17,0,17,0,3,-1,Hit,0.466592600016,True,-1,stimulus_MIJA04_Yes-No Task_2019_Jun_17_1208_108,-1,False,2019_Jun_17_1208,Yes-No Task,1,MIJA04,
Yes-No Task,18,0,18,0,3,-1,Correct Rejection,0.433519999991,False,-1,stimulus_MIJA04_Yes-No Task_2019_Jun_17_1208_109,-1,False,2019_Jun_17_1208,Yes-No Task,1,MIJA04,
Yes-No Task,19,0,19,0,3,-1,False Alarm,0.400749099994,False,-1,stimulus_MIJA04_Yes-No Task_2019_Jun_17_1208_110,-1,False,2019_Jun_17_1208,Yes-No Task,1,MIJA04,
Yes-No Task,20,0,20,0,3,-1,Hit,0.500719400006,True,-1,stimulus_MIJA04_Yes-No Task_2019_Jun_17_1208_111,-1,False,2019_Jun_17_1208,Yes-No Task,1,MIJA04,
Yes-No Task,21,0,21,0,3,-1,False Alarm,0.50163720001,False,-1,stimulus_MIJA04_Yes-No Task_2019_Jun_17_1208_112,-1,False,2019_Jun_17_1208,Yes-No Task,1,MIJA04,
Yes-No Task,22,0,22,0,3,-1,Hit,0.534436000016,True,-1,stimulus_MIJA04_Yes-No Task_2019_Jun_17_1208_113,-1,False,2019_Jun_17_1208,Yes-No Task,1,MIJA04,
Yes-No Task,23,0,23,0,3,-1,Hit,0.601556100009,True,-1,stimulus_MIJA04_Yes-No Task_2019_Jun_17_1208_114,-1,False,2019_Jun_17_1208,Yes-No Task,1,MIJA04,
Yes-No Task,24,0,24,0,3,-1,Correct Rejection,0.300440299994,False,-1,stimulus_MIJA04_Yes-No Task_2019_Jun_17_1208_115,-1,False,2019_Jun_17_1208,Yes-No Task,1,MIJA04,
Yes-No Task,25,0,25,0,3,-1,Hit,0.467509200011,True,-1,stimulus_MIJA04_Yes-No Task_2019_Jun_17_1208_116,-1,False,2019_Jun_17_1208,Yes-No Task,1,MIJA04,
Yes-No Task,26,0,26,0,3,-1,Hit,0.434285099996,True,-1,stimulus_MIJA04_Yes-No Task_2019_Jun_17_1208_117,-1,False,2019_Jun_17_1208,Yes-No Task,1,MIJA04,
Yes-No Task,27,0,27,0,3,-1,Correct Rejection,0.433924799989,False,-1,stimulus_MIJA04_Yes-No Task_2019_Jun_17_1208_118,-1,False,2019_Jun_17_1208,Yes-No Task,1,MIJA04,
Yes-No Task,28,0,28,0,3,-1,False Alarm,0.399493000004,False,-1,stimulus_MIJA04_Yes-No Task_2019_Jun_17_1208_119,-1,False,2019_Jun_17_1208,Yes-No Task,1,MIJA04,
Yes-No Task,29,0,29,0,3,-1,Hit,0.467144299997,True,-1,stimulus_MIJA04_Yes-No Task_2019_Jun_17_1208_120,-1,False,2019_Jun_17_1208,Yes-No Task,1,MIJA04,
