Task,trials.thisRepN,trials.thisTrialN,trials.thisN,trials.thisIndex,signal_intensity,constant Value,response,time_response,signal_on_stimuluspos1,signal_on_stimuluspos2,stimulus_name_pos1,stimulus_name_pos2,random_intensity,date,expName,session,participant,
Yes-No Task,0,0,0,0,9.6,-1,Correct Rejection,0.600322499988,False,-1,stimulus_MIPA23_Yes-No Task_2019_Jun_17_1424_1,-1,True,2019_Jun_17_1424,Yes-No Task,2,MIPA23,
Yes-No Task,1,0,1,0,9.6,-1,Hit,0.467036600021,True,-1,stimulus_MIPA23_Yes-No Task_2019_Jun_17_1424_2,-1,True,2019_Jun_17_1424,Yes-No Task,2,MIPA23,
Yes-No Task,2,0,2,0,2.9,-1,Miss,0.433211700001,True,-1,stimulus_MIPA23_Yes-No Task_2019_Jun_17_1424_3,-1,True,2019_Jun_17_1424,Yes-No Task,2,MIPA23,
Yes-No Task,3,0,3,0,5.7,-1,Hit,0.733934399992,True,-1,stimulus_MIPA23_Yes-No Task_2019_Jun_17_1424_4,-1,True,2019_Jun_17_1424,Yes-No Task,2,MIPA23,
Yes-No Task,4,0,4,0,10.7,-1,Hit,0.467144100025,True,-1,stimulus_MIPA23_Yes-No Task_2019_Jun_17_1424_5,-1,True,2019_Jun_17_1424,Yes-No Task,2,MIPA23,
Yes-No Task,5,0,5,0,7.6,-1,Correct Rejection,0.567344500014,False,-1,stimulus_MIPA23_Yes-No Task_2019_Jun_17_1424_6,-1,True,2019_Jun_17_1424,Yes-No Task,2,MIPA23,
Yes-No Task,6,0,6,0,9.6,-1,Miss,0.500621399988,True,-1,stimulus_MIPA23_Yes-No Task_2019_Jun_17_1424_7,-1,True,2019_Jun_17_1424,Yes-No Task,2,MIPA23,
Yes-No Task,7,0,7,0,4.5,-1,Correct Rejection,0.638193799998,False,-1,stimulus_MIPA23_Yes-No Task_2019_Jun_17_1424_8,-1,True,2019_Jun_17_1424,Yes-No Task,2,MIPA23,
Yes-No Task,8,0,8,0,2.9,-1,Correct Rejection,0.631300899986,False,-1,stimulus_MIPA23_Yes-No Task_2019_Jun_17_1424_9,-1,True,2019_Jun_17_1424,Yes-No Task,2,MIPA23,
Yes-No Task,9,0,9,0,9.6,-1,False Alarm,0.767469199985,False,-1,stimulus_MIPA23_Yes-No Task_2019_Jun_17_1424_10,-1,True,2019_Jun_17_1424,Yes-No Task,2,MIPA23,
Yes-No Task,10,0,10,0,10.7,-1,Correct Rejection,0.700895799993,False,-1,stimulus_MIPA23_Yes-No Task_2019_Jun_17_1424_11,-1,True,2019_Jun_17_1424,Yes-No Task,2,MIPA23,
Yes-No Task,11,0,11,0,9.6,-1,Hit,0.43384860002,True,-1,stimulus_MIPA23_Yes-No Task_2019_Jun_17_1424_12,-1,True,2019_Jun_17_1424,Yes-No Task,2,MIPA23,
Yes-No Task,12,0,12,0,10.7,-1,Hit,0.435133499996,True,-1,stimulus_MIPA23_Yes-No Task_2019_Jun_17_1424_13,-1,True,2019_Jun_17_1424,Yes-No Task,2,MIPA23,
Yes-No Task,13,0,13,0,7.6,-1,Hit,0.638853599987,True,-1,stimulus_MIPA23_Yes-No Task_2019_Jun_17_1424_14,-1,True,2019_Jun_17_1424,Yes-No Task,2,MIPA23,
Yes-No Task,14,0,14,0,10.7,-1,False Alarm,0.466646399989,False,-1,stimulus_MIPA23_Yes-No Task_2019_Jun_17_1424_15,-1,True,2019_Jun_17_1424,Yes-No Task,2,MIPA23,
Yes-No Task,15,0,15,0,10.7,-1,Correct Rejection,0.666899100004,False,-1,stimulus_MIPA23_Yes-No Task_2019_Jun_17_1424_16,-1,True,2019_Jun_17_1424,Yes-No Task,2,MIPA23,
Yes-No Task,16,0,16,0,9.6,-1,No Answer,-1,False,-1,stimulus_MIPA23_Yes-No Task_2019_Jun_17_1424_17,-1,True,2019_Jun_17_1424,Yes-No Task,2,MIPA23,
Yes-No Task,17,0,17,0,6.7,-1,Hit,0.500572199991,True,-1,stimulus_MIPA23_Yes-No Task_2019_Jun_17_1424_18,-1,True,2019_Jun_17_1424,Yes-No Task,2,MIPA23,
Yes-No Task,18,0,18,0,2.9,-1,Miss,0.53387449999,True,-1,stimulus_MIPA23_Yes-No Task_2019_Jun_17_1424_19,-1,True,2019_Jun_17_1424,Yes-No Task,2,MIPA23,
Yes-No Task,19,0,19,0,9.6,-1,Hit,0.534046199988,True,-1,stimulus_MIPA23_Yes-No Task_2019_Jun_17_1424_20,-1,True,2019_Jun_17_1424,Yes-No Task,2,MIPA23,
Yes-No Task,20,0,20,0,8.6,-1,Correct Rejection,0.567611799983,False,-1,stimulus_MIPA23_Yes-No Task_2019_Jun_17_1424_21,-1,True,2019_Jun_17_1424,Yes-No Task,2,MIPA23,
Yes-No Task,21,0,21,0,7.6,-1,False Alarm,0.467654799984,False,-1,stimulus_MIPA23_Yes-No Task_2019_Jun_17_1424_22,-1,True,2019_Jun_17_1424,Yes-No Task,2,MIPA23,
Yes-No Task,22,0,22,0,10.7,-1,Correct Rejection,0.467926500016,False,-1,stimulus_MIPA23_Yes-No Task_2019_Jun_17_1424_23,-1,True,2019_Jun_17_1424,Yes-No Task,2,MIPA23,
Yes-No Task,23,0,23,0,6.7,-1,Correct Rejection,0.599823800003,False,-1,stimulus_MIPA23_Yes-No Task_2019_Jun_17_1424_24,-1,True,2019_Jun_17_1424,Yes-No Task,2,MIPA23,
Yes-No Task,24,0,24,0,2.9,-1,Hit,0.601838200004,True,-1,stimulus_MIPA23_Yes-No Task_2019_Jun_17_1424_25,-1,True,2019_Jun_17_1424,Yes-No Task,2,MIPA23,
Yes-No Task,25,0,25,0,10.7,-1,Hit,0.534369800007,True,-1,stimulus_MIPA23_Yes-No Task_2019_Jun_17_1424_26,-1,True,2019_Jun_17_1424,Yes-No Task,2,MIPA23,
Yes-No Task,26,0,26,0,8.6,-1,Hit,0.433923700009,True,-1,stimulus_MIPA23_Yes-No Task_2019_Jun_17_1424_27,-1,True,2019_Jun_17_1424,Yes-No Task,2,MIPA23,
Yes-No Task,27,0,27,0,10.7,-1,Hit,0.467323499994,True,-1,stimulus_MIPA23_Yes-No Task_2019_Jun_17_1424_28,-1,True,2019_Jun_17_1424,Yes-No Task,2,MIPA23,
Yes-No Task,28,0,28,0,10.7,-1,False Alarm,0.434277699998,False,-1,stimulus_MIPA23_Yes-No Task_2019_Jun_17_1424_29,-1,True,2019_Jun_17_1424,Yes-No Task,2,MIPA23,
Yes-No Task,29,0,29,0,8.6,-1,Hit,0.4008416,True,-1,stimulus_MIPA23_Yes-No Task_2019_Jun_17_1424_30,-1,True,2019_Jun_17_1424,Yes-No Task,2,MIPA23,
Yes-No Task,30,0,30,0,7.6,-1,Hit,0.433582400001,True,-1,stimulus_MIPA23_Yes-No Task_2019_Jun_17_1424_31,-1,True,2019_Jun_17_1424,Yes-No Task,2,MIPA23,
Yes-No Task,31,0,31,0,2.9,-1,Correct Rejection,0.567533099995,False,-1,stimulus_MIPA23_Yes-No Task_2019_Jun_17_1424_32,-1,True,2019_Jun_17_1424,Yes-No Task,2,MIPA23,
Yes-No Task,32,0,32,0,5.7,-1,Miss,0.466012600024,True,-1,stimulus_MIPA23_Yes-No Task_2019_Jun_17_1424_33,-1,True,2019_Jun_17_1424,Yes-No Task,2,MIPA23,
Yes-No Task,33,0,33,0,6.7,-1,Hit,0.433904199977,True,-1,stimulus_MIPA23_Yes-No Task_2019_Jun_17_1424_34,-1,True,2019_Jun_17_1424,Yes-No Task,2,MIPA23,
Yes-No Task,34,0,34,0,10.7,-1,Hit,0.400682099978,True,-1,stimulus_MIPA23_Yes-No Task_2019_Jun_17_1424_35,-1,True,2019_Jun_17_1424,Yes-No Task,2,MIPA23,
Yes-No Task,35,0,35,0,2.9,-1,Correct Rejection,0.56921430002,False,-1,stimulus_MIPA23_Yes-No Task_2019_Jun_17_1424_36,-1,True,2019_Jun_17_1424,Yes-No Task,2,MIPA23,
Yes-No Task,36,0,36,0,2.9,-1,Hit,0.534376299998,True,-1,stimulus_MIPA23_Yes-No Task_2019_Jun_17_1424_37,-1,True,2019_Jun_17_1424,Yes-No Task,2,MIPA23,
Yes-No Task,37,0,37,0,5.7,-1,False Alarm,0.46801740001,False,-1,stimulus_MIPA23_Yes-No Task_2019_Jun_17_1424_38,-1,True,2019_Jun_17_1424,Yes-No Task,2,MIPA23,
Yes-No Task,38,0,38,0,5.7,-1,False Alarm,0.634003600018,False,-1,stimulus_MIPA23_Yes-No Task_2019_Jun_17_1424_39,-1,True,2019_Jun_17_1424,Yes-No Task,2,MIPA23,
Yes-No Task,39,0,39,0,10.7,-1,Hit,0.400510500011,True,-1,stimulus_MIPA23_Yes-No Task_2019_Jun_17_1424_40,-1,True,2019_Jun_17_1424,Yes-No Task,2,MIPA23,
Yes-No Task,40,0,40,0,6.7,-1,Correct Rejection,0.567429999996,False,-1,stimulus_MIPA23_Yes-No Task_2019_Jun_17_1424_41,-1,True,2019_Jun_17_1424,Yes-No Task,2,MIPA23,
Yes-No Task,41,0,41,0,2.9,-1,False Alarm,0.600779499975,False,-1,stimulus_MIPA23_Yes-No Task_2019_Jun_17_1424_42,-1,True,2019_Jun_17_1424,Yes-No Task,2,MIPA23,
Yes-No Task,42,0,42,0,2.9,-1,Correct Rejection,0.46811289998,False,-1,stimulus_MIPA23_Yes-No Task_2019_Jun_17_1424_43,-1,True,2019_Jun_17_1424,Yes-No Task,2,MIPA23,
Yes-No Task,43,0,43,0,6.7,-1,Correct Rejection,0.533746600006,False,-1,stimulus_MIPA23_Yes-No Task_2019_Jun_17_1424_44,-1,True,2019_Jun_17_1424,Yes-No Task,2,MIPA23,
Yes-No Task,44,0,44,0,5.7,-1,Hit,0.43442070001,True,-1,stimulus_MIPA23_Yes-No Task_2019_Jun_17_1424_45,-1,True,2019_Jun_17_1424,Yes-No Task,2,MIPA23,
Yes-No Task,45,0,45,0,6.7,-1,Correct Rejection,0.567358700006,False,-1,stimulus_MIPA23_Yes-No Task_2019_Jun_17_1424_46,-1,True,2019_Jun_17_1424,Yes-No Task,2,MIPA23,
Yes-No Task,46,0,46,0,2.9,-1,False Alarm,0.468230600003,False,-1,stimulus_MIPA23_Yes-No Task_2019_Jun_17_1424_47,-1,True,2019_Jun_17_1424,Yes-No Task,2,MIPA23,
Yes-No Task,47,0,47,0,2.9,-1,Correct Rejection,0.567540799995,False,-1,stimulus_MIPA23_Yes-No Task_2019_Jun_17_1424_48,-1,True,2019_Jun_17_1424,Yes-No Task,2,MIPA23,
Yes-No Task,48,0,48,0,7.6,-1,Hit,0.533273600013,True,-1,stimulus_MIPA23_Yes-No Task_2019_Jun_17_1424_49,-1,True,2019_Jun_17_1424,Yes-No Task,2,MIPA23,
Yes-No Task,49,0,49,0,10.7,-1,Hit,0.634530599986,True,-1,stimulus_MIPA23_Yes-No Task_2019_Jun_17_1424_50,-1,True,2019_Jun_17_1424,Yes-No Task,2,MIPA23,
Yes-No Task,50,0,50,0,5.7,-1,Miss,0.567326899996,True,-1,stimulus_MIPA23_Yes-No Task_2019_Jun_17_1424_51,-1,True,2019_Jun_17_1424,Yes-No Task,2,MIPA23,
Yes-No Task,51,0,51,0,8.6,-1,False Alarm,0.467208799993,False,-1,stimulus_MIPA23_Yes-No Task_2019_Jun_17_1424_52,-1,True,2019_Jun_17_1424,Yes-No Task,2,MIPA23,
Yes-No Task,52,0,52,0,6.7,-1,Correct Rejection,0.500513100007,False,-1,stimulus_MIPA23_Yes-No Task_2019_Jun_17_1424_53,-1,True,2019_Jun_17_1424,Yes-No Task,2,MIPA23,
Yes-No Task,53,0,53,0,4.5,-1,False Alarm,0.467125700001,False,-1,stimulus_MIPA23_Yes-No Task_2019_Jun_17_1424_54,-1,True,2019_Jun_17_1424,Yes-No Task,2,MIPA23,
Yes-No Task,54,0,54,0,10.7,-1,Hit,0.731778799993,True,-1,stimulus_MIPA23_Yes-No Task_2019_Jun_17_1424_55,-1,True,2019_Jun_17_1424,Yes-No Task,2,MIPA23,
Yes-No Task,55,0,55,0,7.6,-1,Correct Rejection,0.534506299999,False,-1,stimulus_MIPA23_Yes-No Task_2019_Jun_17_1424_56,-1,True,2019_Jun_17_1424,Yes-No Task,2,MIPA23,
Yes-No Task,56,0,56,0,6.7,-1,Correct Rejection,0.500784299977,False,-1,stimulus_MIPA23_Yes-No Task_2019_Jun_17_1424_57,-1,True,2019_Jun_17_1424,Yes-No Task,2,MIPA23,
Yes-No Task,57,0,57,0,6.7,-1,Hit,0.532678299991,True,-1,stimulus_MIPA23_Yes-No Task_2019_Jun_17_1424_58,-1,True,2019_Jun_17_1424,Yes-No Task,2,MIPA23,
Yes-No Task,58,0,58,0,4.5,-1,Hit,0.732723699999,True,-1,stimulus_MIPA23_Yes-No Task_2019_Jun_17_1424_59,-1,True,2019_Jun_17_1424,Yes-No Task,2,MIPA23,
Yes-No Task,59,0,59,0,4.5,-1,No Answer,-1,False,-1,stimulus_MIPA23_Yes-No Task_2019_Jun_17_1424_60,-1,True,2019_Jun_17_1424,Yes-No Task,2,MIPA23,
Yes-No Task,60,0,60,0,8.6,-1,Hit,0.633856699977,True,-1,stimulus_MIPA23_Yes-No Task_2019_Jun_17_1424_61,-1,True,2019_Jun_17_1424,Yes-No Task,2,MIPA23,
Yes-No Task,61,0,61,0,4.5,-1,Correct Rejection,0.500596500002,False,-1,stimulus_MIPA23_Yes-No Task_2019_Jun_17_1424_62,-1,True,2019_Jun_17_1424,Yes-No Task,2,MIPA23,
Yes-No Task,62,0,62,0,7.6,-1,Hit,0.600639400014,True,-1,stimulus_MIPA23_Yes-No Task_2019_Jun_17_1424_63,-1,True,2019_Jun_17_1424,Yes-No Task,2,MIPA23,
Yes-No Task,63,0,63,0,10.7,-1,Correct Rejection,0.501869500004,False,-1,stimulus_MIPA23_Yes-No Task_2019_Jun_17_1424_64,-1,True,2019_Jun_17_1424,Yes-No Task,2,MIPA23,
Yes-No Task,64,0,64,0,7.6,-1,Hit,0.666986700002,True,-1,stimulus_MIPA23_Yes-No Task_2019_Jun_17_1424_65,-1,True,2019_Jun_17_1424,Yes-No Task,2,MIPA23,
Yes-No Task,65,0,65,0,2.9,-1,Miss,0.667462700017,True,-1,stimulus_MIPA23_Yes-No Task_2019_Jun_17_1424_66,-1,True,2019_Jun_17_1424,Yes-No Task,2,MIPA23,
Yes-No Task,66,0,66,0,10.7,-1,Hit,0.500497900008,True,-1,stimulus_MIPA23_Yes-No Task_2019_Jun_17_1424_67,-1,True,2019_Jun_17_1424,Yes-No Task,2,MIPA23,
Yes-No Task,67,0,67,0,7.6,-1,Hit,0.433912600012,True,-1,stimulus_MIPA23_Yes-No Task_2019_Jun_17_1424_68,-1,True,2019_Jun_17_1424,Yes-No Task,2,MIPA23,
Yes-No Task,68,0,68,0,9.6,-1,Correct Rejection,0.533770399983,False,-1,stimulus_MIPA23_Yes-No Task_2019_Jun_17_1424_69,-1,True,2019_Jun_17_1424,Yes-No Task,2,MIPA23,
Yes-No Task,69,0,69,0,9.6,-1,Correct Rejection,0.467081100011,False,-1,stimulus_MIPA23_Yes-No Task_2019_Jun_17_1424_70,-1,True,2019_Jun_17_1424,Yes-No Task,2,MIPA23,
Yes-No Task,70,0,70,0,9.6,-1,False Alarm,0.46742869998,False,-1,stimulus_MIPA23_Yes-No Task_2019_Jun_17_1424_71,-1,True,2019_Jun_17_1424,Yes-No Task,2,MIPA23,
Yes-No Task,71,0,71,0,6.7,-1,Correct Rejection,0.568512400001,False,-1,stimulus_MIPA23_Yes-No Task_2019_Jun_17_1424_72,-1,True,2019_Jun_17_1424,Yes-No Task,2,MIPA23,
Yes-No Task,72,0,72,0,6.7,-1,Correct Rejection,0.568041199993,False,-1,stimulus_MIPA23_Yes-No Task_2019_Jun_17_1424_73,-1,True,2019_Jun_17_1424,Yes-No Task,2,MIPA23,
Yes-No Task,73,0,73,0,5.7,-1,Hit,0.498189500009,True,-1,stimulus_MIPA23_Yes-No Task_2019_Jun_17_1424_74,-1,True,2019_Jun_17_1424,Yes-No Task,2,MIPA23,
Yes-No Task,74,0,74,0,2.9,-1,Correct Rejection,0.53411800001,False,-1,stimulus_MIPA23_Yes-No Task_2019_Jun_17_1424_75,-1,True,2019_Jun_17_1424,Yes-No Task,2,MIPA23,
Yes-No Task,0,0,0,0,8.6,-1,Correct Rejection,0.600774599996,False,-1,stimulus_MIPA23_Yes-No Task_2019_Jun_17_1424_76,-1,True,2019_Jun_17_1424,Yes-No Task,2,MIPA23,
Yes-No Task,1,0,1,0,6.7,-1,Miss,0.50073629999,True,-1,stimulus_MIPA23_Yes-No Task_2019_Jun_17_1424_77,-1,True,2019_Jun_17_1424,Yes-No Task,2,MIPA23,
Yes-No Task,2,0,2,0,10.7,-1,Correct Rejection,0.535158999992,False,-1,stimulus_MIPA23_Yes-No Task_2019_Jun_17_1424_78,-1,True,2019_Jun_17_1424,Yes-No Task,2,MIPA23,
Yes-No Task,3,0,3,0,6.7,-1,Hit,0.634507099981,True,-1,stimulus_MIPA23_Yes-No Task_2019_Jun_17_1424_79,-1,True,2019_Jun_17_1424,Yes-No Task,2,MIPA23,
Yes-No Task,4,0,4,0,6.7,-1,Miss,0.500120599987,True,-1,stimulus_MIPA23_Yes-No Task_2019_Jun_17_1424_80,-1,True,2019_Jun_17_1424,Yes-No Task,2,MIPA23,
Yes-No Task,5,0,5,0,5.7,-1,Correct Rejection,0.53341850001,False,-1,stimulus_MIPA23_Yes-No Task_2019_Jun_17_1424_81,-1,True,2019_Jun_17_1424,Yes-No Task,2,MIPA23,
Yes-No Task,6,0,6,0,6.7,-1,Hit,0.500494799984,True,-1,stimulus_MIPA23_Yes-No Task_2019_Jun_17_1424_82,-1,True,2019_Jun_17_1424,Yes-No Task,2,MIPA23,
Yes-No Task,7,0,7,0,8.6,-1,Hit,0.533929099998,True,-1,stimulus_MIPA23_Yes-No Task_2019_Jun_17_1424_83,-1,True,2019_Jun_17_1424,Yes-No Task,2,MIPA23,
Yes-No Task,8,0,8,0,7.6,-1,Hit,0.5340364,True,-1,stimulus_MIPA23_Yes-No Task_2019_Jun_17_1424_84,-1,True,2019_Jun_17_1424,Yes-No Task,2,MIPA23,
Yes-No Task,9,0,9,0,4.5,-1,False Alarm,0.567381500005,False,-1,stimulus_MIPA23_Yes-No Task_2019_Jun_17_1424_85,-1,True,2019_Jun_17_1424,Yes-No Task,2,MIPA23,
Yes-No Task,10,0,10,0,8.6,-1,Correct Rejection,0.567265200021,False,-1,stimulus_MIPA23_Yes-No Task_2019_Jun_17_1424_86,-1,True,2019_Jun_17_1424,Yes-No Task,2,MIPA23,
Yes-No Task,11,0,11,0,9.6,-1,Hit,0.53384399999,True,-1,stimulus_MIPA23_Yes-No Task_2019_Jun_17_1424_87,-1,True,2019_Jun_17_1424,Yes-No Task,2,MIPA23,
Yes-No Task,12,0,12,0,6.7,-1,Correct Rejection,0.599948799994,False,-1,stimulus_MIPA23_Yes-No Task_2019_Jun_17_1424_88,-1,True,2019_Jun_17_1424,Yes-No Task,2,MIPA23,
Yes-No Task,13,0,13,0,10.7,-1,Hit,0.46725419999,True,-1,stimulus_MIPA23_Yes-No Task_2019_Jun_17_1424_89,-1,True,2019_Jun_17_1424,Yes-No Task,2,MIPA23,
Yes-No Task,14,0,14,0,8.6,-1,Correct Rejection,0.501377900015,False,-1,stimulus_MIPA23_Yes-No Task_2019_Jun_17_1424_90,-1,True,2019_Jun_17_1424,Yes-No Task,2,MIPA23,
Yes-No Task,15,0,15,0,6.7,-1,Hit,0.601133100019,True,-1,stimulus_MIPA23_Yes-No Task_2019_Jun_17_1424_91,-1,True,2019_Jun_17_1424,Yes-No Task,2,MIPA23,
Yes-No Task,16,0,16,0,6.7,-1,Miss,0.566955499991,True,-1,stimulus_MIPA23_Yes-No Task_2019_Jun_17_1424_92,-1,True,2019_Jun_17_1424,Yes-No Task,2,MIPA23,
Yes-No Task,17,0,17,0,4.5,-1,Correct Rejection,0.566431900021,False,-1,stimulus_MIPA23_Yes-No Task_2019_Jun_17_1424_93,-1,True,2019_Jun_17_1424,Yes-No Task,2,MIPA23,
Yes-No Task,18,0,18,0,7.6,-1,Hit,0.600999199989,True,-1,stimulus_MIPA23_Yes-No Task_2019_Jun_17_1424_94,-1,True,2019_Jun_17_1424,Yes-No Task,2,MIPA23,
Yes-No Task,19,0,19,0,10.7,-1,Correct Rejection,0.500519199995,False,-1,stimulus_MIPA23_Yes-No Task_2019_Jun_17_1424_95,-1,True,2019_Jun_17_1424,Yes-No Task,2,MIPA23,
Yes-No Task,20,0,20,0,8.6,-1,Correct Rejection,0.535076200002,False,-1,stimulus_MIPA23_Yes-No Task_2019_Jun_17_1424_96,-1,True,2019_Jun_17_1424,Yes-No Task,2,MIPA23,
Yes-No Task,21,0,21,0,4.5,-1,Miss,0.567942900001,True,-1,stimulus_MIPA23_Yes-No Task_2019_Jun_17_1424_97,-1,True,2019_Jun_17_1424,Yes-No Task,2,MIPA23,
Yes-No Task,22,0,22,0,8.6,-1,Hit,0.400594100007,True,-1,stimulus_MIPA23_Yes-No Task_2019_Jun_17_1424_98,-1,True,2019_Jun_17_1424,Yes-No Task,2,MIPA23,
Yes-No Task,23,0,23,0,10.7,-1,Hit,0.433988100005,True,-1,stimulus_MIPA23_Yes-No Task_2019_Jun_17_1424_99,-1,True,2019_Jun_17_1424,Yes-No Task,2,MIPA23,
Yes-No Task,24,0,24,0,9.6,-1,Hit,0.434918399988,True,-1,stimulus_MIPA23_Yes-No Task_2019_Jun_17_1424_100,-1,True,2019_Jun_17_1424,Yes-No Task,2,MIPA23,
Yes-No Task,25,0,25,0,4.5,-1,Hit,0.600697800022,True,-1,stimulus_MIPA23_Yes-No Task_2019_Jun_17_1424_101,-1,True,2019_Jun_17_1424,Yes-No Task,2,MIPA23,
Yes-No Task,26,0,26,0,5.7,-1,Correct Rejection,0.534136600007,False,-1,stimulus_MIPA23_Yes-No Task_2019_Jun_17_1424_102,-1,True,2019_Jun_17_1424,Yes-No Task,2,MIPA23,
Yes-No Task,27,0,27,0,4.5,-1,Hit,0.501532800001,True,-1,stimulus_MIPA23_Yes-No Task_2019_Jun_17_1424_103,-1,True,2019_Jun_17_1424,Yes-No Task,2,MIPA23,
Yes-No Task,28,0,28,0,5.7,-1,Hit,0.533322399977,True,-1,stimulus_MIPA23_Yes-No Task_2019_Jun_17_1424_104,-1,True,2019_Jun_17_1424,Yes-No Task,2,MIPA23,
Yes-No Task,29,0,29,0,9.6,-1,Correct Rejection,0.500813399995,False,-1,stimulus_MIPA23_Yes-No Task_2019_Jun_17_1424_105,-1,True,2019_Jun_17_1424,Yes-No Task,2,MIPA23,
Yes-No Task,30,0,30,0,9.6,-1,False Alarm,0.701996100019,False,-1,stimulus_MIPA23_Yes-No Task_2019_Jun_17_1424_106,-1,True,2019_Jun_17_1424,Yes-No Task,2,MIPA23,
Yes-No Task,31,0,31,0,2.9,-1,Hit,0.635327900003,True,-1,stimulus_MIPA23_Yes-No Task_2019_Jun_17_1424_107,-1,True,2019_Jun_17_1424,Yes-No Task,2,MIPA23,
Yes-No Task,32,0,32,0,2.9,-1,Correct Rejection,0.567195100011,False,-1,stimulus_MIPA23_Yes-No Task_2019_Jun_17_1424_108,-1,True,2019_Jun_17_1424,Yes-No Task,2,MIPA23,
Yes-No Task,33,0,33,0,7.6,-1,Hit,0.567739599996,True,-1,stimulus_MIPA23_Yes-No Task_2019_Jun_17_1424_109,-1,True,2019_Jun_17_1424,Yes-No Task,2,MIPA23,
Yes-No Task,34,0,34,0,8.6,-1,Hit,0.599681399995,True,-1,stimulus_MIPA23_Yes-No Task_2019_Jun_17_1424_110,-1,True,2019_Jun_17_1424,Yes-No Task,2,MIPA23,
Yes-No Task,35,0,35,0,10.7,-1,Hit,0.567927100026,True,-1,stimulus_MIPA23_Yes-No Task_2019_Jun_17_1424_111,-1,True,2019_Jun_17_1424,Yes-No Task,2,MIPA23,
Yes-No Task,36,0,36,0,2.9,-1,Correct Rejection,0.634600499994,False,-1,stimulus_MIPA23_Yes-No Task_2019_Jun_17_1424_112,-1,True,2019_Jun_17_1424,Yes-No Task,2,MIPA23,
Yes-No Task,37,0,37,0,2.9,-1,Hit,0.667743900005,True,-1,stimulus_MIPA23_Yes-No Task_2019_Jun_17_1424_113,-1,True,2019_Jun_17_1424,Yes-No Task,2,MIPA23,
Yes-No Task,38,0,38,0,7.6,-1,Hit,0.600353800022,True,-1,stimulus_MIPA23_Yes-No Task_2019_Jun_17_1424_114,-1,True,2019_Jun_17_1424,Yes-No Task,2,MIPA23,
Yes-No Task,39,0,39,0,6.7,-1,Hit,0.600438599999,True,-1,stimulus_MIPA23_Yes-No Task_2019_Jun_17_1424_115,-1,True,2019_Jun_17_1424,Yes-No Task,2,MIPA23,
Yes-No Task,40,0,40,0,6.7,-1,Correct Rejection,0.601888200006,False,-1,stimulus_MIPA23_Yes-No Task_2019_Jun_17_1424_116,-1,True,2019_Jun_17_1424,Yes-No Task,2,MIPA23,
Yes-No Task,41,0,41,0,4.5,-1,Correct Rejection,0.736195200006,False,-1,stimulus_MIPA23_Yes-No Task_2019_Jun_17_1424_117,-1,True,2019_Jun_17_1424,Yes-No Task,2,MIPA23,
Yes-No Task,42,0,42,0,5.7,-1,Hit,0.7013668,True,-1,stimulus_MIPA23_Yes-No Task_2019_Jun_17_1424_118,-1,True,2019_Jun_17_1424,Yes-No Task,2,MIPA23,
Yes-No Task,43,0,43,0,4.5,-1,Hit,0.768674899999,True,-1,stimulus_MIPA23_Yes-No Task_2019_Jun_17_1424_119,-1,True,2019_Jun_17_1424,Yes-No Task,2,MIPA23,
Yes-No Task,44,0,44,0,7.6,-1,False Alarm,0.667567900004,False,-1,stimulus_MIPA23_Yes-No Task_2019_Jun_17_1424_120,-1,True,2019_Jun_17_1424,Yes-No Task,2,MIPA23,
Yes-No Task,45,0,45,0,6.7,-1,Hit,0.468400499987,True,-1,stimulus_MIPA23_Yes-No Task_2019_Jun_17_1424_121,-1,True,2019_Jun_17_1424,Yes-No Task,2,MIPA23,
Yes-No Task,46,0,46,0,2.9,-1,Miss,0.535323199991,True,-1,stimulus_MIPA23_Yes-No Task_2019_Jun_17_1424_122,-1,True,2019_Jun_17_1424,Yes-No Task,2,MIPA23,
Yes-No Task,47,0,47,0,2.9,-1,Miss,0.666734300001,True,-1,stimulus_MIPA23_Yes-No Task_2019_Jun_17_1424_123,-1,True,2019_Jun_17_1424,Yes-No Task,2,MIPA23,
Yes-No Task,48,0,48,0,9.6,-1,False Alarm,0.533213699993,False,-1,stimulus_MIPA23_Yes-No Task_2019_Jun_17_1424_124,-1,True,2019_Jun_17_1424,Yes-No Task,2,MIPA23,
Yes-No Task,49,0,49,0,8.6,-1,Correct Rejection,0.600341699988,False,-1,stimulus_MIPA23_Yes-No Task_2019_Jun_17_1424_125,-1,True,2019_Jun_17_1424,Yes-No Task,2,MIPA23,
Yes-No Task,50,0,50,0,10.7,-1,Correct Rejection,0.668228800001,False,-1,stimulus_MIPA23_Yes-No Task_2019_Jun_17_1424_126,-1,True,2019_Jun_17_1424,Yes-No Task,2,MIPA23,
Yes-No Task,51,0,51,0,8.6,-1,Correct Rejection,0.666323300014,False,-1,stimulus_MIPA23_Yes-No Task_2019_Jun_17_1424_127,-1,True,2019_Jun_17_1424,Yes-No Task,2,MIPA23,
Yes-No Task,52,0,52,0,9.6,-1,Hit,0.633989900001,True,-1,stimulus_MIPA23_Yes-No Task_2019_Jun_17_1424_128,-1,True,2019_Jun_17_1424,Yes-No Task,2,MIPA23,
Yes-No Task,53,0,53,0,7.6,-1,False Alarm,0.702398299996,False,-1,stimulus_MIPA23_Yes-No Task_2019_Jun_17_1424_129,-1,True,2019_Jun_17_1424,Yes-No Task,2,MIPA23,
Yes-No Task,54,0,54,0,8.6,-1,Correct Rejection,0.634945800004,False,-1,stimulus_MIPA23_Yes-No Task_2019_Jun_17_1424_130,-1,True,2019_Jun_17_1424,Yes-No Task,2,MIPA23,
Yes-No Task,55,0,55,0,4.5,-1,Correct Rejection,0.56752739998,False,-1,stimulus_MIPA23_Yes-No Task_2019_Jun_17_1424_131,-1,True,2019_Jun_17_1424,Yes-No Task,2,MIPA23,
Yes-No Task,56,0,56,0,7.6,-1,Hit,0.5671477,True,-1,stimulus_MIPA23_Yes-No Task_2019_Jun_17_1424_132,-1,True,2019_Jun_17_1424,Yes-No Task,2,MIPA23,
Yes-No Task,57,0,57,0,2.9,-1,Correct Rejection,0.567739099992,False,-1,stimulus_MIPA23_Yes-No Task_2019_Jun_17_1424_133,-1,True,2019_Jun_17_1424,Yes-No Task,2,MIPA23,
Yes-No Task,58,0,58,0,5.7,-1,Correct Rejection,0.63379599998,False,-1,stimulus_MIPA23_Yes-No Task_2019_Jun_17_1424_134,-1,True,2019_Jun_17_1424,Yes-No Task,2,MIPA23,
Yes-No Task,59,0,59,0,8.6,-1,Correct Rejection,0.56670309999,False,-1,stimulus_MIPA23_Yes-No Task_2019_Jun_17_1424_135,-1,True,2019_Jun_17_1424,Yes-No Task,2,MIPA23,
Yes-No Task,60,0,60,0,4.5,-1,Correct Rejection,0.567451999988,False,-1,stimulus_MIPA23_Yes-No Task_2019_Jun_17_1424_136,-1,True,2019_Jun_17_1424,Yes-No Task,2,MIPA23,
Yes-No Task,61,0,61,0,2.9,-1,Correct Rejection,0.633879400004,False,-1,stimulus_MIPA23_Yes-No Task_2019_Jun_17_1424_137,-1,True,2019_Jun_17_1424,Yes-No Task,2,MIPA23,
Yes-No Task,62,0,62,0,9.6,-1,Correct Rejection,0.567346399999,False,-1,stimulus_MIPA23_Yes-No Task_2019_Jun_17_1424_138,-1,True,2019_Jun_17_1424,Yes-No Task,2,MIPA23,
Yes-No Task,63,0,63,0,9.6,-1,Hit,0.531256999995,True,-1,stimulus_MIPA23_Yes-No Task_2019_Jun_17_1424_139,-1,True,2019_Jun_17_1424,Yes-No Task,2,MIPA23,
Yes-No Task,64,0,64,0,6.7,-1,Hit,0.500656799995,True,-1,stimulus_MIPA23_Yes-No Task_2019_Jun_17_1424_140,-1,True,2019_Jun_17_1424,Yes-No Task,2,MIPA23,
Yes-No Task,65,0,65,0,4.5,-1,Miss,0.600947899977,True,-1,stimulus_MIPA23_Yes-No Task_2019_Jun_17_1424_141,-1,True,2019_Jun_17_1424,Yes-No Task,2,MIPA23,
Yes-No Task,66,0,66,0,8.6,-1,Hit,0.600903700019,True,-1,stimulus_MIPA23_Yes-No Task_2019_Jun_17_1424_142,-1,True,2019_Jun_17_1424,Yes-No Task,2,MIPA23,
Yes-No Task,67,0,67,0,4.5,-1,Correct Rejection,0.600541399996,False,-1,stimulus_MIPA23_Yes-No Task_2019_Jun_17_1424_143,-1,True,2019_Jun_17_1424,Yes-No Task,2,MIPA23,
Yes-No Task,68,0,68,0,4.5,-1,Miss,0.802164299996,True,-1,stimulus_MIPA23_Yes-No Task_2019_Jun_17_1424_144,-1,True,2019_Jun_17_1424,Yes-No Task,2,MIPA23,
Yes-No Task,69,0,69,0,5.7,-1,Hit,0.533992000011,True,-1,stimulus_MIPA23_Yes-No Task_2019_Jun_17_1424_145,-1,True,2019_Jun_17_1424,Yes-No Task,2,MIPA23,
Yes-No Task,70,0,70,0,5.7,-1,False Alarm,0.433914099995,False,-1,stimulus_MIPA23_Yes-No Task_2019_Jun_17_1424_146,-1,True,2019_Jun_17_1424,Yes-No Task,2,MIPA23,
Yes-No Task,71,0,71,0,9.6,-1,Hit,0.366971799987,True,-1,stimulus_MIPA23_Yes-No Task_2019_Jun_17_1424_147,-1,True,2019_Jun_17_1424,Yes-No Task,2,MIPA23,
Yes-No Task,72,0,72,0,9.6,-1,Correct Rejection,0.533857500006,False,-1,stimulus_MIPA23_Yes-No Task_2019_Jun_17_1424_148,-1,True,2019_Jun_17_1424,Yes-No Task,2,MIPA23,
Yes-No Task,73,0,73,0,4.5,-1,Correct Rejection,0.667706400011,False,-1,stimulus_MIPA23_Yes-No Task_2019_Jun_17_1424_149,-1,True,2019_Jun_17_1424,Yes-No Task,2,MIPA23,
Yes-No Task,74,0,74,0,6.7,-1,Correct Rejection,0.600408700004,False,-1,stimulus_MIPA23_Yes-No Task_2019_Jun_17_1424_150,-1,True,2019_Jun_17_1424,Yes-No Task,2,MIPA23,
Yes-No Task,0,0,0,0,7.6,-1,Correct Rejection,0.56737439998,False,-1,stimulus_MIPA23_Yes-No Task_2019_Jun_17_1424_151,-1,True,2019_Jun_17_1424,Yes-No Task,2,MIPA23,
Yes-No Task,1,0,1,0,4.5,-1,Correct Rejection,0.433648400009,False,-1,stimulus_MIPA23_Yes-No Task_2019_Jun_17_1424_152,-1,True,2019_Jun_17_1424,Yes-No Task,2,MIPA23,
Yes-No Task,2,0,2,0,5.7,-1,Correct Rejection,0.50089179998,False,-1,stimulus_MIPA23_Yes-No Task_2019_Jun_17_1424_153,-1,True,2019_Jun_17_1424,Yes-No Task,2,MIPA23,
Yes-No Task,3,0,3,0,2.9,-1,False Alarm,0.367967400001,False,-1,stimulus_MIPA23_Yes-No Task_2019_Jun_17_1424_154,-1,True,2019_Jun_17_1424,Yes-No Task,2,MIPA23,
Yes-No Task,4,0,4,0,4.5,-1,Correct Rejection,0.532723499986,False,-1,stimulus_MIPA23_Yes-No Task_2019_Jun_17_1424_155,-1,True,2019_Jun_17_1424,Yes-No Task,2,MIPA23,
Yes-No Task,5,0,5,0,5.7,-1,Hit,0.434600100009,True,-1,stimulus_MIPA23_Yes-No Task_2019_Jun_17_1424_156,-1,True,2019_Jun_17_1424,Yes-No Task,2,MIPA23,
Yes-No Task,6,0,6,0,7.6,-1,Hit,0.500713700021,True,-1,stimulus_MIPA23_Yes-No Task_2019_Jun_17_1424_157,-1,True,2019_Jun_17_1424,Yes-No Task,2,MIPA23,
Yes-No Task,7,0,7,0,4.5,-1,False Alarm,0.50033760001,False,-1,stimulus_MIPA23_Yes-No Task_2019_Jun_17_1424_158,-1,True,2019_Jun_17_1424,Yes-No Task,2,MIPA23,
Yes-No Task,8,0,8,0,5.7,-1,Hit,0.400550299993,True,-1,stimulus_MIPA23_Yes-No Task_2019_Jun_17_1424_159,-1,True,2019_Jun_17_1424,Yes-No Task,2,MIPA23,
Yes-No Task,9,0,9,0,8.6,-1,Correct Rejection,0.400063700014,False,-1,stimulus_MIPA23_Yes-No Task_2019_Jun_17_1424_160,-1,True,2019_Jun_17_1424,Yes-No Task,2,MIPA23,
Yes-No Task,10,0,10,0,10.7,-1,Hit,0.534204099997,True,-1,stimulus_MIPA23_Yes-No Task_2019_Jun_17_1424_161,-1,True,2019_Jun_17_1424,Yes-No Task,2,MIPA23,
Yes-No Task,11,0,11,0,2.9,-1,Miss,0.534166099998,True,-1,stimulus_MIPA23_Yes-No Task_2019_Jun_17_1424_162,-1,True,2019_Jun_17_1424,Yes-No Task,2,MIPA23,
Yes-No Task,12,0,12,0,8.6,-1,Hit,0.399909400003,True,-1,stimulus_MIPA23_Yes-No Task_2019_Jun_17_1424_163,-1,True,2019_Jun_17_1424,Yes-No Task,2,MIPA23,
Yes-No Task,13,0,13,0,4.5,-1,Miss,0.467322300014,True,-1,stimulus_MIPA23_Yes-No Task_2019_Jun_17_1424_164,-1,True,2019_Jun_17_1424,Yes-No Task,2,MIPA23,
Yes-No Task,14,0,14,0,4.5,-1,Correct Rejection,0.734612100001,False,-1,stimulus_MIPA23_Yes-No Task_2019_Jun_17_1424_165,-1,True,2019_Jun_17_1424,Yes-No Task,2,MIPA23,
Yes-No Task,15,0,15,0,6.7,-1,False Alarm,0.601736600016,False,-1,stimulus_MIPA23_Yes-No Task_2019_Jun_17_1424_166,-1,True,2019_Jun_17_1424,Yes-No Task,2,MIPA23,
Yes-No Task,16,0,16,0,4.5,-1,Correct Rejection,0.500478300004,False,-1,stimulus_MIPA23_Yes-No Task_2019_Jun_17_1424_167,-1,True,2019_Jun_17_1424,Yes-No Task,2,MIPA23,
Yes-No Task,17,0,17,0,9.6,-1,Correct Rejection,0.501624800003,False,-1,stimulus_MIPA23_Yes-No Task_2019_Jun_17_1424_168,-1,True,2019_Jun_17_1424,Yes-No Task,2,MIPA23,
Yes-No Task,18,0,18,0,5.7,-1,Correct Rejection,0.500615199999,False,-1,stimulus_MIPA23_Yes-No Task_2019_Jun_17_1424_169,-1,True,2019_Jun_17_1424,Yes-No Task,2,MIPA23,
Yes-No Task,19,0,19,0,10.7,-1,Hit,0.600789399992,True,-1,stimulus_MIPA23_Yes-No Task_2019_Jun_17_1424_170,-1,True,2019_Jun_17_1424,Yes-No Task,2,MIPA23,
Yes-No Task,20,0,20,0,10.7,-1,Correct Rejection,0.502067599999,False,-1,stimulus_MIPA23_Yes-No Task_2019_Jun_17_1424_171,-1,True,2019_Jun_17_1424,Yes-No Task,2,MIPA23,
Yes-No Task,21,0,21,0,2.9,-1,Correct Rejection,0.430870700016,False,-1,stimulus_MIPA23_Yes-No Task_2019_Jun_17_1424_172,-1,True,2019_Jun_17_1424,Yes-No Task,2,MIPA23,
Yes-No Task,22,0,22,0,10.7,-1,Correct Rejection,0.467254600022,False,-1,stimulus_MIPA23_Yes-No Task_2019_Jun_17_1424_173,-1,True,2019_Jun_17_1424,Yes-No Task,2,MIPA23,
Yes-No Task,23,0,23,0,8.6,-1,Hit,0.601451900002,True,-1,stimulus_MIPA23_Yes-No Task_2019_Jun_17_1424_174,-1,True,2019_Jun_17_1424,Yes-No Task,2,MIPA23,
Yes-No Task,24,0,24,0,7.6,-1,Hit,0.602138699993,True,-1,stimulus_MIPA23_Yes-No Task_2019_Jun_17_1424_175,-1,True,2019_Jun_17_1424,Yes-No Task,2,MIPA23,
Yes-No Task,25,0,25,0,9.6,-1,Correct Rejection,0.500837400003,False,-1,stimulus_MIPA23_Yes-No Task_2019_Jun_17_1424_176,-1,True,2019_Jun_17_1424,Yes-No Task,2,MIPA23,
Yes-No Task,26,0,26,0,4.5,-1,Correct Rejection,0.433721799986,False,-1,stimulus_MIPA23_Yes-No Task_2019_Jun_17_1424_177,-1,True,2019_Jun_17_1424,Yes-No Task,2,MIPA23,
Yes-No Task,27,0,27,0,10.7,-1,Correct Rejection,0.467159299995,False,-1,stimulus_MIPA23_Yes-No Task_2019_Jun_17_1424_178,-1,True,2019_Jun_17_1424,Yes-No Task,2,MIPA23,
Yes-No Task,28,0,28,0,6.7,-1,Correct Rejection,0.532896300021,False,-1,stimulus_MIPA23_Yes-No Task_2019_Jun_17_1424_179,-1,True,2019_Jun_17_1424,Yes-No Task,2,MIPA23,
Yes-No Task,29,0,29,0,5.7,-1,Correct Rejection,0.465488599992,False,-1,stimulus_MIPA23_Yes-No Task_2019_Jun_17_1424_180,-1,True,2019_Jun_17_1424,Yes-No Task,2,MIPA23,
Yes-No Task,30,0,30,0,4.5,-1,Correct Rejection,0.5007683,False,-1,stimulus_MIPA23_Yes-No Task_2019_Jun_17_1424_181,-1,True,2019_Jun_17_1424,Yes-No Task,2,MIPA23,
Yes-No Task,31,0,31,0,5.7,-1,Miss,0.468483400007,True,-1,stimulus_MIPA23_Yes-No Task_2019_Jun_17_1424_182,-1,True,2019_Jun_17_1424,Yes-No Task,2,MIPA23,
Yes-No Task,32,0,32,0,6.7,-1,Correct Rejection,0.466995900002,False,-1,stimulus_MIPA23_Yes-No Task_2019_Jun_17_1424_183,-1,True,2019_Jun_17_1424,Yes-No Task,2,MIPA23,
Yes-No Task,33,0,33,0,5.7,-1,Correct Rejection,0.599970099982,False,-1,stimulus_MIPA23_Yes-No Task_2019_Jun_17_1424_184,-1,True,2019_Jun_17_1424,Yes-No Task,2,MIPA23,
Yes-No Task,34,0,34,0,2.9,-1,Miss,0.634089500003,True,-1,stimulus_MIPA23_Yes-No Task_2019_Jun_17_1424_185,-1,True,2019_Jun_17_1424,Yes-No Task,2,MIPA23,
Yes-No Task,35,0,35,0,5.7,-1,Hit,0.566985700018,True,-1,stimulus_MIPA23_Yes-No Task_2019_Jun_17_1424_186,-1,True,2019_Jun_17_1424,Yes-No Task,2,MIPA23,
Yes-No Task,36,0,36,0,10.7,-1,Correct Rejection,0.532513000013,False,-1,stimulus_MIPA23_Yes-No Task_2019_Jun_17_1424_187,-1,True,2019_Jun_17_1424,Yes-No Task,2,MIPA23,
Yes-No Task,37,0,37,0,9.6,-1,Hit,0.567211899994,True,-1,stimulus_MIPA23_Yes-No Task_2019_Jun_17_1424_188,-1,True,2019_Jun_17_1424,Yes-No Task,2,MIPA23,
Yes-No Task,38,0,38,0,8.6,-1,Correct Rejection,0.467192200013,False,-1,stimulus_MIPA23_Yes-No Task_2019_Jun_17_1424_189,-1,True,2019_Jun_17_1424,Yes-No Task,2,MIPA23,
Yes-No Task,39,0,39,0,9.6,-1,Hit,0.567292899999,True,-1,stimulus_MIPA23_Yes-No Task_2019_Jun_17_1424_190,-1,True,2019_Jun_17_1424,Yes-No Task,2,MIPA23,
Yes-No Task,40,0,40,0,4.5,-1,Correct Rejection,0.468158200005,False,-1,stimulus_MIPA23_Yes-No Task_2019_Jun_17_1424_191,-1,True,2019_Jun_17_1424,Yes-No Task,2,MIPA23,
Yes-No Task,41,0,41,0,2.9,-1,Correct Rejection,0.499192799994,False,-1,stimulus_MIPA23_Yes-No Task_2019_Jun_17_1424_192,-1,True,2019_Jun_17_1424,Yes-No Task,2,MIPA23,
Yes-No Task,42,0,42,0,4.5,-1,Miss,0.433759500011,True,-1,stimulus_MIPA23_Yes-No Task_2019_Jun_17_1424_193,-1,True,2019_Jun_17_1424,Yes-No Task,2,MIPA23,
Yes-No Task,43,0,43,0,8.6,-1,Hit,0.86760930001,True,-1,stimulus_MIPA23_Yes-No Task_2019_Jun_17_1424_194,-1,True,2019_Jun_17_1424,Yes-No Task,2,MIPA23,
Yes-No Task,44,0,44,0,4.5,-1,Miss,0.600509700016,True,-1,stimulus_MIPA23_Yes-No Task_2019_Jun_17_1424_195,-1,True,2019_Jun_17_1424,Yes-No Task,2,MIPA23,
Yes-No Task,45,0,45,0,5.7,-1,Hit,0.53325909999,True,-1,stimulus_MIPA23_Yes-No Task_2019_Jun_17_1424_196,-1,True,2019_Jun_17_1424,Yes-No Task,2,MIPA23,
Yes-No Task,46,0,46,0,7.6,-1,Correct Rejection,0.5340746,False,-1,stimulus_MIPA23_Yes-No Task_2019_Jun_17_1424_197,-1,True,2019_Jun_17_1424,Yes-No Task,2,MIPA23,
Yes-No Task,47,0,47,0,2.9,-1,False Alarm,0.567259500007,False,-1,stimulus_MIPA23_Yes-No Task_2019_Jun_17_1424_198,-1,True,2019_Jun_17_1424,Yes-No Task,2,MIPA23,
Yes-No Task,48,0,48,0,7.6,-1,Correct Rejection,0.735585800023,False,-1,stimulus_MIPA23_Yes-No Task_2019_Jun_17_1424_199,-1,True,2019_Jun_17_1424,Yes-No Task,2,MIPA23,
Yes-No Task,49,0,49,0,9.6,-1,Correct Rejection,0.600883200008,False,-1,stimulus_MIPA23_Yes-No Task_2019_Jun_17_1424_200,-1,True,2019_Jun_17_1424,Yes-No Task,2,MIPA23,
Yes-No Task,50,0,50,0,5.7,-1,Correct Rejection,0.534506299999,False,-1,stimulus_MIPA23_Yes-No Task_2019_Jun_17_1424_201,-1,True,2019_Jun_17_1424,Yes-No Task,2,MIPA23,
Yes-No Task,51,0,51,0,10.7,-1,False Alarm,0.667485700018,False,-1,stimulus_MIPA23_Yes-No Task_2019_Jun_17_1424_202,-1,True,2019_Jun_17_1424,Yes-No Task,2,MIPA23,
Yes-No Task,52,0,52,0,4.5,-1,Miss,0.500263800001,True,-1,stimulus_MIPA23_Yes-No Task_2019_Jun_17_1424_203,-1,True,2019_Jun_17_1424,Yes-No Task,2,MIPA23,
Yes-No Task,53,0,53,0,8.6,-1,Hit,0.436299300025,True,-1,stimulus_MIPA23_Yes-No Task_2019_Jun_17_1424_204,-1,True,2019_Jun_17_1424,Yes-No Task,2,MIPA23,
Yes-No Task,54,0,54,0,7.6,-1,Hit,0.43404599998,True,-1,stimulus_MIPA23_Yes-No Task_2019_Jun_17_1424_205,-1,True,2019_Jun_17_1424,Yes-No Task,2,MIPA23,
Yes-No Task,55,0,55,0,4.5,-1,Correct Rejection,0.601567300007,False,-1,stimulus_MIPA23_Yes-No Task_2019_Jun_17_1424_206,-1,True,2019_Jun_17_1424,Yes-No Task,2,MIPA23,
Yes-No Task,56,0,56,0,10.7,-1,Correct Rejection,0.601598699985,False,-1,stimulus_MIPA23_Yes-No Task_2019_Jun_17_1424_207,-1,True,2019_Jun_17_1424,Yes-No Task,2,MIPA23,
Yes-No Task,57,0,57,0,10.7,-1,False Alarm,0.534055399999,False,-1,stimulus_MIPA23_Yes-No Task_2019_Jun_17_1424_208,-1,True,2019_Jun_17_1424,Yes-No Task,2,MIPA23,
Yes-No Task,58,0,58,0,10.7,-1,Correct Rejection,0.600377099996,False,-1,stimulus_MIPA23_Yes-No Task_2019_Jun_17_1424_209,-1,True,2019_Jun_17_1424,Yes-No Task,2,MIPA23,
Yes-No Task,59,0,59,0,10.7,-1,Correct Rejection,0.500373100018,False,-1,stimulus_MIPA23_Yes-No Task_2019_Jun_17_1424_210,-1,True,2019_Jun_17_1424,Yes-No Task,2,MIPA23,
Yes-No Task,60,0,60,0,9.6,-1,Hit,0.633505500009,True,-1,stimulus_MIPA23_Yes-No Task_2019_Jun_17_1424_211,-1,True,2019_Jun_17_1424,Yes-No Task,2,MIPA23,
Yes-No Task,61,0,61,0,2.9,-1,Correct Rejection,0.600536199985,False,-1,stimulus_MIPA23_Yes-No Task_2019_Jun_17_1424_212,-1,True,2019_Jun_17_1424,Yes-No Task,2,MIPA23,
Yes-No Task,62,0,62,0,10.7,-1,Hit,0.567377300002,True,-1,stimulus_MIPA23_Yes-No Task_2019_Jun_17_1424_213,-1,True,2019_Jun_17_1424,Yes-No Task,2,MIPA23,
Yes-No Task,63,0,63,0,10.7,-1,Miss,0.568735100009,True,-1,stimulus_MIPA23_Yes-No Task_2019_Jun_17_1424_214,-1,True,2019_Jun_17_1424,Yes-No Task,2,MIPA23,
Yes-No Task,64,0,64,0,5.7,-1,Hit,0.736034400004,True,-1,stimulus_MIPA23_Yes-No Task_2019_Jun_17_1424_215,-1,True,2019_Jun_17_1424,Yes-No Task,2,MIPA23,
Yes-No Task,65,0,65,0,9.6,-1,Correct Rejection,0.566800099972,False,-1,stimulus_MIPA23_Yes-No Task_2019_Jun_17_1424_216,-1,True,2019_Jun_17_1424,Yes-No Task,2,MIPA23,
Yes-No Task,66,0,66,0,10.7,-1,Hit,0.467392499995,True,-1,stimulus_MIPA23_Yes-No Task_2019_Jun_17_1424_217,-1,True,2019_Jun_17_1424,Yes-No Task,2,MIPA23,
Yes-No Task,67,0,67,0,9.6,-1,Hit,0.534362200007,True,-1,stimulus_MIPA23_Yes-No Task_2019_Jun_17_1424_218,-1,True,2019_Jun_17_1424,Yes-No Task,2,MIPA23,
Yes-No Task,68,0,68,0,10.7,-1,Hit,0.46720069999,True,-1,stimulus_MIPA23_Yes-No Task_2019_Jun_17_1424_219,-1,True,2019_Jun_17_1424,Yes-No Task,2,MIPA23,
Yes-No Task,69,0,69,0,4.5,-1,Miss,0.567029600003,True,-1,stimulus_MIPA23_Yes-No Task_2019_Jun_17_1424_220,-1,True,2019_Jun_17_1424,Yes-No Task,2,MIPA23,
Yes-No Task,70,0,70,0,5.7,-1,False Alarm,0.633981699997,False,-1,stimulus_MIPA23_Yes-No Task_2019_Jun_17_1424_221,-1,True,2019_Jun_17_1424,Yes-No Task,2,MIPA23,
Yes-No Task,71,0,71,0,2.9,-1,Hit,0.634004100022,True,-1,stimulus_MIPA23_Yes-No Task_2019_Jun_17_1424_222,-1,True,2019_Jun_17_1424,Yes-No Task,2,MIPA23,
Yes-No Task,72,0,72,0,8.6,-1,Correct Rejection,0.667540800001,False,-1,stimulus_MIPA23_Yes-No Task_2019_Jun_17_1424_223,-1,True,2019_Jun_17_1424,Yes-No Task,2,MIPA23,
Yes-No Task,73,0,73,0,5.7,-1,Correct Rejection,0.567636199994,False,-1,stimulus_MIPA23_Yes-No Task_2019_Jun_17_1424_224,-1,True,2019_Jun_17_1424,Yes-No Task,2,MIPA23,
Yes-No Task,74,0,74,0,7.6,-1,Correct Rejection,0.635043999995,False,-1,stimulus_MIPA23_Yes-No Task_2019_Jun_17_1424_225,-1,True,2019_Jun_17_1424,Yes-No Task,2,MIPA23,
Yes-No Task,0,0,0,0,2.9,-1,Hit,0.600401999982,True,-1,stimulus_MIPA23_Yes-No Task_2019_Jun_17_1424_226,-1,True,2019_Jun_17_1424,Yes-No Task,2,MIPA23,
Yes-No Task,1,0,1,0,10.7,-1,Hit,0.435641299991,True,-1,stimulus_MIPA23_Yes-No Task_2019_Jun_17_1424_227,-1,True,2019_Jun_17_1424,Yes-No Task,2,MIPA23,
Yes-No Task,2,0,2,0,6.7,-1,False Alarm,0.600788000011,False,-1,stimulus_MIPA23_Yes-No Task_2019_Jun_17_1424_228,-1,True,2019_Jun_17_1424,Yes-No Task,2,MIPA23,
Yes-No Task,3,0,3,0,8.6,-1,Correct Rejection,0.466541400005,False,-1,stimulus_MIPA23_Yes-No Task_2019_Jun_17_1424_229,-1,True,2019_Jun_17_1424,Yes-No Task,2,MIPA23,
Yes-No Task,4,0,4,0,4.5,-1,Hit,0.534091599984,True,-1,stimulus_MIPA23_Yes-No Task_2019_Jun_17_1424_230,-1,True,2019_Jun_17_1424,Yes-No Task,2,MIPA23,
Yes-No Task,5,0,5,0,8.6,-1,Correct Rejection,0.533699699998,False,-1,stimulus_MIPA23_Yes-No Task_2019_Jun_17_1424_231,-1,True,2019_Jun_17_1424,Yes-No Task,2,MIPA23,
Yes-No Task,6,0,6,0,10.7,-1,Correct Rejection,0.466702300007,False,-1,stimulus_MIPA23_Yes-No Task_2019_Jun_17_1424_232,-1,True,2019_Jun_17_1424,Yes-No Task,2,MIPA23,
Yes-No Task,7,0,7,0,4.5,-1,Miss,0.467848700006,True,-1,stimulus_MIPA23_Yes-No Task_2019_Jun_17_1424_233,-1,True,2019_Jun_17_1424,Yes-No Task,2,MIPA23,
Yes-No Task,8,0,8,0,6.7,-1,Hit,0.634286900022,True,-1,stimulus_MIPA23_Yes-No Task_2019_Jun_17_1424_234,-1,True,2019_Jun_17_1424,Yes-No Task,2,MIPA23,
Yes-No Task,9,0,9,0,2.9,-1,Correct Rejection,0.66597229999,False,-1,stimulus_MIPA23_Yes-No Task_2019_Jun_17_1424_235,-1,True,2019_Jun_17_1424,Yes-No Task,2,MIPA23,
Yes-No Task,10,0,10,0,6.7,-1,Hit,0.634399900009,True,-1,stimulus_MIPA23_Yes-No Task_2019_Jun_17_1424_236,-1,True,2019_Jun_17_1424,Yes-No Task,2,MIPA23,
Yes-No Task,11,0,11,0,5.7,-1,Hit,0.834260000003,True,-1,stimulus_MIPA23_Yes-No Task_2019_Jun_17_1424_237,-1,True,2019_Jun_17_1424,Yes-No Task,2,MIPA23,
Yes-No Task,12,0,12,0,8.6,-1,Hit,0.533687699994,True,-1,stimulus_MIPA23_Yes-No Task_2019_Jun_17_1424_238,-1,True,2019_Jun_17_1424,Yes-No Task,2,MIPA23,
Yes-No Task,13,0,13,0,6.7,-1,Hit,0.601106000016,True,-1,stimulus_MIPA23_Yes-No Task_2019_Jun_17_1424_239,-1,True,2019_Jun_17_1424,Yes-No Task,2,MIPA23,
Yes-No Task,14,0,14,0,4.5,-1,Correct Rejection,0.466783200012,False,-1,stimulus_MIPA23_Yes-No Task_2019_Jun_17_1424_240,-1,True,2019_Jun_17_1424,Yes-No Task,2,MIPA23,
Yes-No Task,15,0,15,0,4.5,-1,Miss,0.500631500006,True,-1,stimulus_MIPA23_Yes-No Task_2019_Jun_17_1424_241,-1,True,2019_Jun_17_1424,Yes-No Task,2,MIPA23,
Yes-No Task,16,0,16,0,8.6,-1,Hit,0.467602799996,True,-1,stimulus_MIPA23_Yes-No Task_2019_Jun_17_1424_242,-1,True,2019_Jun_17_1424,Yes-No Task,2,MIPA23,
Yes-No Task,17,0,17,0,2.9,-1,Miss,0.501781200001,True,-1,stimulus_MIPA23_Yes-No Task_2019_Jun_17_1424_243,-1,True,2019_Jun_17_1424,Yes-No Task,2,MIPA23,
Yes-No Task,18,0,18,0,5.7,-1,Hit,0.734065099998,True,-1,stimulus_MIPA23_Yes-No Task_2019_Jun_17_1424_244,-1,True,2019_Jun_17_1424,Yes-No Task,2,MIPA23,
Yes-No Task,19,0,19,0,6.7,-1,Hit,0.500610599993,True,-1,stimulus_MIPA23_Yes-No Task_2019_Jun_17_1424_245,-1,True,2019_Jun_17_1424,Yes-No Task,2,MIPA23,
Yes-No Task,20,0,20,0,9.6,-1,Hit,0.434664700006,True,-1,stimulus_MIPA23_Yes-No Task_2019_Jun_17_1424_246,-1,True,2019_Jun_17_1424,Yes-No Task,2,MIPA23,
Yes-No Task,21,0,21,0,9.6,-1,Hit,0.566698300012,True,-1,stimulus_MIPA23_Yes-No Task_2019_Jun_17_1424_247,-1,True,2019_Jun_17_1424,Yes-No Task,2,MIPA23,
Yes-No Task,22,0,22,0,7.6,-1,Correct Rejection,0.567024599994,False,-1,stimulus_MIPA23_Yes-No Task_2019_Jun_17_1424_248,-1,True,2019_Jun_17_1424,Yes-No Task,2,MIPA23,
Yes-No Task,23,0,23,0,4.5,-1,Correct Rejection,0.533902800002,False,-1,stimulus_MIPA23_Yes-No Task_2019_Jun_17_1424_249,-1,True,2019_Jun_17_1424,Yes-No Task,2,MIPA23,
Yes-No Task,24,0,24,0,5.7,-1,False Alarm,0.499686800002,False,-1,stimulus_MIPA23_Yes-No Task_2019_Jun_17_1424_250,-1,True,2019_Jun_17_1424,Yes-No Task,2,MIPA23,
Yes-No Task,25,0,25,0,4.5,-1,Correct Rejection,0.53401850001,False,-1,stimulus_MIPA23_Yes-No Task_2019_Jun_17_1424_251,-1,True,2019_Jun_17_1424,Yes-No Task,2,MIPA23,
Yes-No Task,26,0,26,0,9.6,-1,Hit,0.533689499978,True,-1,stimulus_MIPA23_Yes-No Task_2019_Jun_17_1424_252,-1,True,2019_Jun_17_1424,Yes-No Task,2,MIPA23,
Yes-No Task,27,0,27,0,5.7,-1,Correct Rejection,0.634234500001,False,-1,stimulus_MIPA23_Yes-No Task_2019_Jun_17_1424_253,-1,True,2019_Jun_17_1424,Yes-No Task,2,MIPA23,
Yes-No Task,28,0,28,0,8.6,-1,False Alarm,0.500557699997,False,-1,stimulus_MIPA23_Yes-No Task_2019_Jun_17_1424_254,-1,True,2019_Jun_17_1424,Yes-No Task,2,MIPA23,
Yes-No Task,29,0,29,0,5.7,-1,Correct Rejection,0.534057199984,False,-1,stimulus_MIPA23_Yes-No Task_2019_Jun_17_1424_255,-1,True,2019_Jun_17_1424,Yes-No Task,2,MIPA23,
Yes-No Task,30,0,30,0,5.7,-1,Hit,0.634074599977,True,-1,stimulus_MIPA23_Yes-No Task_2019_Jun_17_1424_256,-1,True,2019_Jun_17_1424,Yes-No Task,2,MIPA23,
Yes-No Task,31,0,31,0,6.7,-1,Hit,0.533702100016,True,-1,stimulus_MIPA23_Yes-No Task_2019_Jun_17_1424_257,-1,True,2019_Jun_17_1424,Yes-No Task,2,MIPA23,
Yes-No Task,32,0,32,0,9.6,-1,Correct Rejection,0.534539799992,False,-1,stimulus_MIPA23_Yes-No Task_2019_Jun_17_1424_258,-1,True,2019_Jun_17_1424,Yes-No Task,2,MIPA23,
Yes-No Task,33,0,33,0,9.6,-1,Correct Rejection,0.5672662,False,-1,stimulus_MIPA23_Yes-No Task_2019_Jun_17_1424_259,-1,True,2019_Jun_17_1424,Yes-No Task,2,MIPA23,
Yes-No Task,34,0,34,0,6.7,-1,Hit,0.499953599996,True,-1,stimulus_MIPA23_Yes-No Task_2019_Jun_17_1424_260,-1,True,2019_Jun_17_1424,Yes-No Task,2,MIPA23,
Yes-No Task,35,0,35,0,2.9,-1,Miss,0.567627700017,True,-1,stimulus_MIPA23_Yes-No Task_2019_Jun_17_1424_261,-1,True,2019_Jun_17_1424,Yes-No Task,2,MIPA23,
Yes-No Task,36,0,36,0,9.6,-1,Correct Rejection,0.600825800007,False,-1,stimulus_MIPA23_Yes-No Task_2019_Jun_17_1424_262,-1,True,2019_Jun_17_1424,Yes-No Task,2,MIPA23,
Yes-No Task,37,0,37,0,7.6,-1,Hit,0.534143500001,True,-1,stimulus_MIPA23_Yes-No Task_2019_Jun_17_1424_263,-1,True,2019_Jun_17_1424,Yes-No Task,2,MIPA23,
Yes-No Task,38,0,38,0,9.6,-1,Correct Rejection,0.600112299988,False,-1,stimulus_MIPA23_Yes-No Task_2019_Jun_17_1424_264,-1,True,2019_Jun_17_1424,Yes-No Task,2,MIPA23,
Yes-No Task,39,0,39,0,9.6,-1,Correct Rejection,0.767199399997,False,-1,stimulus_MIPA23_Yes-No Task_2019_Jun_17_1424_265,-1,True,2019_Jun_17_1424,Yes-No Task,2,MIPA23,
Yes-No Task,40,0,40,0,10.7,-1,Correct Rejection,0.601064999995,False,-1,stimulus_MIPA23_Yes-No Task_2019_Jun_17_1424_266,-1,True,2019_Jun_17_1424,Yes-No Task,2,MIPA23,
Yes-No Task,41,0,41,0,4.5,-1,False Alarm,0.699841199996,False,-1,stimulus_MIPA23_Yes-No Task_2019_Jun_17_1424_267,-1,True,2019_Jun_17_1424,Yes-No Task,2,MIPA23,
Yes-No Task,42,0,42,0,2.9,-1,Miss,0.500344400003,True,-1,stimulus_MIPA23_Yes-No Task_2019_Jun_17_1424_268,-1,True,2019_Jun_17_1424,Yes-No Task,2,MIPA23,
Yes-No Task,43,0,43,0,4.5,-1,Miss,0.633759300021,True,-1,stimulus_MIPA23_Yes-No Task_2019_Jun_17_1424_269,-1,True,2019_Jun_17_1424,Yes-No Task,2,MIPA23,
Yes-No Task,44,0,44,0,7.6,-1,Hit,0.501411100005,True,-1,stimulus_MIPA23_Yes-No Task_2019_Jun_17_1424_270,-1,True,2019_Jun_17_1424,Yes-No Task,2,MIPA23,
Yes-No Task,45,0,45,0,7.6,-1,Miss,0.633281100017,True,-1,stimulus_MIPA23_Yes-No Task_2019_Jun_17_1424_271,-1,True,2019_Jun_17_1424,Yes-No Task,2,MIPA23,
Yes-No Task,46,0,46,0,6.7,-1,Hit,0.467095800006,True,-1,stimulus_MIPA23_Yes-No Task_2019_Jun_17_1424_272,-1,True,2019_Jun_17_1424,Yes-No Task,2,MIPA23,
Yes-No Task,47,0,47,0,9.6,-1,Hit,0.467505500012,True,-1,stimulus_MIPA23_Yes-No Task_2019_Jun_17_1424_273,-1,True,2019_Jun_17_1424,Yes-No Task,2,MIPA23,
Yes-No Task,48,0,48,0,7.6,-1,Hit,0.46699809999,True,-1,stimulus_MIPA23_Yes-No Task_2019_Jun_17_1424_274,-1,True,2019_Jun_17_1424,Yes-No Task,2,MIPA23,
Yes-No Task,49,0,49,0,4.5,-1,Hit,0.567248799984,True,-1,stimulus_MIPA23_Yes-No Task_2019_Jun_17_1424_275,-1,True,2019_Jun_17_1424,Yes-No Task,2,MIPA23,
Yes-No Task,50,0,50,0,10.7,-1,Hit,0.499784999993,True,-1,stimulus_MIPA23_Yes-No Task_2019_Jun_17_1424_276,-1,True,2019_Jun_17_1424,Yes-No Task,2,MIPA23,
Yes-No Task,51,0,51,0,5.7,-1,Correct Rejection,0.567246700026,False,-1,stimulus_MIPA23_Yes-No Task_2019_Jun_17_1424_277,-1,True,2019_Jun_17_1424,Yes-No Task,2,MIPA23,
Yes-No Task,52,0,52,0,2.9,-1,Correct Rejection,0.567382800014,False,-1,stimulus_MIPA23_Yes-No Task_2019_Jun_17_1424_278,-1,True,2019_Jun_17_1424,Yes-No Task,2,MIPA23,
Yes-No Task,53,0,53,0,9.6,-1,Hit,0.500614199991,True,-1,stimulus_MIPA23_Yes-No Task_2019_Jun_17_1424_279,-1,True,2019_Jun_17_1424,Yes-No Task,2,MIPA23,
Yes-No Task,54,0,54,0,4.5,-1,Miss,0.600985500001,True,-1,stimulus_MIPA23_Yes-No Task_2019_Jun_17_1424_280,-1,True,2019_Jun_17_1424,Yes-No Task,2,MIPA23,
Yes-No Task,55,0,55,0,9.6,-1,False Alarm,0.568399799988,False,-1,stimulus_MIPA23_Yes-No Task_2019_Jun_17_1424_281,-1,True,2019_Jun_17_1424,Yes-No Task,2,MIPA23,
Yes-No Task,56,0,56,0,4.5,-1,Correct Rejection,0.567572600004,False,-1,stimulus_MIPA23_Yes-No Task_2019_Jun_17_1424_282,-1,True,2019_Jun_17_1424,Yes-No Task,2,MIPA23,
Yes-No Task,57,0,57,0,5.7,-1,Miss,0.732987100026,True,-1,stimulus_MIPA23_Yes-No Task_2019_Jun_17_1424_283,-1,True,2019_Jun_17_1424,Yes-No Task,2,MIPA23,
Yes-No Task,58,0,58,0,7.6,-1,Hit,0.567830399988,True,-1,stimulus_MIPA23_Yes-No Task_2019_Jun_17_1424_284,-1,True,2019_Jun_17_1424,Yes-No Task,2,MIPA23,
Yes-No Task,59,0,59,0,9.6,-1,Hit,0.4672555,True,-1,stimulus_MIPA23_Yes-No Task_2019_Jun_17_1424_285,-1,True,2019_Jun_17_1424,Yes-No Task,2,MIPA23,
Yes-No Task,60,0,60,0,7.6,-1,Correct Rejection,0.566771299986,False,-1,stimulus_MIPA23_Yes-No Task_2019_Jun_17_1424_286,-1,True,2019_Jun_17_1424,Yes-No Task,2,MIPA23,
Yes-No Task,61,0,61,0,2.9,-1,Miss,0.567523800011,True,-1,stimulus_MIPA23_Yes-No Task_2019_Jun_17_1424_287,-1,True,2019_Jun_17_1424,Yes-No Task,2,MIPA23,
Yes-No Task,62,0,62,0,5.7,-1,Correct Rejection,0.700815900025,False,-1,stimulus_MIPA23_Yes-No Task_2019_Jun_17_1424_288,-1,True,2019_Jun_17_1424,Yes-No Task,2,MIPA23,
Yes-No Task,63,0,63,0,6.7,-1,Correct Rejection,0.60113689999,False,-1,stimulus_MIPA23_Yes-No Task_2019_Jun_17_1424_289,-1,True,2019_Jun_17_1424,Yes-No Task,2,MIPA23,
Yes-No Task,64,0,64,0,5.7,-1,False Alarm,0.567520099983,False,-1,stimulus_MIPA23_Yes-No Task_2019_Jun_17_1424_290,-1,True,2019_Jun_17_1424,Yes-No Task,2,MIPA23,
Yes-No Task,65,0,65,0,8.6,-1,Miss,0.80083230001,True,-1,stimulus_MIPA23_Yes-No Task_2019_Jun_17_1424_291,-1,True,2019_Jun_17_1424,Yes-No Task,2,MIPA23,
Yes-No Task,66,0,66,0,6.7,-1,Hit,0.667143900006,True,-1,stimulus_MIPA23_Yes-No Task_2019_Jun_17_1424_292,-1,True,2019_Jun_17_1424,Yes-No Task,2,MIPA23,
Yes-No Task,67,0,67,0,7.6,-1,Correct Rejection,0.567455900018,False,-1,stimulus_MIPA23_Yes-No Task_2019_Jun_17_1424_293,-1,True,2019_Jun_17_1424,Yes-No Task,2,MIPA23,
Yes-No Task,68,0,68,0,10.7,-1,Hit,0.502064899978,True,-1,stimulus_MIPA23_Yes-No Task_2019_Jun_17_1424_294,-1,True,2019_Jun_17_1424,Yes-No Task,2,MIPA23,
Yes-No Task,69,0,69,0,9.6,-1,Correct Rejection,0.467418300017,False,-1,stimulus_MIPA23_Yes-No Task_2019_Jun_17_1424_295,-1,True,2019_Jun_17_1424,Yes-No Task,2,MIPA23,
Yes-No Task,70,0,70,0,9.6,-1,Hit,0.567363900016,True,-1,stimulus_MIPA23_Yes-No Task_2019_Jun_17_1424_296,-1,True,2019_Jun_17_1424,Yes-No Task,2,MIPA23,
Yes-No Task,71,0,71,0,4.5,-1,Miss,0.700732900004,True,-1,stimulus_MIPA23_Yes-No Task_2019_Jun_17_1424_297,-1,True,2019_Jun_17_1424,Yes-No Task,2,MIPA23,
Yes-No Task,72,0,72,0,9.6,-1,False Alarm,0.567536599992,False,-1,stimulus_MIPA23_Yes-No Task_2019_Jun_17_1424_298,-1,True,2019_Jun_17_1424,Yes-No Task,2,MIPA23,
Yes-No Task,73,0,73,0,8.6,-1,Miss,0.600666200015,True,-1,stimulus_MIPA23_Yes-No Task_2019_Jun_17_1424_299,-1,True,2019_Jun_17_1424,Yes-No Task,2,MIPA23,
Yes-No Task,74,0,74,0,7.6,-1,Correct Rejection,0.667317299987,False,-1,stimulus_MIPA23_Yes-No Task_2019_Jun_17_1424_300,-1,True,2019_Jun_17_1424,Yes-No Task,2,MIPA23,
Yes-No Task,0,0,0,0,7.6,-1,Correct Rejection,0.600830300013,False,-1,stimulus_MIPA23_Yes-No Task_2019_Jun_17_1424_301,-1,True,2019_Jun_17_1424,Yes-No Task,2,MIPA23,
Yes-No Task,1,0,1,0,2.9,-1,Miss,0.434820199996,True,-1,stimulus_MIPA23_Yes-No Task_2019_Jun_17_1424_302,-1,True,2019_Jun_17_1424,Yes-No Task,2,MIPA23,
Yes-No Task,2,0,2,0,7.6,-1,Correct Rejection,0.500730400003,False,-1,stimulus_MIPA23_Yes-No Task_2019_Jun_17_1424_303,-1,True,2019_Jun_17_1424,Yes-No Task,2,MIPA23,
Yes-No Task,3,0,3,0,4.5,-1,Hit,0.567562100012,True,-1,stimulus_MIPA23_Yes-No Task_2019_Jun_17_1424_304,-1,True,2019_Jun_17_1424,Yes-No Task,2,MIPA23,
Yes-No Task,4,0,4,0,4.5,-1,Correct Rejection,0.632219599996,False,-1,stimulus_MIPA23_Yes-No Task_2019_Jun_17_1424_305,-1,True,2019_Jun_17_1424,Yes-No Task,2,MIPA23,
Yes-No Task,5,0,5,0,8.6,-1,Hit,0.500458000024,True,-1,stimulus_MIPA23_Yes-No Task_2019_Jun_17_1424_306,-1,True,2019_Jun_17_1424,Yes-No Task,2,MIPA23,
Yes-No Task,6,0,6,0,7.6,-1,Correct Rejection,0.532730100007,False,-1,stimulus_MIPA23_Yes-No Task_2019_Jun_17_1424_307,-1,True,2019_Jun_17_1424,Yes-No Task,2,MIPA23,
Yes-No Task,7,0,7,0,4.5,-1,False Alarm,0.667647399998,False,-1,stimulus_MIPA23_Yes-No Task_2019_Jun_17_1424_308,-1,True,2019_Jun_17_1424,Yes-No Task,2,MIPA23,
Yes-No Task,8,0,8,0,2.9,-1,Correct Rejection,0.667779300013,False,-1,stimulus_MIPA23_Yes-No Task_2019_Jun_17_1424_309,-1,True,2019_Jun_17_1424,Yes-No Task,2,MIPA23,
Yes-No Task,9,0,9,0,9.6,-1,Correct Rejection,0.567466699984,False,-1,stimulus_MIPA23_Yes-No Task_2019_Jun_17_1424_310,-1,True,2019_Jun_17_1424,Yes-No Task,2,MIPA23,
Yes-No Task,10,0,10,0,6.7,-1,False Alarm,0.700981500006,False,-1,stimulus_MIPA23_Yes-No Task_2019_Jun_17_1424_311,-1,True,2019_Jun_17_1424,Yes-No Task,2,MIPA23,
Yes-No Task,11,0,11,0,5.7,-1,Hit,0.466117600008,True,-1,stimulus_MIPA23_Yes-No Task_2019_Jun_17_1424_312,-1,True,2019_Jun_17_1424,Yes-No Task,2,MIPA23,
Yes-No Task,12,0,12,0,10.7,-1,Correct Rejection,0.600513000012,False,-1,stimulus_MIPA23_Yes-No Task_2019_Jun_17_1424_313,-1,True,2019_Jun_17_1424,Yes-No Task,2,MIPA23,
Yes-No Task,13,0,13,0,9.6,-1,Correct Rejection,0.766571899992,False,-1,stimulus_MIPA23_Yes-No Task_2019_Jun_17_1424_314,-1,True,2019_Jun_17_1424,Yes-No Task,2,MIPA23,
Yes-No Task,14,0,14,0,4.5,-1,Correct Rejection,0.667529600003,False,-1,stimulus_MIPA23_Yes-No Task_2019_Jun_17_1424_315,-1,True,2019_Jun_17_1424,Yes-No Task,2,MIPA23,
Yes-No Task,15,0,15,0,10.7,-1,Correct Rejection,0.600149300008,False,-1,stimulus_MIPA23_Yes-No Task_2019_Jun_17_1424_316,-1,True,2019_Jun_17_1424,Yes-No Task,2,MIPA23,
Yes-No Task,16,0,16,0,10.7,-1,Correct Rejection,0.566997699992,False,-1,stimulus_MIPA23_Yes-No Task_2019_Jun_17_1424_317,-1,True,2019_Jun_17_1424,Yes-No Task,2,MIPA23,
Yes-No Task,17,0,17,0,2.9,-1,Correct Rejection,0.467122600006,False,-1,stimulus_MIPA23_Yes-No Task_2019_Jun_17_1424_318,-1,True,2019_Jun_17_1424,Yes-No Task,2,MIPA23,
Yes-No Task,18,0,18,0,9.6,-1,Correct Rejection,0.567068700009,False,-1,stimulus_MIPA23_Yes-No Task_2019_Jun_17_1424_319,-1,True,2019_Jun_17_1424,Yes-No Task,2,MIPA23,
Yes-No Task,19,0,19,0,7.6,-1,Hit,0.5675606,True,-1,stimulus_MIPA23_Yes-No Task_2019_Jun_17_1424_320,-1,True,2019_Jun_17_1424,Yes-No Task,2,MIPA23,
Yes-No Task,20,0,20,0,6.7,-1,Correct Rejection,0.634507099981,False,-1,stimulus_MIPA23_Yes-No Task_2019_Jun_17_1424_321,-1,True,2019_Jun_17_1424,Yes-No Task,2,MIPA23,
Yes-No Task,21,0,21,0,6.7,-1,Correct Rejection,0.566984300007,False,-1,stimulus_MIPA23_Yes-No Task_2019_Jun_17_1424_322,-1,True,2019_Jun_17_1424,Yes-No Task,2,MIPA23,
Yes-No Task,22,0,22,0,9.6,-1,Hit,0.601050800004,True,-1,stimulus_MIPA23_Yes-No Task_2019_Jun_17_1424_323,-1,True,2019_Jun_17_1424,Yes-No Task,2,MIPA23,
Yes-No Task,23,0,23,0,10.7,-1,Correct Rejection,0.53384650001,False,-1,stimulus_MIPA23_Yes-No Task_2019_Jun_17_1424_324,-1,True,2019_Jun_17_1424,Yes-No Task,2,MIPA23,
Yes-No Task,24,0,24,0,5.7,-1,Correct Rejection,0.567341699993,False,-1,stimulus_MIPA23_Yes-No Task_2019_Jun_17_1424_325,-1,True,2019_Jun_17_1424,Yes-No Task,2,MIPA23,
Yes-No Task,25,0,25,0,7.6,-1,Hit,0.60079289999,True,-1,stimulus_MIPA23_Yes-No Task_2019_Jun_17_1424_326,-1,True,2019_Jun_17_1424,Yes-No Task,2,MIPA23,
Yes-No Task,26,0,26,0,2.9,-1,Miss,0.566817999992,True,-1,stimulus_MIPA23_Yes-No Task_2019_Jun_17_1424_327,-1,True,2019_Jun_17_1424,Yes-No Task,2,MIPA23,
Yes-No Task,27,0,27,0,7.6,-1,Correct Rejection,0.633729499998,False,-1,stimulus_MIPA23_Yes-No Task_2019_Jun_17_1424_328,-1,True,2019_Jun_17_1424,Yes-No Task,2,MIPA23,
Yes-No Task,28,0,28,0,4.5,-1,False Alarm,0.668287000008,False,-1,stimulus_MIPA23_Yes-No Task_2019_Jun_17_1424_329,-1,True,2019_Jun_17_1424,Yes-No Task,2,MIPA23,
Yes-No Task,29,0,29,0,5.7,-1,Hit,0.567570100015,True,-1,stimulus_MIPA23_Yes-No Task_2019_Jun_17_1424_330,-1,True,2019_Jun_17_1424,Yes-No Task,2,MIPA23,
Yes-No Task,30,0,30,0,8.6,-1,Correct Rejection,0.568117999996,False,-1,stimulus_MIPA23_Yes-No Task_2019_Jun_17_1424_331,-1,True,2019_Jun_17_1424,Yes-No Task,2,MIPA23,
Yes-No Task,31,0,31,0,6.7,-1,Correct Rejection,0.635094600002,False,-1,stimulus_MIPA23_Yes-No Task_2019_Jun_17_1424_332,-1,True,2019_Jun_17_1424,Yes-No Task,2,MIPA23,
Yes-No Task,32,0,32,0,4.5,-1,Miss,0.701300699991,True,-1,stimulus_MIPA23_Yes-No Task_2019_Jun_17_1424_333,-1,True,2019_Jun_17_1424,Yes-No Task,2,MIPA23,
Yes-No Task,33,0,33,0,9.6,-1,False Alarm,0.533600300027,False,-1,stimulus_MIPA23_Yes-No Task_2019_Jun_17_1424_334,-1,True,2019_Jun_17_1424,Yes-No Task,2,MIPA23,
Yes-No Task,34,0,34,0,2.9,-1,Correct Rejection,0.70037570002,False,-1,stimulus_MIPA23_Yes-No Task_2019_Jun_17_1424_335,-1,True,2019_Jun_17_1424,Yes-No Task,2,MIPA23,
Yes-No Task,35,0,35,0,8.6,-1,Correct Rejection,0.834025399992,False,-1,stimulus_MIPA23_Yes-No Task_2019_Jun_17_1424_336,-1,True,2019_Jun_17_1424,Yes-No Task,2,MIPA23,
Yes-No Task,36,0,36,0,10.7,-1,Hit,0.467445599992,True,-1,stimulus_MIPA23_Yes-No Task_2019_Jun_17_1424_337,-1,True,2019_Jun_17_1424,Yes-No Task,2,MIPA23,
Yes-No Task,37,0,37,0,7.6,-1,Miss,0.533863000019,True,-1,stimulus_MIPA23_Yes-No Task_2019_Jun_17_1424_338,-1,True,2019_Jun_17_1424,Yes-No Task,2,MIPA23,
Yes-No Task,38,0,38,0,2.9,-1,Hit,0.501028600003,True,-1,stimulus_MIPA23_Yes-No Task_2019_Jun_17_1424_339,-1,True,2019_Jun_17_1424,Yes-No Task,2,MIPA23,
Yes-No Task,39,0,39,0,6.7,-1,Correct Rejection,0.567131699994,False,-1,stimulus_MIPA23_Yes-No Task_2019_Jun_17_1424_340,-1,True,2019_Jun_17_1424,Yes-No Task,2,MIPA23,
Yes-No Task,40,0,40,0,6.7,-1,Correct Rejection,0.635910599987,False,-1,stimulus_MIPA23_Yes-No Task_2019_Jun_17_1424_341,-1,True,2019_Jun_17_1424,Yes-No Task,2,MIPA23,
Yes-No Task,41,0,41,0,5.7,-1,Miss,0.5702475,True,-1,stimulus_MIPA23_Yes-No Task_2019_Jun_17_1424_342,-1,True,2019_Jun_17_1424,Yes-No Task,2,MIPA23,
Yes-No Task,42,0,42,0,6.7,-1,Hit,0.434422499995,True,-1,stimulus_MIPA23_Yes-No Task_2019_Jun_17_1424_343,-1,True,2019_Jun_17_1424,Yes-No Task,2,MIPA23,
Yes-No Task,43,0,43,0,2.9,-1,Correct Rejection,0.600962199998,False,-1,stimulus_MIPA23_Yes-No Task_2019_Jun_17_1424_344,-1,True,2019_Jun_17_1424,Yes-No Task,2,MIPA23,
Yes-No Task,44,0,44,0,9.6,-1,Hit,0.53269230001,True,-1,stimulus_MIPA23_Yes-No Task_2019_Jun_17_1424_345,-1,True,2019_Jun_17_1424,Yes-No Task,2,MIPA23,
Yes-No Task,45,0,45,0,4.5,-1,Correct Rejection,0.601523999998,False,-1,stimulus_MIPA23_Yes-No Task_2019_Jun_17_1424_346,-1,True,2019_Jun_17_1424,Yes-No Task,2,MIPA23,
Yes-No Task,46,0,46,0,4.5,-1,Correct Rejection,0.633825100027,False,-1,stimulus_MIPA23_Yes-No Task_2019_Jun_17_1424_347,-1,True,2019_Jun_17_1424,Yes-No Task,2,MIPA23,
Yes-No Task,47,0,47,0,5.7,-1,Correct Rejection,0.534120600001,False,-1,stimulus_MIPA23_Yes-No Task_2019_Jun_17_1424_348,-1,True,2019_Jun_17_1424,Yes-No Task,2,MIPA23,
Yes-No Task,48,0,48,0,4.5,-1,Miss,0.533802499995,True,-1,stimulus_MIPA23_Yes-No Task_2019_Jun_17_1424_349,-1,True,2019_Jun_17_1424,Yes-No Task,2,MIPA23,
Yes-No Task,49,0,49,0,9.6,-1,Correct Rejection,0.535149700008,False,-1,stimulus_MIPA23_Yes-No Task_2019_Jun_17_1424_350,-1,True,2019_Jun_17_1424,Yes-No Task,2,MIPA23,
Yes-No Task,50,0,50,0,7.6,-1,False Alarm,0.6358358,False,-1,stimulus_MIPA23_Yes-No Task_2019_Jun_17_1424_351,-1,True,2019_Jun_17_1424,Yes-No Task,2,MIPA23,
Yes-No Task,51,0,51,0,5.7,-1,Correct Rejection,0.566836999991,False,-1,stimulus_MIPA23_Yes-No Task_2019_Jun_17_1424_352,-1,True,2019_Jun_17_1424,Yes-No Task,2,MIPA23,
Yes-No Task,52,0,52,0,7.6,-1,Correct Rejection,0.634460300003,False,-1,stimulus_MIPA23_Yes-No Task_2019_Jun_17_1424_353,-1,True,2019_Jun_17_1424,Yes-No Task,2,MIPA23,
Yes-No Task,53,0,53,0,5.7,-1,Correct Rejection,0.567824399972,False,-1,stimulus_MIPA23_Yes-No Task_2019_Jun_17_1424_354,-1,True,2019_Jun_17_1424,Yes-No Task,2,MIPA23,
Yes-No Task,54,0,54,0,8.6,-1,Hit,0.467136499996,True,-1,stimulus_MIPA23_Yes-No Task_2019_Jun_17_1424_355,-1,True,2019_Jun_17_1424,Yes-No Task,2,MIPA23,
Yes-No Task,55,0,55,0,8.6,-1,Miss,0.567168300011,True,-1,stimulus_MIPA23_Yes-No Task_2019_Jun_17_1424_356,-1,True,2019_Jun_17_1424,Yes-No Task,2,MIPA23,
Yes-No Task,56,0,56,0,8.6,-1,False Alarm,0.500328099995,False,-1,stimulus_MIPA23_Yes-No Task_2019_Jun_17_1424_357,-1,True,2019_Jun_17_1424,Yes-No Task,2,MIPA23,
Yes-No Task,57,0,57,0,4.5,-1,Miss,0.668549800001,True,-1,stimulus_MIPA23_Yes-No Task_2019_Jun_17_1424_358,-1,True,2019_Jun_17_1424,Yes-No Task,2,MIPA23,
Yes-No Task,58,0,58,0,4.5,-1,Correct Rejection,0.700660400005,False,-1,stimulus_MIPA23_Yes-No Task_2019_Jun_17_1424_359,-1,True,2019_Jun_17_1424,Yes-No Task,2,MIPA23,
Yes-No Task,59,0,59,0,5.7,-1,Correct Rejection,0.567432800017,False,-1,stimulus_MIPA23_Yes-No Task_2019_Jun_17_1424_360,-1,True,2019_Jun_17_1424,Yes-No Task,2,MIPA23,
Yes-No Task,60,0,60,0,7.6,-1,Correct Rejection,0.633216100017,False,-1,stimulus_MIPA23_Yes-No Task_2019_Jun_17_1424_361,-1,True,2019_Jun_17_1424,Yes-No Task,2,MIPA23,
Yes-No Task,61,0,61,0,5.7,-1,Correct Rejection,0.60186949998,False,-1,stimulus_MIPA23_Yes-No Task_2019_Jun_17_1424_362,-1,True,2019_Jun_17_1424,Yes-No Task,2,MIPA23,
Yes-No Task,62,0,62,0,7.6,-1,Correct Rejection,0.633289599995,False,-1,stimulus_MIPA23_Yes-No Task_2019_Jun_17_1424_363,-1,True,2019_Jun_17_1424,Yes-No Task,2,MIPA23,
Yes-No Task,63,0,63,0,4.5,-1,Hit,0.566632399976,True,-1,stimulus_MIPA23_Yes-No Task_2019_Jun_17_1424_364,-1,True,2019_Jun_17_1424,Yes-No Task,2,MIPA23,
Yes-No Task,64,0,64,0,8.6,-1,Correct Rejection,0.568138900009,False,-1,stimulus_MIPA23_Yes-No Task_2019_Jun_17_1424_365,-1,True,2019_Jun_17_1424,Yes-No Task,2,MIPA23,
Yes-No Task,65,0,65,0,7.6,-1,Hit,0.56734020001,True,-1,stimulus_MIPA23_Yes-No Task_2019_Jun_17_1424_366,-1,True,2019_Jun_17_1424,Yes-No Task,2,MIPA23,
Yes-No Task,66,0,66,0,2.9,-1,Correct Rejection,0.633028699987,False,-1,stimulus_MIPA23_Yes-No Task_2019_Jun_17_1424_367,-1,True,2019_Jun_17_1424,Yes-No Task,2,MIPA23,
Yes-No Task,67,0,67,0,5.7,-1,Hit,0.633966000023,True,-1,stimulus_MIPA23_Yes-No Task_2019_Jun_17_1424_368,-1,True,2019_Jun_17_1424,Yes-No Task,2,MIPA23,
Yes-No Task,68,0,68,0,5.7,-1,Miss,0.534051199997,True,-1,stimulus_MIPA23_Yes-No Task_2019_Jun_17_1424_369,-1,True,2019_Jun_17_1424,Yes-No Task,2,MIPA23,
Yes-No Task,69,0,69,0,6.7,-1,Hit,0.534058799996,True,-1,stimulus_MIPA23_Yes-No Task_2019_Jun_17_1424_370,-1,True,2019_Jun_17_1424,Yes-No Task,2,MIPA23,
Yes-No Task,70,0,70,0,10.7,-1,Hit,0.567081800022,True,-1,stimulus_MIPA23_Yes-No Task_2019_Jun_17_1424_371,-1,True,2019_Jun_17_1424,Yes-No Task,2,MIPA23,
Yes-No Task,71,0,71,0,6.7,-1,Hit,0.634241199994,True,-1,stimulus_MIPA23_Yes-No Task_2019_Jun_17_1424_372,-1,True,2019_Jun_17_1424,Yes-No Task,2,MIPA23,
Yes-No Task,72,0,72,0,7.6,-1,Hit,0.601070199977,True,-1,stimulus_MIPA23_Yes-No Task_2019_Jun_17_1424_373,-1,True,2019_Jun_17_1424,Yes-No Task,2,MIPA23,
Yes-No Task,73,0,73,0,8.6,-1,Correct Rejection,0.600542200002,False,-1,stimulus_MIPA23_Yes-No Task_2019_Jun_17_1424_374,-1,True,2019_Jun_17_1424,Yes-No Task,2,MIPA23,
Yes-No Task,74,0,74,0,5.7,-1,Hit,0.632679099974,True,-1,stimulus_MIPA23_Yes-No Task_2019_Jun_17_1424_375,-1,True,2019_Jun_17_1424,Yes-No Task,2,MIPA23,
Yes-No Task,0,0,0,0,9.6,-1,Hit,0.667314599996,True,-1,stimulus_MIPA23_Yes-No Task_2019_Jun_17_1424_376,-1,True,2019_Jun_17_1424,Yes-No Task,2,MIPA23,
Yes-No Task,1,0,1,0,5.7,-1,False Alarm,0.633726999979,False,-1,stimulus_MIPA23_Yes-No Task_2019_Jun_17_1424_377,-1,True,2019_Jun_17_1424,Yes-No Task,2,MIPA23,
Yes-No Task,2,0,2,0,8.6,-1,Hit,0.5003325,True,-1,stimulus_MIPA23_Yes-No Task_2019_Jun_17_1424_378,-1,True,2019_Jun_17_1424,Yes-No Task,2,MIPA23,
Yes-No Task,3,0,3,0,10.7,-1,Correct Rejection,0.567628700024,False,-1,stimulus_MIPA23_Yes-No Task_2019_Jun_17_1424_379,-1,True,2019_Jun_17_1424,Yes-No Task,2,MIPA23,
Yes-No Task,4,0,4,0,10.7,-1,Correct Rejection,0.466793,False,-1,stimulus_MIPA23_Yes-No Task_2019_Jun_17_1424_380,-1,True,2019_Jun_17_1424,Yes-No Task,2,MIPA23,
Yes-No Task,5,0,5,0,8.6,-1,Hit,0.434225200006,True,-1,stimulus_MIPA23_Yes-No Task_2019_Jun_17_1424_381,-1,True,2019_Jun_17_1424,Yes-No Task,2,MIPA23,
Yes-No Task,6,0,6,0,4.5,-1,Correct Rejection,0.567596699984,False,-1,stimulus_MIPA23_Yes-No Task_2019_Jun_17_1424_382,-1,True,2019_Jun_17_1424,Yes-No Task,2,MIPA23,
Yes-No Task,7,0,7,0,8.6,-1,Hit,0.467639999988,True,-1,stimulus_MIPA23_Yes-No Task_2019_Jun_17_1424_383,-1,True,2019_Jun_17_1424,Yes-No Task,2,MIPA23,
Yes-No Task,8,0,8,0,5.7,-1,Correct Rejection,0.500400999998,False,-1,stimulus_MIPA23_Yes-No Task_2019_Jun_17_1424_384,-1,True,2019_Jun_17_1424,Yes-No Task,2,MIPA23,
Yes-No Task,9,0,9,0,2.9,-1,Hit,0.567251300003,True,-1,stimulus_MIPA23_Yes-No Task_2019_Jun_17_1424_385,-1,True,2019_Jun_17_1424,Yes-No Task,2,MIPA23,
Yes-No Task,10,0,10,0,7.6,-1,False Alarm,0.599955200014,False,-1,stimulus_MIPA23_Yes-No Task_2019_Jun_17_1424_386,-1,True,2019_Jun_17_1424,Yes-No Task,2,MIPA23,
Yes-No Task,11,0,11,0,4.5,-1,Hit,0.5344683,True,-1,stimulus_MIPA23_Yes-No Task_2019_Jun_17_1424_387,-1,True,2019_Jun_17_1424,Yes-No Task,2,MIPA23,
Yes-No Task,12,0,12,0,8.6,-1,False Alarm,0.666812100011,False,-1,stimulus_MIPA23_Yes-No Task_2019_Jun_17_1424_388,-1,True,2019_Jun_17_1424,Yes-No Task,2,MIPA23,
Yes-No Task,13,0,13,0,2.9,-1,Correct Rejection,0.567051699996,False,-1,stimulus_MIPA23_Yes-No Task_2019_Jun_17_1424_389,-1,True,2019_Jun_17_1424,Yes-No Task,2,MIPA23,
Yes-No Task,14,0,14,0,4.5,-1,Hit,0.500280099979,True,-1,stimulus_MIPA23_Yes-No Task_2019_Jun_17_1424_390,-1,True,2019_Jun_17_1424,Yes-No Task,2,MIPA23,
Yes-No Task,15,0,15,0,8.6,-1,Correct Rejection,0.602665700018,False,-1,stimulus_MIPA23_Yes-No Task_2019_Jun_17_1424_391,-1,True,2019_Jun_17_1424,Yes-No Task,2,MIPA23,
Yes-No Task,16,0,16,0,10.7,-1,Correct Rejection,0.667555299995,False,-1,stimulus_MIPA23_Yes-No Task_2019_Jun_17_1424_392,-1,True,2019_Jun_17_1424,Yes-No Task,2,MIPA23,
Yes-No Task,17,0,17,0,9.6,-1,Hit,0.533865200006,True,-1,stimulus_MIPA23_Yes-No Task_2019_Jun_17_1424_393,-1,True,2019_Jun_17_1424,Yes-No Task,2,MIPA23,
Yes-No Task,18,0,18,0,7.6,-1,Hit,0.56769939998,True,-1,stimulus_MIPA23_Yes-No Task_2019_Jun_17_1424_394,-1,True,2019_Jun_17_1424,Yes-No Task,2,MIPA23,
Yes-No Task,19,0,19,0,9.6,-1,Hit,0.501088899997,True,-1,stimulus_MIPA23_Yes-No Task_2019_Jun_17_1424_395,-1,True,2019_Jun_17_1424,Yes-No Task,2,MIPA23,
Yes-No Task,20,0,20,0,10.7,-1,Correct Rejection,0.60095339999,False,-1,stimulus_MIPA23_Yes-No Task_2019_Jun_17_1424_396,-1,True,2019_Jun_17_1424,Yes-No Task,2,MIPA23,
Yes-No Task,21,0,21,0,6.7,-1,Hit,0.633754299983,True,-1,stimulus_MIPA23_Yes-No Task_2019_Jun_17_1424_397,-1,True,2019_Jun_17_1424,Yes-No Task,2,MIPA23,
Yes-No Task,22,0,22,0,7.6,-1,Hit,0.601103499997,True,-1,stimulus_MIPA23_Yes-No Task_2019_Jun_17_1424_398,-1,True,2019_Jun_17_1424,Yes-No Task,2,MIPA23,
Yes-No Task,23,0,23,0,8.6,-1,Correct Rejection,0.600850800023,False,-1,stimulus_MIPA23_Yes-No Task_2019_Jun_17_1424_399,-1,True,2019_Jun_17_1424,Yes-No Task,2,MIPA23,
Yes-No Task,24,0,24,0,6.7,-1,Correct Rejection,0.601136299985,False,-1,stimulus_MIPA23_Yes-No Task_2019_Jun_17_1424_400,-1,True,2019_Jun_17_1424,Yes-No Task,2,MIPA23,
Yes-No Task,25,0,25,0,8.6,-1,Correct Rejection,0.667252099985,False,-1,stimulus_MIPA23_Yes-No Task_2019_Jun_17_1424_401,-1,True,2019_Jun_17_1424,Yes-No Task,2,MIPA23,
Yes-No Task,26,0,26,0,6.7,-1,Hit,0.501171499986,True,-1,stimulus_MIPA23_Yes-No Task_2019_Jun_17_1424_402,-1,True,2019_Jun_17_1424,Yes-No Task,2,MIPA23,
Yes-No Task,27,0,27,0,5.7,-1,Correct Rejection,0.70114640001,False,-1,stimulus_MIPA23_Yes-No Task_2019_Jun_17_1424_403,-1,True,2019_Jun_17_1424,Yes-No Task,2,MIPA23,
Yes-No Task,28,0,28,0,10.7,-1,Correct Rejection,0.635680900014,False,-1,stimulus_MIPA23_Yes-No Task_2019_Jun_17_1424_404,-1,True,2019_Jun_17_1424,Yes-No Task,2,MIPA23,
Yes-No Task,29,0,29,0,4.5,-1,False Alarm,0.502137700008,False,-1,stimulus_MIPA23_Yes-No Task_2019_Jun_17_1424_405,-1,True,2019_Jun_17_1424,Yes-No Task,2,MIPA23,
Yes-No Task,30,0,30,0,4.5,-1,Hit,0.534015900019,True,-1,stimulus_MIPA23_Yes-No Task_2019_Jun_17_1424_406,-1,True,2019_Jun_17_1424,Yes-No Task,2,MIPA23,
Yes-No Task,31,0,31,0,10.7,-1,Hit,0.500672900002,True,-1,stimulus_MIPA23_Yes-No Task_2019_Jun_17_1424_407,-1,True,2019_Jun_17_1424,Yes-No Task,2,MIPA23,
Yes-No Task,32,0,32,0,6.7,-1,Miss,0.700687700009,True,-1,stimulus_MIPA23_Yes-No Task_2019_Jun_17_1424_408,-1,True,2019_Jun_17_1424,Yes-No Task,2,MIPA23,
Yes-No Task,33,0,33,0,4.5,-1,Correct Rejection,0.633951399999,False,-1,stimulus_MIPA23_Yes-No Task_2019_Jun_17_1424_409,-1,True,2019_Jun_17_1424,Yes-No Task,2,MIPA23,
Yes-No Task,34,0,34,0,8.6,-1,Hit,0.500850600016,True,-1,stimulus_MIPA23_Yes-No Task_2019_Jun_17_1424_410,-1,True,2019_Jun_17_1424,Yes-No Task,2,MIPA23,
Yes-No Task,35,0,35,0,6.7,-1,Hit,0.532983200013,True,-1,stimulus_MIPA23_Yes-No Task_2019_Jun_17_1424_411,-1,True,2019_Jun_17_1424,Yes-No Task,2,MIPA23,
Yes-No Task,36,0,36,0,2.9,-1,Miss,0.533522399986,True,-1,stimulus_MIPA23_Yes-No Task_2019_Jun_17_1424_412,-1,True,2019_Jun_17_1424,Yes-No Task,2,MIPA23,
Yes-No Task,37,0,37,0,6.7,-1,False Alarm,0.701011499972,False,-1,stimulus_MIPA23_Yes-No Task_2019_Jun_17_1424_413,-1,True,2019_Jun_17_1424,Yes-No Task,2,MIPA23,
Yes-No Task,38,0,38,0,4.5,-1,Miss,0.633419299993,True,-1,stimulus_MIPA23_Yes-No Task_2019_Jun_17_1424_414,-1,True,2019_Jun_17_1424,Yes-No Task,2,MIPA23,
Yes-No Task,39,0,39,0,10.7,-1,Correct Rejection,0.800203099992,False,-1,stimulus_MIPA23_Yes-No Task_2019_Jun_17_1424_415,-1,True,2019_Jun_17_1424,Yes-No Task,2,MIPA23,
Yes-No Task,40,0,40,0,10.7,-1,Hit,0.567447300011,True,-1,stimulus_MIPA23_Yes-No Task_2019_Jun_17_1424_416,-1,True,2019_Jun_17_1424,Yes-No Task,2,MIPA23,
Yes-No Task,41,0,41,0,2.9,-1,Correct Rejection,0.633925400005,False,-1,stimulus_MIPA23_Yes-No Task_2019_Jun_17_1424_417,-1,True,2019_Jun_17_1424,Yes-No Task,2,MIPA23,
Yes-No Task,42,0,42,0,5.7,-1,Hit,0.533776800003,True,-1,stimulus_MIPA23_Yes-No Task_2019_Jun_17_1424_418,-1,True,2019_Jun_17_1424,Yes-No Task,2,MIPA23,
Yes-No Task,43,0,43,0,7.6,-1,False Alarm,0.533958999993,False,-1,stimulus_MIPA23_Yes-No Task_2019_Jun_17_1424_419,-1,True,2019_Jun_17_1424,Yes-No Task,2,MIPA23,
Yes-No Task,44,0,44,0,9.6,-1,Correct Rejection,0.601234800008,False,-1,stimulus_MIPA23_Yes-No Task_2019_Jun_17_1424_420,-1,True,2019_Jun_17_1424,Yes-No Task,2,MIPA23,
Yes-No Task,45,0,45,0,2.9,-1,Correct Rejection,0.568367599975,False,-1,stimulus_MIPA23_Yes-No Task_2019_Jun_17_1424_421,-1,True,2019_Jun_17_1424,Yes-No Task,2,MIPA23,
Yes-No Task,46,0,46,0,8.6,-1,Correct Rejection,0.500299900013,False,-1,stimulus_MIPA23_Yes-No Task_2019_Jun_17_1424_422,-1,True,2019_Jun_17_1424,Yes-No Task,2,MIPA23,
Yes-No Task,47,0,47,0,6.7,-1,Hit,0.600922699989,True,-1,stimulus_MIPA23_Yes-No Task_2019_Jun_17_1424_423,-1,True,2019_Jun_17_1424,Yes-No Task,2,MIPA23,
Yes-No Task,48,0,48,0,10.7,-1,Miss,0.56764210001,True,-1,stimulus_MIPA23_Yes-No Task_2019_Jun_17_1424_424,-1,True,2019_Jun_17_1424,Yes-No Task,2,MIPA23,
Yes-No Task,49,0,49,0,7.6,-1,Hit,0.600859800004,True,-1,stimulus_MIPA23_Yes-No Task_2019_Jun_17_1424_425,-1,True,2019_Jun_17_1424,Yes-No Task,2,MIPA23,
Yes-No Task,50,0,50,0,7.6,-1,Hit,0.536218599998,True,-1,stimulus_MIPA23_Yes-No Task_2019_Jun_17_1424_426,-1,True,2019_Jun_17_1424,Yes-No Task,2,MIPA23,
Yes-No Task,51,0,51,0,2.9,-1,Miss,0.533895500004,True,-1,stimulus_MIPA23_Yes-No Task_2019_Jun_17_1424_427,-1,True,2019_Jun_17_1424,Yes-No Task,2,MIPA23,
Yes-No Task,52,0,52,0,6.7,-1,Correct Rejection,0.567336699984,False,-1,stimulus_MIPA23_Yes-No Task_2019_Jun_17_1424_428,-1,True,2019_Jun_17_1424,Yes-No Task,2,MIPA23,
Yes-No Task,53,0,53,0,2.9,-1,Correct Rejection,0.534325399989,False,-1,stimulus_MIPA23_Yes-No Task_2019_Jun_17_1424_429,-1,True,2019_Jun_17_1424,Yes-No Task,2,MIPA23,
Yes-No Task,54,0,54,0,4.5,-1,Miss,0.468242800009,True,-1,stimulus_MIPA23_Yes-No Task_2019_Jun_17_1424_430,-1,True,2019_Jun_17_1424,Yes-No Task,2,MIPA23,
Yes-No Task,55,0,55,0,7.6,-1,Correct Rejection,0.600634999981,False,-1,stimulus_MIPA23_Yes-No Task_2019_Jun_17_1424_431,-1,True,2019_Jun_17_1424,Yes-No Task,2,MIPA23,
Yes-No Task,56,0,56,0,4.5,-1,Hit,0.467162899993,True,-1,stimulus_MIPA23_Yes-No Task_2019_Jun_17_1424_432,-1,True,2019_Jun_17_1424,Yes-No Task,2,MIPA23,
Yes-No Task,57,0,57,0,2.9,-1,Miss,0.599942900008,True,-1,stimulus_MIPA23_Yes-No Task_2019_Jun_17_1424_433,-1,True,2019_Jun_17_1424,Yes-No Task,2,MIPA23,
Yes-No Task,58,0,58,0,6.7,-1,Correct Rejection,0.634724899981,False,-1,stimulus_MIPA23_Yes-No Task_2019_Jun_17_1424_434,-1,True,2019_Jun_17_1424,Yes-No Task,2,MIPA23,
Yes-No Task,59,0,59,0,10.7,-1,Hit,0.500566700008,True,-1,stimulus_MIPA23_Yes-No Task_2019_Jun_17_1424_435,-1,True,2019_Jun_17_1424,Yes-No Task,2,MIPA23,
Yes-No Task,60,0,60,0,4.5,-1,Miss,0.534082800004,True,-1,stimulus_MIPA23_Yes-No Task_2019_Jun_17_1424_436,-1,True,2019_Jun_17_1424,Yes-No Task,2,MIPA23,
Yes-No Task,61,0,61,0,6.7,-1,Hit,0.567114200006,True,-1,stimulus_MIPA23_Yes-No Task_2019_Jun_17_1424_437,-1,True,2019_Jun_17_1424,Yes-No Task,2,MIPA23,
Yes-No Task,62,0,62,0,4.5,-1,Hit,0.534024799999,True,-1,stimulus_MIPA23_Yes-No Task_2019_Jun_17_1424_438,-1,True,2019_Jun_17_1424,Yes-No Task,2,MIPA23,
Yes-No Task,63,0,63,0,6.7,-1,False Alarm,0.533374799998,False,-1,stimulus_MIPA23_Yes-No Task_2019_Jun_17_1424_439,-1,True,2019_Jun_17_1424,Yes-No Task,2,MIPA23,
Yes-No Task,64,0,64,0,2.9,-1,Miss,0.633380100015,True,-1,stimulus_MIPA23_Yes-No Task_2019_Jun_17_1424_440,-1,True,2019_Jun_17_1424,Yes-No Task,2,MIPA23,
Yes-No Task,65,0,65,0,8.6,-1,Correct Rejection,0.567206100008,False,-1,stimulus_MIPA23_Yes-No Task_2019_Jun_17_1424_441,-1,True,2019_Jun_17_1424,Yes-No Task,2,MIPA23,
Yes-No Task,66,0,66,0,4.5,-1,False Alarm,0.734459300002,False,-1,stimulus_MIPA23_Yes-No Task_2019_Jun_17_1424_442,-1,True,2019_Jun_17_1424,Yes-No Task,2,MIPA23,
Yes-No Task,67,0,67,0,10.7,-1,Hit,0.600893700001,True,-1,stimulus_MIPA23_Yes-No Task_2019_Jun_17_1424_443,-1,True,2019_Jun_17_1424,Yes-No Task,2,MIPA23,
Yes-No Task,68,0,68,0,10.7,-1,Hit,0.499512200011,True,-1,stimulus_MIPA23_Yes-No Task_2019_Jun_17_1424_444,-1,True,2019_Jun_17_1424,Yes-No Task,2,MIPA23,
Yes-No Task,69,0,69,0,2.9,-1,Correct Rejection,0.600750300015,False,-1,stimulus_MIPA23_Yes-No Task_2019_Jun_17_1424_445,-1,True,2019_Jun_17_1424,Yes-No Task,2,MIPA23,
Yes-No Task,70,0,70,0,10.7,-1,Correct Rejection,0.833439700014,False,-1,stimulus_MIPA23_Yes-No Task_2019_Jun_17_1424_446,-1,True,2019_Jun_17_1424,Yes-No Task,2,MIPA23,
Yes-No Task,71,0,71,0,6.7,-1,Correct Rejection,0.668014800001,False,-1,stimulus_MIPA23_Yes-No Task_2019_Jun_17_1424_447,-1,True,2019_Jun_17_1424,Yes-No Task,2,MIPA23,
Yes-No Task,72,0,72,0,9.6,-1,Correct Rejection,0.53423379999,False,-1,stimulus_MIPA23_Yes-No Task_2019_Jun_17_1424_448,-1,True,2019_Jun_17_1424,Yes-No Task,2,MIPA23,
Yes-No Task,73,0,73,0,10.7,-1,Hit,0.568144800025,True,-1,stimulus_MIPA23_Yes-No Task_2019_Jun_17_1424_449,-1,True,2019_Jun_17_1424,Yes-No Task,2,MIPA23,
Yes-No Task,74,0,74,0,2.9,-1,Correct Rejection,0.567047600023,False,-1,stimulus_MIPA23_Yes-No Task_2019_Jun_17_1424_450,-1,True,2019_Jun_17_1424,Yes-No Task,2,MIPA23,
Yes-No Task,0,0,0,0,4.5,-1,Hit,0.767312000011,True,-1,stimulus_MIPA23_Yes-No Task_2019_Jun_17_1424_451,-1,True,2019_Jun_17_1424,Yes-No Task,2,MIPA23,
Yes-No Task,1,0,1,0,8.6,-1,Correct Rejection,0.500638799975,False,-1,stimulus_MIPA23_Yes-No Task_2019_Jun_17_1424_452,-1,True,2019_Jun_17_1424,Yes-No Task,2,MIPA23,
Yes-No Task,2,0,2,0,2.9,-1,Hit,0.5336541,True,-1,stimulus_MIPA23_Yes-No Task_2019_Jun_17_1424_453,-1,True,2019_Jun_17_1424,Yes-No Task,2,MIPA23,
Yes-No Task,3,0,3,0,2.9,-1,Miss,0.532920199999,True,-1,stimulus_MIPA23_Yes-No Task_2019_Jun_17_1424_454,-1,True,2019_Jun_17_1424,Yes-No Task,2,MIPA23,
Yes-No Task,4,0,4,0,5.7,-1,Hit,0.533904799988,True,-1,stimulus_MIPA23_Yes-No Task_2019_Jun_17_1424_455,-1,True,2019_Jun_17_1424,Yes-No Task,2,MIPA23,
Yes-No Task,5,0,5,0,4.5,-1,False Alarm,0.567084299983,False,-1,stimulus_MIPA23_Yes-No Task_2019_Jun_17_1424_456,-1,True,2019_Jun_17_1424,Yes-No Task,2,MIPA23,
Yes-No Task,6,0,6,0,10.7,-1,Correct Rejection,0.600391099986,False,-1,stimulus_MIPA23_Yes-No Task_2019_Jun_17_1424_457,-1,True,2019_Jun_17_1424,Yes-No Task,2,MIPA23,
Yes-No Task,7,0,7,0,10.7,-1,Hit,0.50072739998,True,-1,stimulus_MIPA23_Yes-No Task_2019_Jun_17_1424_458,-1,True,2019_Jun_17_1424,Yes-No Task,2,MIPA23,
Yes-No Task,8,0,8,0,8.6,-1,Hit,0.5333713,True,-1,stimulus_MIPA23_Yes-No Task_2019_Jun_17_1424_459,-1,True,2019_Jun_17_1424,Yes-No Task,2,MIPA23,
Yes-No Task,9,0,9,0,4.5,-1,Correct Rejection,0.534108400025,False,-1,stimulus_MIPA23_Yes-No Task_2019_Jun_17_1424_460,-1,True,2019_Jun_17_1424,Yes-No Task,2,MIPA23,
Yes-No Task,10,0,10,0,2.9,-1,Hit,0.534823599999,True,-1,stimulus_MIPA23_Yes-No Task_2019_Jun_17_1424_461,-1,True,2019_Jun_17_1424,Yes-No Task,2,MIPA23,
Yes-No Task,11,0,11,0,7.6,-1,Hit,0.534061000013,True,-1,stimulus_MIPA23_Yes-No Task_2019_Jun_17_1424_462,-1,True,2019_Jun_17_1424,Yes-No Task,2,MIPA23,
Yes-No Task,12,0,12,0,10.7,-1,Correct Rejection,0.534051800001,False,-1,stimulus_MIPA23_Yes-No Task_2019_Jun_17_1424_463,-1,True,2019_Jun_17_1424,Yes-No Task,2,MIPA23,
Yes-No Task,13,0,13,0,7.6,-1,Hit,0.535285199992,True,-1,stimulus_MIPA23_Yes-No Task_2019_Jun_17_1424_464,-1,True,2019_Jun_17_1424,Yes-No Task,2,MIPA23,
Yes-No Task,14,0,14,0,7.6,-1,Correct Rejection,0.536918500002,False,-1,stimulus_MIPA23_Yes-No Task_2019_Jun_17_1424_465,-1,True,2019_Jun_17_1424,Yes-No Task,2,MIPA23,
Yes-No Task,15,0,15,0,9.6,-1,Correct Rejection,0.600193899998,False,-1,stimulus_MIPA23_Yes-No Task_2019_Jun_17_1424_466,-1,True,2019_Jun_17_1424,Yes-No Task,2,MIPA23,
Yes-No Task,16,0,16,0,6.7,-1,False Alarm,0.567022700008,False,-1,stimulus_MIPA23_Yes-No Task_2019_Jun_17_1424_467,-1,True,2019_Jun_17_1424,Yes-No Task,2,MIPA23,
Yes-No Task,17,0,17,0,8.6,-1,Hit,0.500128500018,True,-1,stimulus_MIPA23_Yes-No Task_2019_Jun_17_1424_468,-1,True,2019_Jun_17_1424,Yes-No Task,2,MIPA23,
Yes-No Task,18,0,18,0,10.7,-1,Hit,0.635313200008,True,-1,stimulus_MIPA23_Yes-No Task_2019_Jun_17_1424_469,-1,True,2019_Jun_17_1424,Yes-No Task,2,MIPA23,
Yes-No Task,19,0,19,0,6.7,-1,Miss,0.667337399995,True,-1,stimulus_MIPA23_Yes-No Task_2019_Jun_17_1424_470,-1,True,2019_Jun_17_1424,Yes-No Task,2,MIPA23,
Yes-No Task,20,0,20,0,7.6,-1,Hit,0.567325599986,True,-1,stimulus_MIPA23_Yes-No Task_2019_Jun_17_1424_471,-1,True,2019_Jun_17_1424,Yes-No Task,2,MIPA23,
Yes-No Task,21,0,21,0,5.7,-1,Miss,0.801221400005,True,-1,stimulus_MIPA23_Yes-No Task_2019_Jun_17_1424_472,-1,True,2019_Jun_17_1424,Yes-No Task,2,MIPA23,
Yes-No Task,22,0,22,0,2.9,-1,False Alarm,0.600184999988,False,-1,stimulus_MIPA23_Yes-No Task_2019_Jun_17_1424_473,-1,True,2019_Jun_17_1424,Yes-No Task,2,MIPA23,
Yes-No Task,23,0,23,0,7.6,-1,False Alarm,0.60070760001,False,-1,stimulus_MIPA23_Yes-No Task_2019_Jun_17_1424_474,-1,True,2019_Jun_17_1424,Yes-No Task,2,MIPA23,
Yes-No Task,24,0,24,0,2.9,-1,Miss,0.700494599994,True,-1,stimulus_MIPA23_Yes-No Task_2019_Jun_17_1424_475,-1,True,2019_Jun_17_1424,Yes-No Task,2,MIPA23,
Yes-No Task,25,0,25,0,5.7,-1,Hit,0.600878199999,True,-1,stimulus_MIPA23_Yes-No Task_2019_Jun_17_1424_476,-1,True,2019_Jun_17_1424,Yes-No Task,2,MIPA23,
Yes-No Task,26,0,26,0,6.7,-1,Miss,0.736078800022,True,-1,stimulus_MIPA23_Yes-No Task_2019_Jun_17_1424_477,-1,True,2019_Jun_17_1424,Yes-No Task,2,MIPA23,
Yes-No Task,27,0,27,0,7.6,-1,Hit,0.599303700001,True,-1,stimulus_MIPA23_Yes-No Task_2019_Jun_17_1424_478,-1,True,2019_Jun_17_1424,Yes-No Task,2,MIPA23,
Yes-No Task,28,0,28,0,7.6,-1,Correct Rejection,0.567472399998,False,-1,stimulus_MIPA23_Yes-No Task_2019_Jun_17_1424_479,-1,True,2019_Jun_17_1424,Yes-No Task,2,MIPA23,
Yes-No Task,29,0,29,0,8.6,-1,Hit,0.600668700004,True,-1,stimulus_MIPA23_Yes-No Task_2019_Jun_17_1424_480,-1,True,2019_Jun_17_1424,Yes-No Task,2,MIPA23,
Yes-No Task,30,0,30,0,10.7,-1,Hit,0.600386299979,True,-1,stimulus_MIPA23_Yes-No Task_2019_Jun_17_1424_481,-1,True,2019_Jun_17_1424,Yes-No Task,2,MIPA23,
Yes-No Task,31,0,31,0,4.5,-1,False Alarm,0.566901399987,False,-1,stimulus_MIPA23_Yes-No Task_2019_Jun_17_1424_482,-1,True,2019_Jun_17_1424,Yes-No Task,2,MIPA23,
Yes-No Task,32,0,32,0,7.6,-1,Correct Rejection,0.667604099988,False,-1,stimulus_MIPA23_Yes-No Task_2019_Jun_17_1424_483,-1,True,2019_Jun_17_1424,Yes-No Task,2,MIPA23,
Yes-No Task,33,0,33,0,4.5,-1,Hit,0.600430199993,True,-1,stimulus_MIPA23_Yes-No Task_2019_Jun_17_1424_484,-1,True,2019_Jun_17_1424,Yes-No Task,2,MIPA23,
Yes-No Task,34,0,34,0,2.9,-1,Miss,0.7344094,True,-1,stimulus_MIPA23_Yes-No Task_2019_Jun_17_1424_485,-1,True,2019_Jun_17_1424,Yes-No Task,2,MIPA23,
Yes-No Task,35,0,35,0,7.6,-1,Correct Rejection,0.732696199993,False,-1,stimulus_MIPA23_Yes-No Task_2019_Jun_17_1424_486,-1,True,2019_Jun_17_1424,Yes-No Task,2,MIPA23,
Yes-No Task,36,0,36,0,6.7,-1,Hit,0.666492599994,True,-1,stimulus_MIPA23_Yes-No Task_2019_Jun_17_1424_487,-1,True,2019_Jun_17_1424,Yes-No Task,2,MIPA23,
Yes-No Task,37,0,37,0,9.6,-1,Correct Rejection,0.602335400006,False,-1,stimulus_MIPA23_Yes-No Task_2019_Jun_17_1424_488,-1,True,2019_Jun_17_1424,Yes-No Task,2,MIPA23,
Yes-No Task,38,0,38,0,4.5,-1,Hit,0.598701900017,True,-1,stimulus_MIPA23_Yes-No Task_2019_Jun_17_1424_489,-1,True,2019_Jun_17_1424,Yes-No Task,2,MIPA23,
Yes-No Task,39,0,39,0,9.6,-1,Hit,0.601744500018,True,-1,stimulus_MIPA23_Yes-No Task_2019_Jun_17_1424_490,-1,True,2019_Jun_17_1424,Yes-No Task,2,MIPA23,
Yes-No Task,40,0,40,0,6.7,-1,Correct Rejection,0.634326600004,False,-1,stimulus_MIPA23_Yes-No Task_2019_Jun_17_1424_491,-1,True,2019_Jun_17_1424,Yes-No Task,2,MIPA23,
Yes-No Task,41,0,41,0,2.9,-1,Hit,0.834240800003,True,-1,stimulus_MIPA23_Yes-No Task_2019_Jun_17_1424_492,-1,True,2019_Jun_17_1424,Yes-No Task,2,MIPA23,
Yes-No Task,42,0,42,0,6.7,-1,Hit,0.76785199999,True,-1,stimulus_MIPA23_Yes-No Task_2019_Jun_17_1424_493,-1,True,2019_Jun_17_1424,Yes-No Task,2,MIPA23,
Yes-No Task,43,0,43,0,9.6,-1,Hit,0.568653900002,True,-1,stimulus_MIPA23_Yes-No Task_2019_Jun_17_1424_494,-1,True,2019_Jun_17_1424,Yes-No Task,2,MIPA23,
Yes-No Task,44,0,44,0,7.6,-1,Correct Rejection,0.601175100019,False,-1,stimulus_MIPA23_Yes-No Task_2019_Jun_17_1424_495,-1,True,2019_Jun_17_1424,Yes-No Task,2,MIPA23,
Yes-No Task,45,0,45,0,10.7,-1,Correct Rejection,0.634082000004,False,-1,stimulus_MIPA23_Yes-No Task_2019_Jun_17_1424_496,-1,True,2019_Jun_17_1424,Yes-No Task,2,MIPA23,
Yes-No Task,46,0,46,0,7.6,-1,Hit,0.600531300006,True,-1,stimulus_MIPA23_Yes-No Task_2019_Jun_17_1424_497,-1,True,2019_Jun_17_1424,Yes-No Task,2,MIPA23,
Yes-No Task,47,0,47,0,9.6,-1,Correct Rejection,0.66755329998,False,-1,stimulus_MIPA23_Yes-No Task_2019_Jun_17_1424_498,-1,True,2019_Jun_17_1424,Yes-No Task,2,MIPA23,
Yes-No Task,48,0,48,0,8.6,-1,Correct Rejection,0.602605499997,False,-1,stimulus_MIPA23_Yes-No Task_2019_Jun_17_1424_499,-1,True,2019_Jun_17_1424,Yes-No Task,2,MIPA23,
Yes-No Task,49,0,49,0,7.6,-1,Hit,0.466800299997,True,-1,stimulus_MIPA23_Yes-No Task_2019_Jun_17_1424_500,-1,True,2019_Jun_17_1424,Yes-No Task,2,MIPA23,
Yes-No Task,50,0,50,0,2.9,-1,Hit,0.533494600008,True,-1,stimulus_MIPA23_Yes-No Task_2019_Jun_17_1424_501,-1,True,2019_Jun_17_1424,Yes-No Task,2,MIPA23,
Yes-No Task,51,0,51,0,10.7,-1,False Alarm,0.533308099984,False,-1,stimulus_MIPA23_Yes-No Task_2019_Jun_17_1424_502,-1,True,2019_Jun_17_1424,Yes-No Task,2,MIPA23,
Yes-No Task,52,0,52,0,5.7,-1,Hit,0.500597700011,True,-1,stimulus_MIPA23_Yes-No Task_2019_Jun_17_1424_503,-1,True,2019_Jun_17_1424,Yes-No Task,2,MIPA23,
Yes-No Task,53,0,53,0,2.9,-1,Miss,0.63385469999,True,-1,stimulus_MIPA23_Yes-No Task_2019_Jun_17_1424_504,-1,True,2019_Jun_17_1424,Yes-No Task,2,MIPA23,
Yes-No Task,54,0,54,0,7.6,-1,Correct Rejection,0.667243100004,False,-1,stimulus_MIPA23_Yes-No Task_2019_Jun_17_1424_505,-1,True,2019_Jun_17_1424,Yes-No Task,2,MIPA23,
Yes-No Task,55,0,55,0,4.5,-1,False Alarm,0.634046400024,False,-1,stimulus_MIPA23_Yes-No Task_2019_Jun_17_1424_506,-1,True,2019_Jun_17_1424,Yes-No Task,2,MIPA23,
Yes-No Task,56,0,56,0,4.5,-1,No Answer,-1,False,-1,stimulus_MIPA23_Yes-No Task_2019_Jun_17_1424_507,-1,True,2019_Jun_17_1424,Yes-No Task,2,MIPA23,
Yes-No Task,57,0,57,0,2.9,-1,Miss,0.600621999998,True,-1,stimulus_MIPA23_Yes-No Task_2019_Jun_17_1424_508,-1,True,2019_Jun_17_1424,Yes-No Task,2,MIPA23,
Yes-No Task,58,0,58,0,10.7,-1,Miss,0.566543599998,True,-1,stimulus_MIPA23_Yes-No Task_2019_Jun_17_1424_509,-1,True,2019_Jun_17_1424,Yes-No Task,2,MIPA23,
Yes-No Task,59,0,59,0,4.5,-1,Hit,0.56669409998,True,-1,stimulus_MIPA23_Yes-No Task_2019_Jun_17_1424_510,-1,True,2019_Jun_17_1424,Yes-No Task,2,MIPA23,
Yes-No Task,60,0,60,0,2.9,-1,False Alarm,0.702748199983,False,-1,stimulus_MIPA23_Yes-No Task_2019_Jun_17_1424_511,-1,True,2019_Jun_17_1424,Yes-No Task,2,MIPA23,
Yes-No Task,61,0,61,0,10.7,-1,Correct Rejection,0.599953100027,False,-1,stimulus_MIPA23_Yes-No Task_2019_Jun_17_1424_512,-1,True,2019_Jun_17_1424,Yes-No Task,2,MIPA23,
Yes-No Task,62,0,62,0,5.7,-1,Hit,0.700760500011,True,-1,stimulus_MIPA23_Yes-No Task_2019_Jun_17_1424_513,-1,True,2019_Jun_17_1424,Yes-No Task,2,MIPA23,
Yes-No Task,63,0,63,0,7.6,-1,Hit,0.567109700001,True,-1,stimulus_MIPA23_Yes-No Task_2019_Jun_17_1424_514,-1,True,2019_Jun_17_1424,Yes-No Task,2,MIPA23,
Yes-No Task,64,0,64,0,10.7,-1,False Alarm,0.600754999992,False,-1,stimulus_MIPA23_Yes-No Task_2019_Jun_17_1424_515,-1,True,2019_Jun_17_1424,Yes-No Task,2,MIPA23,
Yes-No Task,65,0,65,0,4.5,-1,Correct Rejection,0.50057969999,False,-1,stimulus_MIPA23_Yes-No Task_2019_Jun_17_1424_516,-1,True,2019_Jun_17_1424,Yes-No Task,2,MIPA23,
Yes-No Task,66,0,66,0,10.7,-1,Correct Rejection,0.700773599994,False,-1,stimulus_MIPA23_Yes-No Task_2019_Jun_17_1424_517,-1,True,2019_Jun_17_1424,Yes-No Task,2,MIPA23,
Yes-No Task,67,0,67,0,4.5,-1,Correct Rejection,0.700725000002,False,-1,stimulus_MIPA23_Yes-No Task_2019_Jun_17_1424_518,-1,True,2019_Jun_17_1424,Yes-No Task,2,MIPA23,
Yes-No Task,68,0,68,0,2.9,-1,Miss,0.600787800009,True,-1,stimulus_MIPA23_Yes-No Task_2019_Jun_17_1424_519,-1,True,2019_Jun_17_1424,Yes-No Task,2,MIPA23,
Yes-No Task,69,0,69,0,2.9,-1,Hit,0.6006222,True,-1,stimulus_MIPA23_Yes-No Task_2019_Jun_17_1424_520,-1,True,2019_Jun_17_1424,Yes-No Task,2,MIPA23,
Yes-No Task,70,0,70,0,4.5,-1,False Alarm,0.53317499999,False,-1,stimulus_MIPA23_Yes-No Task_2019_Jun_17_1424_521,-1,True,2019_Jun_17_1424,Yes-No Task,2,MIPA23,
Yes-No Task,71,0,71,0,5.7,-1,Hit,0.568192200008,True,-1,stimulus_MIPA23_Yes-No Task_2019_Jun_17_1424_522,-1,True,2019_Jun_17_1424,Yes-No Task,2,MIPA23,
Yes-No Task,72,0,72,0,6.7,-1,Hit,0.56698969999,True,-1,stimulus_MIPA23_Yes-No Task_2019_Jun_17_1424_523,-1,True,2019_Jun_17_1424,Yes-No Task,2,MIPA23,
Yes-No Task,73,0,73,0,8.6,-1,Hit,0.533040199982,True,-1,stimulus_MIPA23_Yes-No Task_2019_Jun_17_1424_524,-1,True,2019_Jun_17_1424,Yes-No Task,2,MIPA23,
Yes-No Task,74,0,74,0,5.7,-1,Correct Rejection,0.534058699996,False,-1,stimulus_MIPA23_Yes-No Task_2019_Jun_17_1424_525,-1,True,2019_Jun_17_1424,Yes-No Task,2,MIPA23,
Yes-No Task,0,0,0,0,4.5,-1,Correct Rejection,0.567478200013,False,-1,stimulus_MIPA23_Yes-No Task_2019_Jun_17_1424_526,-1,True,2019_Jun_17_1424,Yes-No Task,2,MIPA23,
Yes-No Task,1,0,1,0,8.6,-1,Hit,0.534159500006,True,-1,stimulus_MIPA23_Yes-No Task_2019_Jun_17_1424_527,-1,True,2019_Jun_17_1424,Yes-No Task,2,MIPA23,
Yes-No Task,2,0,2,0,10.7,-1,Correct Rejection,0.534405699989,False,-1,stimulus_MIPA23_Yes-No Task_2019_Jun_17_1424_528,-1,True,2019_Jun_17_1424,Yes-No Task,2,MIPA23,
Yes-No Task,3,0,3,0,6.7,-1,Correct Rejection,0.533999600011,False,-1,stimulus_MIPA23_Yes-No Task_2019_Jun_17_1424_529,-1,True,2019_Jun_17_1424,Yes-No Task,2,MIPA23,
Yes-No Task,4,0,4,0,7.6,-1,Correct Rejection,0.734523699997,False,-1,stimulus_MIPA23_Yes-No Task_2019_Jun_17_1424_530,-1,True,2019_Jun_17_1424,Yes-No Task,2,MIPA23,
Yes-No Task,5,0,5,0,5.7,-1,Hit,0.433895900002,True,-1,stimulus_MIPA23_Yes-No Task_2019_Jun_17_1424_531,-1,True,2019_Jun_17_1424,Yes-No Task,2,MIPA23,
Yes-No Task,6,0,6,0,4.5,-1,Hit,0.434099100006,True,-1,stimulus_MIPA23_Yes-No Task_2019_Jun_17_1424_532,-1,True,2019_Jun_17_1424,Yes-No Task,2,MIPA23,
Yes-No Task,7,0,7,0,9.6,-1,Correct Rejection,0.435330900014,False,-1,stimulus_MIPA23_Yes-No Task_2019_Jun_17_1424_533,-1,True,2019_Jun_17_1424,Yes-No Task,2,MIPA23,
Yes-No Task,8,0,8,0,9.6,-1,Hit,0.433567399974,True,-1,stimulus_MIPA23_Yes-No Task_2019_Jun_17_1424_534,-1,True,2019_Jun_17_1424,Yes-No Task,2,MIPA23,
Yes-No Task,9,0,9,0,5.7,-1,Hit,0.433780500025,True,-1,stimulus_MIPA23_Yes-No Task_2019_Jun_17_1424_535,-1,True,2019_Jun_17_1424,Yes-No Task,2,MIPA23,
Yes-No Task,10,0,10,0,8.6,-1,Correct Rejection,0.633930800017,False,-1,stimulus_MIPA23_Yes-No Task_2019_Jun_17_1424_536,-1,True,2019_Jun_17_1424,Yes-No Task,2,MIPA23,
Yes-No Task,11,0,11,0,8.6,-1,Hit,0.634225000016,True,-1,stimulus_MIPA23_Yes-No Task_2019_Jun_17_1424_537,-1,True,2019_Jun_17_1424,Yes-No Task,2,MIPA23,
Yes-No Task,12,0,12,0,2.9,-1,Correct Rejection,0.467391999991,False,-1,stimulus_MIPA23_Yes-No Task_2019_Jun_17_1424_538,-1,True,2019_Jun_17_1424,Yes-No Task,2,MIPA23,
Yes-No Task,13,0,13,0,8.6,-1,Correct Rejection,0.534072200011,False,-1,stimulus_MIPA23_Yes-No Task_2019_Jun_17_1424_539,-1,True,2019_Jun_17_1424,Yes-No Task,2,MIPA23,
Yes-No Task,14,0,14,0,8.6,-1,Miss,0.567420600011,True,-1,stimulus_MIPA23_Yes-No Task_2019_Jun_17_1424_540,-1,True,2019_Jun_17_1424,Yes-No Task,2,MIPA23,
Yes-No Task,15,0,15,0,6.7,-1,Correct Rejection,0.633218300005,False,-1,stimulus_MIPA23_Yes-No Task_2019_Jun_17_1424_541,-1,True,2019_Jun_17_1424,Yes-No Task,2,MIPA23,
Yes-No Task,16,0,16,0,6.7,-1,Hit,0.500777500012,True,-1,stimulus_MIPA23_Yes-No Task_2019_Jun_17_1424_542,-1,True,2019_Jun_17_1424,Yes-No Task,2,MIPA23,
Yes-No Task,17,0,17,0,2.9,-1,False Alarm,0.501598999981,False,-1,stimulus_MIPA23_Yes-No Task_2019_Jun_17_1424_543,-1,True,2019_Jun_17_1424,Yes-No Task,2,MIPA23,
Yes-No Task,18,0,18,0,10.7,-1,Hit,0.43404339999,True,-1,stimulus_MIPA23_Yes-No Task_2019_Jun_17_1424_544,-1,True,2019_Jun_17_1424,Yes-No Task,2,MIPA23,
Yes-No Task,19,0,19,0,2.9,-1,Miss,0.567498700024,True,-1,stimulus_MIPA23_Yes-No Task_2019_Jun_17_1424_545,-1,True,2019_Jun_17_1424,Yes-No Task,2,MIPA23,
Yes-No Task,20,0,20,0,9.6,-1,Correct Rejection,0.601063200011,False,-1,stimulus_MIPA23_Yes-No Task_2019_Jun_17_1424_546,-1,True,2019_Jun_17_1424,Yes-No Task,2,MIPA23,
Yes-No Task,21,0,21,0,7.6,-1,False Alarm,0.533886999998,False,-1,stimulus_MIPA23_Yes-No Task_2019_Jun_17_1424_547,-1,True,2019_Jun_17_1424,Yes-No Task,2,MIPA23,
Yes-No Task,22,0,22,0,2.9,-1,Miss,0.634032900009,True,-1,stimulus_MIPA23_Yes-No Task_2019_Jun_17_1424_548,-1,True,2019_Jun_17_1424,Yes-No Task,2,MIPA23,
Yes-No Task,23,0,23,0,7.6,-1,Correct Rejection,0.601428800001,False,-1,stimulus_MIPA23_Yes-No Task_2019_Jun_17_1424_549,-1,True,2019_Jun_17_1424,Yes-No Task,2,MIPA23,
Yes-No Task,24,0,24,0,5.7,-1,Miss,0.567269299994,True,-1,stimulus_MIPA23_Yes-No Task_2019_Jun_17_1424_550,-1,True,2019_Jun_17_1424,Yes-No Task,2,MIPA23,
Yes-No Task,25,0,25,0,7.6,-1,Correct Rejection,0.599830599996,False,-1,stimulus_MIPA23_Yes-No Task_2019_Jun_17_1424_551,-1,True,2019_Jun_17_1424,Yes-No Task,2,MIPA23,
Yes-No Task,26,0,26,0,2.9,-1,Miss,0.567167900008,True,-1,stimulus_MIPA23_Yes-No Task_2019_Jun_17_1424_552,-1,True,2019_Jun_17_1424,Yes-No Task,2,MIPA23,
Yes-No Task,27,0,27,0,6.7,-1,Correct Rejection,0.567202400009,False,-1,stimulus_MIPA23_Yes-No Task_2019_Jun_17_1424_553,-1,True,2019_Jun_17_1424,Yes-No Task,2,MIPA23,
Yes-No Task,28,0,28,0,7.6,-1,Hit,0.601850200008,True,-1,stimulus_MIPA23_Yes-No Task_2019_Jun_17_1424_554,-1,True,2019_Jun_17_1424,Yes-No Task,2,MIPA23,
Yes-No Task,29,0,29,0,9.6,-1,Hit,0.599663499976,True,-1,stimulus_MIPA23_Yes-No Task_2019_Jun_17_1424_555,-1,True,2019_Jun_17_1424,Yes-No Task,2,MIPA23,
Yes-No Task,30,0,30,0,7.6,-1,Hit,0.700903499994,True,-1,stimulus_MIPA23_Yes-No Task_2019_Jun_17_1424_556,-1,True,2019_Jun_17_1424,Yes-No Task,2,MIPA23,
Yes-No Task,31,0,31,0,2.9,-1,Miss,0.633926199982,True,-1,stimulus_MIPA23_Yes-No Task_2019_Jun_17_1424_557,-1,True,2019_Jun_17_1424,Yes-No Task,2,MIPA23,
Yes-No Task,32,0,32,0,7.6,-1,Correct Rejection,0.667344200017,False,-1,stimulus_MIPA23_Yes-No Task_2019_Jun_17_1424_558,-1,True,2019_Jun_17_1424,Yes-No Task,2,MIPA23,
Yes-No Task,33,0,33,0,4.5,-1,Hit,0.500749999977,True,-1,stimulus_MIPA23_Yes-No Task_2019_Jun_17_1424_559,-1,True,2019_Jun_17_1424,Yes-No Task,2,MIPA23,
Yes-No Task,34,0,34,0,7.6,-1,False Alarm,0.534016199992,False,-1,stimulus_MIPA23_Yes-No Task_2019_Jun_17_1424_560,-1,True,2019_Jun_17_1424,Yes-No Task,2,MIPA23,
Yes-No Task,35,0,35,0,5.7,-1,False Alarm,0.4671217,False,-1,stimulus_MIPA23_Yes-No Task_2019_Jun_17_1424_561,-1,True,2019_Jun_17_1424,Yes-No Task,2,MIPA23,
Yes-No Task,36,0,36,0,9.6,-1,Hit,0.501158900006,True,-1,stimulus_MIPA23_Yes-No Task_2019_Jun_17_1424_562,-1,True,2019_Jun_17_1424,Yes-No Task,2,MIPA23,
Yes-No Task,37,0,37,0,9.6,-1,Hit,0.533412699995,True,-1,stimulus_MIPA23_Yes-No Task_2019_Jun_17_1424_563,-1,True,2019_Jun_17_1424,Yes-No Task,2,MIPA23,
Yes-No Task,38,0,38,0,10.7,-1,Correct Rejection,0.567044299998,False,-1,stimulus_MIPA23_Yes-No Task_2019_Jun_17_1424_564,-1,True,2019_Jun_17_1424,Yes-No Task,2,MIPA23,
Yes-No Task,39,0,39,0,8.6,-1,False Alarm,0.566714099987,False,-1,stimulus_MIPA23_Yes-No Task_2019_Jun_17_1424_565,-1,True,2019_Jun_17_1424,Yes-No Task,2,MIPA23,
Yes-No Task,40,0,40,0,8.6,-1,False Alarm,0.635165300017,False,-1,stimulus_MIPA23_Yes-No Task_2019_Jun_17_1424_566,-1,True,2019_Jun_17_1424,Yes-No Task,2,MIPA23,
Yes-No Task,41,0,41,0,5.7,-1,Hit,0.533350600017,True,-1,stimulus_MIPA23_Yes-No Task_2019_Jun_17_1424_567,-1,True,2019_Jun_17_1424,Yes-No Task,2,MIPA23,
Yes-No Task,42,0,42,0,4.5,-1,Miss,0.667456399999,True,-1,stimulus_MIPA23_Yes-No Task_2019_Jun_17_1424_568,-1,True,2019_Jun_17_1424,Yes-No Task,2,MIPA23,
Yes-No Task,43,0,43,0,6.7,-1,Correct Rejection,0.633618499996,False,-1,stimulus_MIPA23_Yes-No Task_2019_Jun_17_1424_569,-1,True,2019_Jun_17_1424,Yes-No Task,2,MIPA23,
Yes-No Task,44,0,44,0,5.7,-1,Miss,0.600792399986,True,-1,stimulus_MIPA23_Yes-No Task_2019_Jun_17_1424_570,-1,True,2019_Jun_17_1424,Yes-No Task,2,MIPA23,
Yes-No Task,45,0,45,0,5.7,-1,Hit,0.500871199998,True,-1,stimulus_MIPA23_Yes-No Task_2019_Jun_17_1424_571,-1,True,2019_Jun_17_1424,Yes-No Task,2,MIPA23,
Yes-No Task,46,0,46,0,5.7,-1,Correct Rejection,0.566914099996,False,-1,stimulus_MIPA23_Yes-No Task_2019_Jun_17_1424_572,-1,True,2019_Jun_17_1424,Yes-No Task,2,MIPA23,
Yes-No Task,47,0,47,0,4.5,-1,Hit,0.600242099987,True,-1,stimulus_MIPA23_Yes-No Task_2019_Jun_17_1424_573,-1,True,2019_Jun_17_1424,Yes-No Task,2,MIPA23,
Yes-No Task,48,0,48,0,2.9,-1,Hit,0.600636799994,True,-1,stimulus_MIPA23_Yes-No Task_2019_Jun_17_1424_574,-1,True,2019_Jun_17_1424,Yes-No Task,2,MIPA23,
Yes-No Task,49,0,49,0,7.6,-1,Correct Rejection,0.567339199974,False,-1,stimulus_MIPA23_Yes-No Task_2019_Jun_17_1424_575,-1,True,2019_Jun_17_1424,Yes-No Task,2,MIPA23,
Yes-No Task,50,0,50,0,9.6,-1,False Alarm,0.6022964,False,-1,stimulus_MIPA23_Yes-No Task_2019_Jun_17_1424_576,-1,True,2019_Jun_17_1424,Yes-No Task,2,MIPA23,
Yes-No Task,51,0,51,0,7.6,-1,Hit,0.534021400003,True,-1,stimulus_MIPA23_Yes-No Task_2019_Jun_17_1424_577,-1,True,2019_Jun_17_1424,Yes-No Task,2,MIPA23,
Yes-No Task,52,0,52,0,7.6,-1,Hit,0.468594799982,True,-1,stimulus_MIPA23_Yes-No Task_2019_Jun_17_1424_578,-1,True,2019_Jun_17_1424,Yes-No Task,2,MIPA23,
Yes-No Task,53,0,53,0,8.6,-1,Hit,0.466337799997,True,-1,stimulus_MIPA23_Yes-No Task_2019_Jun_17_1424_579,-1,True,2019_Jun_17_1424,Yes-No Task,2,MIPA23,
Yes-No Task,54,0,54,0,7.6,-1,Correct Rejection,0.567194500007,False,-1,stimulus_MIPA23_Yes-No Task_2019_Jun_17_1424_580,-1,True,2019_Jun_17_1424,Yes-No Task,2,MIPA23,
Yes-No Task,55,0,55,0,8.6,-1,False Alarm,0.5341549,False,-1,stimulus_MIPA23_Yes-No Task_2019_Jun_17_1424_581,-1,True,2019_Jun_17_1424,Yes-No Task,2,MIPA23,
Yes-No Task,56,0,56,0,8.6,-1,Hit,0.499488100002,True,-1,stimulus_MIPA23_Yes-No Task_2019_Jun_17_1424_582,-1,True,2019_Jun_17_1424,Yes-No Task,2,MIPA23,
Yes-No Task,57,0,57,0,9.6,-1,Hit,0.634153699997,True,-1,stimulus_MIPA23_Yes-No Task_2019_Jun_17_1424_583,-1,True,2019_Jun_17_1424,Yes-No Task,2,MIPA23,
Yes-No Task,58,0,58,0,9.6,-1,Hit,0.434089799994,True,-1,stimulus_MIPA23_Yes-No Task_2019_Jun_17_1424_584,-1,True,2019_Jun_17_1424,Yes-No Task,2,MIPA23,
Yes-No Task,59,0,59,0,9.6,-1,Hit,0.53459570001,True,-1,stimulus_MIPA23_Yes-No Task_2019_Jun_17_1424_585,-1,True,2019_Jun_17_1424,Yes-No Task,2,MIPA23,
Yes-No Task,60,0,60,0,8.6,-1,Hit,0.566360900004,True,-1,stimulus_MIPA23_Yes-No Task_2019_Jun_17_1424_586,-1,True,2019_Jun_17_1424,Yes-No Task,2,MIPA23,
Yes-No Task,61,0,61,0,2.9,-1,Correct Rejection,0.567042299983,False,-1,stimulus_MIPA23_Yes-No Task_2019_Jun_17_1424_587,-1,True,2019_Jun_17_1424,Yes-No Task,2,MIPA23,
Yes-No Task,62,0,62,0,5.7,-1,Hit,0.567693399993,True,-1,stimulus_MIPA23_Yes-No Task_2019_Jun_17_1424_588,-1,True,2019_Jun_17_1424,Yes-No Task,2,MIPA23,
Yes-No Task,63,0,63,0,4.5,-1,Miss,0.567890300008,True,-1,stimulus_MIPA23_Yes-No Task_2019_Jun_17_1424_589,-1,True,2019_Jun_17_1424,Yes-No Task,2,MIPA23,
Yes-No Task,64,0,64,0,10.7,-1,Hit,0.435135300009,True,-1,stimulus_MIPA23_Yes-No Task_2019_Jun_17_1424_590,-1,True,2019_Jun_17_1424,Yes-No Task,2,MIPA23,
Yes-No Task,65,0,65,0,7.6,-1,Correct Rejection,0.701988899993,False,-1,stimulus_MIPA23_Yes-No Task_2019_Jun_17_1424_591,-1,True,2019_Jun_17_1424,Yes-No Task,2,MIPA23,
Yes-No Task,66,0,66,0,5.7,-1,Correct Rejection,0.600433899992,False,-1,stimulus_MIPA23_Yes-No Task_2019_Jun_17_1424_592,-1,True,2019_Jun_17_1424,Yes-No Task,2,MIPA23,
Yes-No Task,67,0,67,0,10.7,-1,Hit,0.567760200007,True,-1,stimulus_MIPA23_Yes-No Task_2019_Jun_17_1424_593,-1,True,2019_Jun_17_1424,Yes-No Task,2,MIPA23,
Yes-No Task,68,0,68,0,10.7,-1,Correct Rejection,0.834119700012,False,-1,stimulus_MIPA23_Yes-No Task_2019_Jun_17_1424_594,-1,True,2019_Jun_17_1424,Yes-No Task,2,MIPA23,
Yes-No Task,69,0,69,0,4.5,-1,Correct Rejection,0.634874500014,False,-1,stimulus_MIPA23_Yes-No Task_2019_Jun_17_1424_595,-1,True,2019_Jun_17_1424,Yes-No Task,2,MIPA23,
Yes-No Task,70,0,70,0,9.6,-1,False Alarm,0.532831299992,False,-1,stimulus_MIPA23_Yes-No Task_2019_Jun_17_1424_596,-1,True,2019_Jun_17_1424,Yes-No Task,2,MIPA23,
Yes-No Task,71,0,71,0,4.5,-1,Hit,0.767413399997,True,-1,stimulus_MIPA23_Yes-No Task_2019_Jun_17_1424_597,-1,True,2019_Jun_17_1424,Yes-No Task,2,MIPA23,
Yes-No Task,72,0,72,0,6.7,-1,Correct Rejection,0.634360399999,False,-1,stimulus_MIPA23_Yes-No Task_2019_Jun_17_1424_598,-1,True,2019_Jun_17_1424,Yes-No Task,2,MIPA23,
Yes-No Task,73,0,73,0,9.6,-1,Hit,0.466472600005,True,-1,stimulus_MIPA23_Yes-No Task_2019_Jun_17_1424_599,-1,True,2019_Jun_17_1424,Yes-No Task,2,MIPA23,
Yes-No Task,74,0,74,0,10.7,-1,False Alarm,0.532313199976,False,-1,stimulus_MIPA23_Yes-No Task_2019_Jun_17_1424_600,-1,True,2019_Jun_17_1424,Yes-No Task,2,MIPA23,
