Task,trials.thisRepN,trials.thisTrialN,trials.thisN,trials.thisIndex,signal_intensity,constant Value,response,time_response,signal_on_stimuluspos1,signal_on_stimuluspos2,stimulus_name_pos1,stimulus_name_pos2,random_intensity,date,expName,session,participant,
Yes-No Task,0,0,0,0,9,-1,Hit,0.533840800024,True,-1,stimulus_MIPA23_Yes-No Task_2019_Jun_17_1408_1,-1,False,2019_Jun_17_1408,Yes-No Task,1,MIPA23,
Yes-No Task,1,0,1,0,9,-1,Correct Rejection,0.500825800002,False,-1,stimulus_MIPA23_Yes-No Task_2019_Jun_17_1408_2,-1,False,2019_Jun_17_1408,Yes-No Task,1,MIPA23,
Yes-No Task,2,0,2,0,9,-1,Hit,0.46734599999,True,-1,stimulus_MIPA23_Yes-No Task_2019_Jun_17_1408_3,-1,False,2019_Jun_17_1408,Yes-No Task,1,MIPA23,
Yes-No Task,3,0,3,0,9,-1,False Alarm,0.7011184,False,-1,stimulus_MIPA23_Yes-No Task_2019_Jun_17_1408_4,-1,False,2019_Jun_17_1408,Yes-No Task,1,MIPA23,
Yes-No Task,4,0,4,0,9,-1,False Alarm,0.601274899993,False,-1,stimulus_MIPA23_Yes-No Task_2019_Jun_17_1408_5,-1,False,2019_Jun_17_1408,Yes-No Task,1,MIPA23,
Yes-No Task,5,0,5,0,9,-1,Miss,0.734097999986,True,-1,stimulus_MIPA23_Yes-No Task_2019_Jun_17_1408_6,-1,False,2019_Jun_17_1408,Yes-No Task,1,MIPA23,
Yes-No Task,6,0,6,0,9,-1,False Alarm,0.5341243,False,-1,stimulus_MIPA23_Yes-No Task_2019_Jun_17_1408_7,-1,False,2019_Jun_17_1408,Yes-No Task,1,MIPA23,
Yes-No Task,7,0,7,0,9,-1,Hit,0.532944300008,True,-1,stimulus_MIPA23_Yes-No Task_2019_Jun_17_1408_8,-1,False,2019_Jun_17_1408,Yes-No Task,1,MIPA23,
Yes-No Task,8,0,8,0,9,-1,Hit,0.499753300013,True,-1,stimulus_MIPA23_Yes-No Task_2019_Jun_17_1408_9,-1,False,2019_Jun_17_1408,Yes-No Task,1,MIPA23,
Yes-No Task,9,0,9,0,9,-1,False Alarm,0.467791200004,False,-1,stimulus_MIPA23_Yes-No Task_2019_Jun_17_1408_10,-1,False,2019_Jun_17_1408,Yes-No Task,1,MIPA23,
Yes-No Task,10,0,10,0,9,-1,False Alarm,0.567448799993,False,-1,stimulus_MIPA23_Yes-No Task_2019_Jun_17_1408_11,-1,False,2019_Jun_17_1408,Yes-No Task,1,MIPA23,
Yes-No Task,11,0,11,0,9,-1,Correct Rejection,0.667911900004,False,-1,stimulus_MIPA23_Yes-No Task_2019_Jun_17_1408_12,-1,False,2019_Jun_17_1408,Yes-No Task,1,MIPA23,
Yes-No Task,12,0,12,0,9,-1,Hit,0.599912999984,True,-1,stimulus_MIPA23_Yes-No Task_2019_Jun_17_1408_13,-1,False,2019_Jun_17_1408,Yes-No Task,1,MIPA23,
Yes-No Task,13,0,13,0,9,-1,Hit,0.633949799987,True,-1,stimulus_MIPA23_Yes-No Task_2019_Jun_17_1408_14,-1,False,2019_Jun_17_1408,Yes-No Task,1,MIPA23,
Yes-No Task,14,0,14,0,9,-1,Hit,0.567263400008,True,-1,stimulus_MIPA23_Yes-No Task_2019_Jun_17_1408_15,-1,False,2019_Jun_17_1408,Yes-No Task,1,MIPA23,
Yes-No Task,15,0,15,0,9,-1,Correct Rejection,0.534083400009,False,-1,stimulus_MIPA23_Yes-No Task_2019_Jun_17_1408_16,-1,False,2019_Jun_17_1408,Yes-No Task,1,MIPA23,
Yes-No Task,16,0,16,0,9,-1,Hit,0.664854000002,True,-1,stimulus_MIPA23_Yes-No Task_2019_Jun_17_1408_17,-1,False,2019_Jun_17_1408,Yes-No Task,1,MIPA23,
Yes-No Task,17,0,17,0,9,-1,Correct Rejection,0.566748299985,False,-1,stimulus_MIPA23_Yes-No Task_2019_Jun_17_1408_18,-1,False,2019_Jun_17_1408,Yes-No Task,1,MIPA23,
Yes-No Task,18,0,18,0,9,-1,False Alarm,0.605283400015,False,-1,stimulus_MIPA23_Yes-No Task_2019_Jun_17_1408_19,-1,False,2019_Jun_17_1408,Yes-No Task,1,MIPA23,
Yes-No Task,19,0,19,0,9,-1,Hit,0.566808599979,True,-1,stimulus_MIPA23_Yes-No Task_2019_Jun_17_1408_20,-1,False,2019_Jun_17_1408,Yes-No Task,1,MIPA23,
Yes-No Task,20,0,20,0,9,-1,False Alarm,0.567960799992,False,-1,stimulus_MIPA23_Yes-No Task_2019_Jun_17_1408_21,-1,False,2019_Jun_17_1408,Yes-No Task,1,MIPA23,
Yes-No Task,21,0,21,0,9,-1,False Alarm,0.568299200007,False,-1,stimulus_MIPA23_Yes-No Task_2019_Jun_17_1408_22,-1,False,2019_Jun_17_1408,Yes-No Task,1,MIPA23,
Yes-No Task,22,0,22,0,9,-1,Correct Rejection,0.600500999979,False,-1,stimulus_MIPA23_Yes-No Task_2019_Jun_17_1408_23,-1,False,2019_Jun_17_1408,Yes-No Task,1,MIPA23,
Yes-No Task,23,0,23,0,9,-1,Hit,0.632996900007,True,-1,stimulus_MIPA23_Yes-No Task_2019_Jun_17_1408_24,-1,False,2019_Jun_17_1408,Yes-No Task,1,MIPA23,
Yes-No Task,24,0,24,0,9,-1,Hit,0.53451540001,True,-1,stimulus_MIPA23_Yes-No Task_2019_Jun_17_1408_25,-1,False,2019_Jun_17_1408,Yes-No Task,1,MIPA23,
Yes-No Task,25,0,25,0,9,-1,Hit,0.601307500008,True,-1,stimulus_MIPA23_Yes-No Task_2019_Jun_17_1408_26,-1,False,2019_Jun_17_1408,Yes-No Task,1,MIPA23,
Yes-No Task,26,0,26,0,9,-1,Hit,0.533787099994,True,-1,stimulus_MIPA23_Yes-No Task_2019_Jun_17_1408_27,-1,False,2019_Jun_17_1408,Yes-No Task,1,MIPA23,
Yes-No Task,27,0,27,0,9,-1,Correct Rejection,0.501242800005,False,-1,stimulus_MIPA23_Yes-No Task_2019_Jun_17_1408_28,-1,False,2019_Jun_17_1408,Yes-No Task,1,MIPA23,
Yes-No Task,28,0,28,0,9,-1,Correct Rejection,0.499482100015,False,-1,stimulus_MIPA23_Yes-No Task_2019_Jun_17_1408_29,-1,False,2019_Jun_17_1408,Yes-No Task,1,MIPA23,
Yes-No Task,29,0,29,0,9,-1,Correct Rejection,0.667029499979,False,-1,stimulus_MIPA23_Yes-No Task_2019_Jun_17_1408_30,-1,False,2019_Jun_17_1408,Yes-No Task,1,MIPA23,
Yes-No Task,0,0,0,0,6,-1,False Alarm,0.833954300004,False,-1,stimulus_MIPA23_Yes-No Task_2019_Jun_17_1408_31,-1,False,2019_Jun_17_1408,Yes-No Task,1,MIPA23,
Yes-No Task,1,0,1,0,6,-1,False Alarm,0.566961100005,False,-1,stimulus_MIPA23_Yes-No Task_2019_Jun_17_1408_32,-1,False,2019_Jun_17_1408,Yes-No Task,1,MIPA23,
Yes-No Task,2,0,2,0,6,-1,Correct Rejection,0.667606100003,False,-1,stimulus_MIPA23_Yes-No Task_2019_Jun_17_1408_33,-1,False,2019_Jun_17_1408,Yes-No Task,1,MIPA23,
Yes-No Task,3,0,3,0,6,-1,Correct Rejection,0.565441499988,False,-1,stimulus_MIPA23_Yes-No Task_2019_Jun_17_1408_34,-1,False,2019_Jun_17_1408,Yes-No Task,1,MIPA23,
Yes-No Task,4,0,4,0,6,-1,Hit,0.567425099987,True,-1,stimulus_MIPA23_Yes-No Task_2019_Jun_17_1408_35,-1,False,2019_Jun_17_1408,Yes-No Task,1,MIPA23,
Yes-No Task,5,0,5,0,6,-1,Hit,0.534126199986,True,-1,stimulus_MIPA23_Yes-No Task_2019_Jun_17_1408_36,-1,False,2019_Jun_17_1408,Yes-No Task,1,MIPA23,
Yes-No Task,6,0,6,0,6,-1,Correct Rejection,0.499541900004,False,-1,stimulus_MIPA23_Yes-No Task_2019_Jun_17_1408_37,-1,False,2019_Jun_17_1408,Yes-No Task,1,MIPA23,
Yes-No Task,7,0,7,0,6,-1,Miss,0.53505039998,True,-1,stimulus_MIPA23_Yes-No Task_2019_Jun_17_1408_38,-1,False,2019_Jun_17_1408,Yes-No Task,1,MIPA23,
Yes-No Task,8,0,8,0,6,-1,Correct Rejection,0.568270299991,False,-1,stimulus_MIPA23_Yes-No Task_2019_Jun_17_1408_39,-1,False,2019_Jun_17_1408,Yes-No Task,1,MIPA23,
Yes-No Task,9,0,9,0,6,-1,Hit,0.66699149998,True,-1,stimulus_MIPA23_Yes-No Task_2019_Jun_17_1408_40,-1,False,2019_Jun_17_1408,Yes-No Task,1,MIPA23,
Yes-No Task,10,0,10,0,6,-1,Correct Rejection,0.634199700027,False,-1,stimulus_MIPA23_Yes-No Task_2019_Jun_17_1408_41,-1,False,2019_Jun_17_1408,Yes-No Task,1,MIPA23,
Yes-No Task,11,0,11,0,6,-1,Correct Rejection,0.53569389999,False,-1,stimulus_MIPA23_Yes-No Task_2019_Jun_17_1408_42,-1,False,2019_Jun_17_1408,Yes-No Task,1,MIPA23,
Yes-No Task,12,0,12,0,6,-1,Correct Rejection,0.500877699989,False,-1,stimulus_MIPA23_Yes-No Task_2019_Jun_17_1408_43,-1,False,2019_Jun_17_1408,Yes-No Task,1,MIPA23,
Yes-No Task,13,0,13,0,6,-1,Correct Rejection,0.567678299994,False,-1,stimulus_MIPA23_Yes-No Task_2019_Jun_17_1408_44,-1,False,2019_Jun_17_1408,Yes-No Task,1,MIPA23,
Yes-No Task,14,0,14,0,6,-1,Correct Rejection,0.467576700001,False,-1,stimulus_MIPA23_Yes-No Task_2019_Jun_17_1408_45,-1,False,2019_Jun_17_1408,Yes-No Task,1,MIPA23,
Yes-No Task,15,0,15,0,6,-1,Miss,0.567228800006,True,-1,stimulus_MIPA23_Yes-No Task_2019_Jun_17_1408_46,-1,False,2019_Jun_17_1408,Yes-No Task,1,MIPA23,
Yes-No Task,16,0,16,0,6,-1,Correct Rejection,0.56675909998,False,-1,stimulus_MIPA23_Yes-No Task_2019_Jun_17_1408_47,-1,False,2019_Jun_17_1408,Yes-No Task,1,MIPA23,
Yes-No Task,17,0,17,0,6,-1,Miss,0.500588299998,True,-1,stimulus_MIPA23_Yes-No Task_2019_Jun_17_1408_48,-1,False,2019_Jun_17_1408,Yes-No Task,1,MIPA23,
Yes-No Task,18,0,18,0,6,-1,Correct Rejection,0.501414099999,False,-1,stimulus_MIPA23_Yes-No Task_2019_Jun_17_1408_49,-1,False,2019_Jun_17_1408,Yes-No Task,1,MIPA23,
Yes-No Task,19,0,19,0,6,-1,Miss,0.600602099992,True,-1,stimulus_MIPA23_Yes-No Task_2019_Jun_17_1408_50,-1,False,2019_Jun_17_1408,Yes-No Task,1,MIPA23,
Yes-No Task,20,0,20,0,6,-1,Miss,0.600528200011,True,-1,stimulus_MIPA23_Yes-No Task_2019_Jun_17_1408_51,-1,False,2019_Jun_17_1408,Yes-No Task,1,MIPA23,
Yes-No Task,21,0,21,0,6,-1,Hit,0.700965199998,True,-1,stimulus_MIPA23_Yes-No Task_2019_Jun_17_1408_52,-1,False,2019_Jun_17_1408,Yes-No Task,1,MIPA23,
Yes-No Task,22,0,22,0,6,-1,Correct Rejection,0.601371500001,False,-1,stimulus_MIPA23_Yes-No Task_2019_Jun_17_1408_53,-1,False,2019_Jun_17_1408,Yes-No Task,1,MIPA23,
Yes-No Task,23,0,23,0,6,-1,Correct Rejection,0.600297200028,False,-1,stimulus_MIPA23_Yes-No Task_2019_Jun_17_1408_54,-1,False,2019_Jun_17_1408,Yes-No Task,1,MIPA23,
Yes-No Task,24,0,24,0,6,-1,Hit,0.567358100001,True,-1,stimulus_MIPA23_Yes-No Task_2019_Jun_17_1408_55,-1,False,2019_Jun_17_1408,Yes-No Task,1,MIPA23,
Yes-No Task,25,0,25,0,6,-1,Hit,0.567124100024,True,-1,stimulus_MIPA23_Yes-No Task_2019_Jun_17_1408_56,-1,False,2019_Jun_17_1408,Yes-No Task,1,MIPA23,
Yes-No Task,26,0,26,0,6,-1,Miss,0.634027599997,True,-1,stimulus_MIPA23_Yes-No Task_2019_Jun_17_1408_57,-1,False,2019_Jun_17_1408,Yes-No Task,1,MIPA23,
Yes-No Task,27,0,27,0,6,-1,Hit,0.766788600013,True,-1,stimulus_MIPA23_Yes-No Task_2019_Jun_17_1408_58,-1,False,2019_Jun_17_1408,Yes-No Task,1,MIPA23,
Yes-No Task,28,0,28,0,6,-1,Hit,0.634487200005,True,-1,stimulus_MIPA23_Yes-No Task_2019_Jun_17_1408_59,-1,False,2019_Jun_17_1408,Yes-No Task,1,MIPA23,
Yes-No Task,29,0,29,0,6,-1,Correct Rejection,0.534115899995,False,-1,stimulus_MIPA23_Yes-No Task_2019_Jun_17_1408_60,-1,False,2019_Jun_17_1408,Yes-No Task,1,MIPA23,
Yes-No Task,0,0,0,0,12,-1,False Alarm,0.700723700022,False,-1,stimulus_MIPA23_Yes-No Task_2019_Jun_17_1408_61,-1,False,2019_Jun_17_1408,Yes-No Task,1,MIPA23,
Yes-No Task,1,0,1,0,12,-1,Hit,0.602581299987,True,-1,stimulus_MIPA23_Yes-No Task_2019_Jun_17_1408_62,-1,False,2019_Jun_17_1408,Yes-No Task,1,MIPA23,
Yes-No Task,2,0,2,0,12,-1,Correct Rejection,0.566610400012,False,-1,stimulus_MIPA23_Yes-No Task_2019_Jun_17_1408_63,-1,False,2019_Jun_17_1408,Yes-No Task,1,MIPA23,
Yes-No Task,3,0,3,0,12,-1,Hit,0.433993099985,True,-1,stimulus_MIPA23_Yes-No Task_2019_Jun_17_1408_64,-1,False,2019_Jun_17_1408,Yes-No Task,1,MIPA23,
Yes-No Task,4,0,4,0,12,-1,Hit,0.434235799999,True,-1,stimulus_MIPA23_Yes-No Task_2019_Jun_17_1408_65,-1,False,2019_Jun_17_1408,Yes-No Task,1,MIPA23,
Yes-No Task,5,0,5,0,12,-1,Hit,0.434037999978,True,-1,stimulus_MIPA23_Yes-No Task_2019_Jun_17_1408_66,-1,False,2019_Jun_17_1408,Yes-No Task,1,MIPA23,
Yes-No Task,6,0,6,0,12,-1,Hit,0.500477599999,True,-1,stimulus_MIPA23_Yes-No Task_2019_Jun_17_1408_67,-1,False,2019_Jun_17_1408,Yes-No Task,1,MIPA23,
Yes-No Task,7,0,7,0,12,-1,Hit,0.434051199991,True,-1,stimulus_MIPA23_Yes-No Task_2019_Jun_17_1408_68,-1,False,2019_Jun_17_1408,Yes-No Task,1,MIPA23,
Yes-No Task,8,0,8,0,12,-1,Correct Rejection,0.601470299996,False,-1,stimulus_MIPA23_Yes-No Task_2019_Jun_17_1408_69,-1,False,2019_Jun_17_1408,Yes-No Task,1,MIPA23,
Yes-No Task,9,0,9,0,12,-1,Correct Rejection,0.467432799982,False,-1,stimulus_MIPA23_Yes-No Task_2019_Jun_17_1408_70,-1,False,2019_Jun_17_1408,Yes-No Task,1,MIPA23,
Yes-No Task,10,0,10,0,12,-1,Hit,0.567208799999,True,-1,stimulus_MIPA23_Yes-No Task_2019_Jun_17_1408_71,-1,False,2019_Jun_17_1408,Yes-No Task,1,MIPA23,
Yes-No Task,11,0,11,0,12,-1,Hit,0.466906200018,True,-1,stimulus_MIPA23_Yes-No Task_2019_Jun_17_1408_72,-1,False,2019_Jun_17_1408,Yes-No Task,1,MIPA23,
Yes-No Task,12,0,12,0,12,-1,Correct Rejection,0.533540100005,False,-1,stimulus_MIPA23_Yes-No Task_2019_Jun_17_1408_73,-1,False,2019_Jun_17_1408,Yes-No Task,1,MIPA23,
Yes-No Task,13,0,13,0,12,-1,Hit,0.532863300003,True,-1,stimulus_MIPA23_Yes-No Task_2019_Jun_17_1408_74,-1,False,2019_Jun_17_1408,Yes-No Task,1,MIPA23,
Yes-No Task,14,0,14,0,12,-1,Hit,0.466780799994,True,-1,stimulus_MIPA23_Yes-No Task_2019_Jun_17_1408_75,-1,False,2019_Jun_17_1408,Yes-No Task,1,MIPA23,
Yes-No Task,15,0,15,0,12,-1,Hit,0.462576499995,True,-1,stimulus_MIPA23_Yes-No Task_2019_Jun_17_1408_76,-1,False,2019_Jun_17_1408,Yes-No Task,1,MIPA23,
Yes-No Task,16,0,16,0,12,-1,Correct Rejection,0.533957100008,False,-1,stimulus_MIPA23_Yes-No Task_2019_Jun_17_1408_77,-1,False,2019_Jun_17_1408,Yes-No Task,1,MIPA23,
Yes-No Task,17,0,17,0,12,-1,Hit,0.50067020001,True,-1,stimulus_MIPA23_Yes-No Task_2019_Jun_17_1408_78,-1,False,2019_Jun_17_1408,Yes-No Task,1,MIPA23,
Yes-No Task,18,0,18,0,12,-1,Hit,0.434074000019,True,-1,stimulus_MIPA23_Yes-No Task_2019_Jun_17_1408_79,-1,False,2019_Jun_17_1408,Yes-No Task,1,MIPA23,
Yes-No Task,19,0,19,0,12,-1,Hit,0.434236099973,True,-1,stimulus_MIPA23_Yes-No Task_2019_Jun_17_1408_80,-1,False,2019_Jun_17_1408,Yes-No Task,1,MIPA23,
Yes-No Task,20,0,20,0,12,-1,Hit,0.433092299994,True,-1,stimulus_MIPA23_Yes-No Task_2019_Jun_17_1408_81,-1,False,2019_Jun_17_1408,Yes-No Task,1,MIPA23,
Yes-No Task,21,0,21,0,12,-1,Hit,0.43325859998,True,-1,stimulus_MIPA23_Yes-No Task_2019_Jun_17_1408_82,-1,False,2019_Jun_17_1408,Yes-No Task,1,MIPA23,
Yes-No Task,22,0,22,0,12,-1,Correct Rejection,0.467060499999,False,-1,stimulus_MIPA23_Yes-No Task_2019_Jun_17_1408_83,-1,False,2019_Jun_17_1408,Yes-No Task,1,MIPA23,
Yes-No Task,23,0,23,0,12,-1,False Alarm,0.434967100009,False,-1,stimulus_MIPA23_Yes-No Task_2019_Jun_17_1408_84,-1,False,2019_Jun_17_1408,Yes-No Task,1,MIPA23,
Yes-No Task,24,0,24,0,12,-1,Correct Rejection,0.567061699985,False,-1,stimulus_MIPA23_Yes-No Task_2019_Jun_17_1408_85,-1,False,2019_Jun_17_1408,Yes-No Task,1,MIPA23,
Yes-No Task,25,0,25,0,12,-1,Correct Rejection,0.501450499985,False,-1,stimulus_MIPA23_Yes-No Task_2019_Jun_17_1408_86,-1,False,2019_Jun_17_1408,Yes-No Task,1,MIPA23,
Yes-No Task,26,0,26,0,12,-1,Hit,0.534044700005,True,-1,stimulus_MIPA23_Yes-No Task_2019_Jun_17_1408_87,-1,False,2019_Jun_17_1408,Yes-No Task,1,MIPA23,
Yes-No Task,27,0,27,0,12,-1,Hit,0.367015800002,True,-1,stimulus_MIPA23_Yes-No Task_2019_Jun_17_1408_88,-1,False,2019_Jun_17_1408,Yes-No Task,1,MIPA23,
Yes-No Task,28,0,28,0,12,-1,Correct Rejection,0.567183000006,False,-1,stimulus_MIPA23_Yes-No Task_2019_Jun_17_1408_89,-1,False,2019_Jun_17_1408,Yes-No Task,1,MIPA23,
Yes-No Task,29,0,29,0,12,-1,Correct Rejection,0.599929000018,False,-1,stimulus_MIPA23_Yes-No Task_2019_Jun_17_1408_90,-1,False,2019_Jun_17_1408,Yes-No Task,1,MIPA23,
Yes-No Task,0,0,0,0,3,-1,Hit,0.731169300008,True,-1,stimulus_MIPA23_Yes-No Task_2019_Jun_17_1408_91,-1,False,2019_Jun_17_1408,Yes-No Task,1,MIPA23,
Yes-No Task,1,0,1,0,3,-1,Miss,0.533651800011,True,-1,stimulus_MIPA23_Yes-No Task_2019_Jun_17_1408_92,-1,False,2019_Jun_17_1408,Yes-No Task,1,MIPA23,
Yes-No Task,2,0,2,0,3,-1,Correct Rejection,0.599045400013,False,-1,stimulus_MIPA23_Yes-No Task_2019_Jun_17_1408_93,-1,False,2019_Jun_17_1408,Yes-No Task,1,MIPA23,
Yes-No Task,3,0,3,0,3,-1,Correct Rejection,0.567321600014,False,-1,stimulus_MIPA23_Yes-No Task_2019_Jun_17_1408_94,-1,False,2019_Jun_17_1408,Yes-No Task,1,MIPA23,
Yes-No Task,4,0,4,0,3,-1,Hit,0.567034599982,True,-1,stimulus_MIPA23_Yes-No Task_2019_Jun_17_1408_95,-1,False,2019_Jun_17_1408,Yes-No Task,1,MIPA23,
Yes-No Task,5,0,5,0,3,-1,Correct Rejection,0.600345100014,False,-1,stimulus_MIPA23_Yes-No Task_2019_Jun_17_1408_96,-1,False,2019_Jun_17_1408,Yes-No Task,1,MIPA23,
Yes-No Task,6,0,6,0,3,-1,False Alarm,0.565390000003,False,-1,stimulus_MIPA23_Yes-No Task_2019_Jun_17_1408_97,-1,False,2019_Jun_17_1408,Yes-No Task,1,MIPA23,
Yes-No Task,7,0,7,0,3,-1,Correct Rejection,0.733281499997,False,-1,stimulus_MIPA23_Yes-No Task_2019_Jun_17_1408_98,-1,False,2019_Jun_17_1408,Yes-No Task,1,MIPA23,
Yes-No Task,8,0,8,0,3,-1,Miss,0.467252399976,True,-1,stimulus_MIPA23_Yes-No Task_2019_Jun_17_1408_99,-1,False,2019_Jun_17_1408,Yes-No Task,1,MIPA23,
Yes-No Task,9,0,9,0,3,-1,Miss,0.400740500016,True,-1,stimulus_MIPA23_Yes-No Task_2019_Jun_17_1408_100,-1,False,2019_Jun_17_1408,Yes-No Task,1,MIPA23,
Yes-No Task,10,0,10,0,3,-1,Hit,0.46680959998,True,-1,stimulus_MIPA23_Yes-No Task_2019_Jun_17_1408_101,-1,False,2019_Jun_17_1408,Yes-No Task,1,MIPA23,
Yes-No Task,11,0,11,0,3,-1,Miss,0.50055289999,True,-1,stimulus_MIPA23_Yes-No Task_2019_Jun_17_1408_102,-1,False,2019_Jun_17_1408,Yes-No Task,1,MIPA23,
Yes-No Task,12,0,12,0,3,-1,Correct Rejection,0.63412480001,False,-1,stimulus_MIPA23_Yes-No Task_2019_Jun_17_1408_103,-1,False,2019_Jun_17_1408,Yes-No Task,1,MIPA23,
Yes-No Task,13,0,13,0,3,-1,False Alarm,0.600486900017,False,-1,stimulus_MIPA23_Yes-No Task_2019_Jun_17_1408_104,-1,False,2019_Jun_17_1408,Yes-No Task,1,MIPA23,
Yes-No Task,14,0,14,0,3,-1,Miss,0.533617100009,True,-1,stimulus_MIPA23_Yes-No Task_2019_Jun_17_1408_105,-1,False,2019_Jun_17_1408,Yes-No Task,1,MIPA23,
Yes-No Task,15,0,15,0,3,-1,Correct Rejection,0.499592600012,False,-1,stimulus_MIPA23_Yes-No Task_2019_Jun_17_1408_106,-1,False,2019_Jun_17_1408,Yes-No Task,1,MIPA23,
Yes-No Task,16,0,16,0,3,-1,Correct Rejection,0.600714,False,-1,stimulus_MIPA23_Yes-No Task_2019_Jun_17_1408_107,-1,False,2019_Jun_17_1408,Yes-No Task,1,MIPA23,
Yes-No Task,17,0,17,0,3,-1,Miss,0.734359199996,True,-1,stimulus_MIPA23_Yes-No Task_2019_Jun_17_1408_108,-1,False,2019_Jun_17_1408,Yes-No Task,1,MIPA23,
Yes-No Task,18,0,18,0,3,-1,Miss,0.770730199991,True,-1,stimulus_MIPA23_Yes-No Task_2019_Jun_17_1408_109,-1,False,2019_Jun_17_1408,Yes-No Task,1,MIPA23,
Yes-No Task,19,0,19,0,3,-1,Hit,0.576267700002,True,-1,stimulus_MIPA23_Yes-No Task_2019_Jun_17_1408_110,-1,False,2019_Jun_17_1408,Yes-No Task,1,MIPA23,
Yes-No Task,20,0,20,0,3,-1,Miss,0.664952799998,True,-1,stimulus_MIPA23_Yes-No Task_2019_Jun_17_1408_111,-1,False,2019_Jun_17_1408,Yes-No Task,1,MIPA23,
Yes-No Task,21,0,21,0,3,-1,False Alarm,0.800703799992,False,-1,stimulus_MIPA23_Yes-No Task_2019_Jun_17_1408_112,-1,False,2019_Jun_17_1408,Yes-No Task,1,MIPA23,
Yes-No Task,22,0,22,0,3,-1,Correct Rejection,0.467180700012,False,-1,stimulus_MIPA23_Yes-No Task_2019_Jun_17_1408_113,-1,False,2019_Jun_17_1408,Yes-No Task,1,MIPA23,
Yes-No Task,23,0,23,0,3,-1,Miss,0.43419890001,True,-1,stimulus_MIPA23_Yes-No Task_2019_Jun_17_1408_114,-1,False,2019_Jun_17_1408,Yes-No Task,1,MIPA23,
Yes-No Task,24,0,24,0,3,-1,Correct Rejection,0.367286200024,False,-1,stimulus_MIPA23_Yes-No Task_2019_Jun_17_1408_115,-1,False,2019_Jun_17_1408,Yes-No Task,1,MIPA23,
Yes-No Task,25,0,25,0,3,-1,Correct Rejection,0.533368300006,False,-1,stimulus_MIPA23_Yes-No Task_2019_Jun_17_1408_116,-1,False,2019_Jun_17_1408,Yes-No Task,1,MIPA23,
Yes-No Task,26,0,26,0,3,-1,Correct Rejection,0.565988200018,False,-1,stimulus_MIPA23_Yes-No Task_2019_Jun_17_1408_117,-1,False,2019_Jun_17_1408,Yes-No Task,1,MIPA23,
Yes-No Task,27,0,27,0,3,-1,Hit,0.600605000014,True,-1,stimulus_MIPA23_Yes-No Task_2019_Jun_17_1408_118,-1,False,2019_Jun_17_1408,Yes-No Task,1,MIPA23,
Yes-No Task,28,0,28,0,3,-1,False Alarm,0.533743200009,False,-1,stimulus_MIPA23_Yes-No Task_2019_Jun_17_1408_119,-1,False,2019_Jun_17_1408,Yes-No Task,1,MIPA23,
Yes-No Task,29,0,29,0,3,-1,Correct Rejection,0.500659600017,False,-1,stimulus_MIPA23_Yes-No Task_2019_Jun_17_1408_120,-1,False,2019_Jun_17_1408,Yes-No Task,1,MIPA23,
