Task,trials.thisRepN,trials.thisTrialN,trials.thisN,trials.thisIndex,signal_intensity,constant Value,response,time_response,signal_on_stimuluspos1,signal_on_stimuluspos2,stimulus_name_pos1,stimulus_name_pos2,random_intensity,date,expName,session,participant,
2IFC,0,0,0,0,9.6,-1,correct answer,0.567323399999,False,True,stimulusMIPA23_2IFC_2019_Jun_17_1531_1,stimulusMIPA23_2IFC_2019_Jun_17_1531_2,True,2019_Jun_17_1531,2IFC,2,MIPA23,
2IFC,1,0,1,0,7.6,-1,correct answer,0.400638299994,False,True,stimulusMIPA23_2IFC_2019_Jun_17_1531_3,stimulusMIPA23_2IFC_2019_Jun_17_1531_4,True,2019_Jun_17_1531,2IFC,2,MIPA23,
2IFC,2,0,2,0,7.6,-1,correct answer,0.334233400004,True,False,stimulusMIPA23_2IFC_2019_Jun_17_1531_5,stimulusMIPA23_2IFC_2019_Jun_17_1531_6,True,2019_Jun_17_1531,2IFC,2,MIPA23,
2IFC,3,0,3,0,2.9,-1,correct answer,0.600862500025,False,True,stimulusMIPA23_2IFC_2019_Jun_17_1531_7,stimulusMIPA23_2IFC_2019_Jun_17_1531_8,True,2019_Jun_17_1531,2IFC,2,MIPA23,
2IFC,4,0,4,0,8.6,-1,correct answer,0.666808199952,True,False,stimulusMIPA23_2IFC_2019_Jun_17_1531_9,stimulusMIPA23_2IFC_2019_Jun_17_1531_10,True,2019_Jun_17_1531,2IFC,2,MIPA23,
2IFC,5,0,5,0,7.6,-1,correct answer,0.399949099985,False,True,stimulusMIPA23_2IFC_2019_Jun_17_1531_11,stimulusMIPA23_2IFC_2019_Jun_17_1531_12,True,2019_Jun_17_1531,2IFC,2,MIPA23,
2IFC,6,0,6,0,5.7,-1,wrong answer,0.534025800007,False,True,stimulusMIPA23_2IFC_2019_Jun_17_1531_13,stimulusMIPA23_2IFC_2019_Jun_17_1531_14,True,2019_Jun_17_1531,2IFC,2,MIPA23,
2IFC,7,0,7,0,2.9,-1,correct answer,0.567635099986,False,True,stimulusMIPA23_2IFC_2019_Jun_17_1531_15,stimulusMIPA23_2IFC_2019_Jun_17_1531_16,True,2019_Jun_17_1531,2IFC,2,MIPA23,
2IFC,8,0,8,0,5.7,-1,correct answer,0.534132400004,False,True,stimulusMIPA23_2IFC_2019_Jun_17_1531_17,stimulusMIPA23_2IFC_2019_Jun_17_1531_18,True,2019_Jun_17_1531,2IFC,2,MIPA23,
2IFC,9,0,9,0,2.9,-1,correct answer,0.434125899978,False,True,stimulusMIPA23_2IFC_2019_Jun_17_1531_19,stimulusMIPA23_2IFC_2019_Jun_17_1531_20,True,2019_Jun_17_1531,2IFC,2,MIPA23,
2IFC,10,0,10,0,6.7,-1,wrong answer,0.434259900008,True,False,stimulusMIPA23_2IFC_2019_Jun_17_1531_21,stimulusMIPA23_2IFC_2019_Jun_17_1531_22,True,2019_Jun_17_1531,2IFC,2,MIPA23,
2IFC,11,0,11,0,10.7,-1,correct answer,0.567540299962,False,True,stimulusMIPA23_2IFC_2019_Jun_17_1531_23,stimulusMIPA23_2IFC_2019_Jun_17_1531_24,True,2019_Jun_17_1531,2IFC,2,MIPA23,
2IFC,12,0,12,0,10.7,-1,correct answer,0.500799699978,False,True,stimulusMIPA23_2IFC_2019_Jun_17_1531_25,stimulusMIPA23_2IFC_2019_Jun_17_1531_26,True,2019_Jun_17_1531,2IFC,2,MIPA23,
2IFC,13,0,13,0,6.7,-1,correct answer,0.467279499979,True,False,stimulusMIPA23_2IFC_2019_Jun_17_1531_27,stimulusMIPA23_2IFC_2019_Jun_17_1531_28,True,2019_Jun_17_1531,2IFC,2,MIPA23,
2IFC,14,0,14,0,8.6,-1,correct answer,0.333369500004,True,False,stimulusMIPA23_2IFC_2019_Jun_17_1531_29,stimulusMIPA23_2IFC_2019_Jun_17_1531_30,True,2019_Jun_17_1531,2IFC,2,MIPA23,
2IFC,15,0,15,0,5.7,-1,wrong answer,0.432477900002,True,False,stimulusMIPA23_2IFC_2019_Jun_17_1531_31,stimulusMIPA23_2IFC_2019_Jun_17_1531_32,True,2019_Jun_17_1531,2IFC,2,MIPA23,
2IFC,16,0,16,0,7.6,-1,correct answer,0.401130400016,False,True,stimulusMIPA23_2IFC_2019_Jun_17_1531_33,stimulusMIPA23_2IFC_2019_Jun_17_1531_34,True,2019_Jun_17_1531,2IFC,2,MIPA23,
2IFC,17,0,17,0,5.7,-1,correct answer,0.299838599982,True,False,stimulusMIPA23_2IFC_2019_Jun_17_1531_35,stimulusMIPA23_2IFC_2019_Jun_17_1531_36,True,2019_Jun_17_1531,2IFC,2,MIPA23,
2IFC,18,0,18,0,10.7,-1,correct answer,0.267362000013,True,False,stimulusMIPA23_2IFC_2019_Jun_17_1531_37,stimulusMIPA23_2IFC_2019_Jun_17_1531_38,True,2019_Jun_17_1531,2IFC,2,MIPA23,
2IFC,19,0,19,0,7.6,-1,correct answer,0.333541899978,False,True,stimulusMIPA23_2IFC_2019_Jun_17_1531_39,stimulusMIPA23_2IFC_2019_Jun_17_1531_40,True,2019_Jun_17_1531,2IFC,2,MIPA23,
2IFC,20,0,20,0,6.7,-1,correct answer,0.33335879998,False,True,stimulusMIPA23_2IFC_2019_Jun_17_1531_41,stimulusMIPA23_2IFC_2019_Jun_17_1531_42,True,2019_Jun_17_1531,2IFC,2,MIPA23,
2IFC,21,0,21,0,2.9,-1,correct answer,0.566614200012,False,True,stimulusMIPA23_2IFC_2019_Jun_17_1531_43,stimulusMIPA23_2IFC_2019_Jun_17_1531_44,True,2019_Jun_17_1531,2IFC,2,MIPA23,
2IFC,22,0,22,0,9.6,-1,correct answer,0.432727799984,True,False,stimulusMIPA23_2IFC_2019_Jun_17_1531_45,stimulusMIPA23_2IFC_2019_Jun_17_1531_46,True,2019_Jun_17_1531,2IFC,2,MIPA23,
2IFC,23,0,23,0,7.6,-1,correct answer,0.467100000009,False,True,stimulusMIPA23_2IFC_2019_Jun_17_1531_47,stimulusMIPA23_2IFC_2019_Jun_17_1531_48,True,2019_Jun_17_1531,2IFC,2,MIPA23,
2IFC,24,0,24,0,7.6,-1,correct answer,0.468095300021,False,True,stimulusMIPA23_2IFC_2019_Jun_17_1531_49,stimulusMIPA23_2IFC_2019_Jun_17_1531_50,True,2019_Jun_17_1531,2IFC,2,MIPA23,
2IFC,25,0,25,0,10.7,-1,correct answer,0.434123300016,False,True,stimulusMIPA23_2IFC_2019_Jun_17_1531_51,stimulusMIPA23_2IFC_2019_Jun_17_1531_52,True,2019_Jun_17_1531,2IFC,2,MIPA23,
2IFC,26,0,26,0,8.6,-1,correct answer,0.300331000006,True,False,stimulusMIPA23_2IFC_2019_Jun_17_1531_53,stimulusMIPA23_2IFC_2019_Jun_17_1531_54,True,2019_Jun_17_1531,2IFC,2,MIPA23,
2IFC,27,0,27,0,9.6,-1,correct answer,0.267772500054,True,False,stimulusMIPA23_2IFC_2019_Jun_17_1531_55,stimulusMIPA23_2IFC_2019_Jun_17_1531_56,True,2019_Jun_17_1531,2IFC,2,MIPA23,
2IFC,28,0,28,0,5.7,-1,wrong answer,0.468083199987,False,True,stimulusMIPA23_2IFC_2019_Jun_17_1531_57,stimulusMIPA23_2IFC_2019_Jun_17_1531_58,True,2019_Jun_17_1531,2IFC,2,MIPA23,
2IFC,29,0,29,0,7.6,-1,correct answer,0.267052800045,True,False,stimulusMIPA23_2IFC_2019_Jun_17_1531_59,stimulusMIPA23_2IFC_2019_Jun_17_1531_60,True,2019_Jun_17_1531,2IFC,2,MIPA23,
2IFC,30,0,30,0,4.5,-1,correct answer,0.467801299994,True,False,stimulusMIPA23_2IFC_2019_Jun_17_1531_61,stimulusMIPA23_2IFC_2019_Jun_17_1531_62,True,2019_Jun_17_1531,2IFC,2,MIPA23,
2IFC,31,0,31,0,2.9,-1,correct answer,0.302804599982,True,False,stimulusMIPA23_2IFC_2019_Jun_17_1531_63,stimulusMIPA23_2IFC_2019_Jun_17_1531_64,True,2019_Jun_17_1531,2IFC,2,MIPA23,
2IFC,32,0,32,0,10.7,-1,correct answer,0.333972199995,True,False,stimulusMIPA23_2IFC_2019_Jun_17_1531_65,stimulusMIPA23_2IFC_2019_Jun_17_1531_66,True,2019_Jun_17_1531,2IFC,2,MIPA23,
2IFC,33,0,33,0,10.7,-1,wrong answer,0.367355199996,False,True,stimulusMIPA23_2IFC_2019_Jun_17_1531_67,stimulusMIPA23_2IFC_2019_Jun_17_1531_68,True,2019_Jun_17_1531,2IFC,2,MIPA23,
2IFC,34,0,34,0,4.5,-1,correct answer,0.3339118,False,True,stimulusMIPA23_2IFC_2019_Jun_17_1531_69,stimulusMIPA23_2IFC_2019_Jun_17_1531_70,True,2019_Jun_17_1531,2IFC,2,MIPA23,
2IFC,35,0,35,0,9.6,-1,correct answer,0.533975199971,False,True,stimulusMIPA23_2IFC_2019_Jun_17_1531_71,stimulusMIPA23_2IFC_2019_Jun_17_1531_72,True,2019_Jun_17_1531,2IFC,2,MIPA23,
2IFC,36,0,36,0,9.6,-1,correct answer,0.400728699984,False,True,stimulusMIPA23_2IFC_2019_Jun_17_1531_73,stimulusMIPA23_2IFC_2019_Jun_17_1531_74,True,2019_Jun_17_1531,2IFC,2,MIPA23,
2IFC,37,0,37,0,4.5,-1,correct answer,0.333534700039,False,True,stimulusMIPA23_2IFC_2019_Jun_17_1531_75,stimulusMIPA23_2IFC_2019_Jun_17_1531_76,True,2019_Jun_17_1531,2IFC,2,MIPA23,
2IFC,38,0,38,0,5.7,-1,correct answer,0.400126099994,False,True,stimulusMIPA23_2IFC_2019_Jun_17_1531_77,stimulusMIPA23_2IFC_2019_Jun_17_1531_78,True,2019_Jun_17_1531,2IFC,2,MIPA23,
2IFC,39,0,39,0,2.9,-1,correct answer,0.367431099992,False,True,stimulusMIPA23_2IFC_2019_Jun_17_1531_79,stimulusMIPA23_2IFC_2019_Jun_17_1531_80,True,2019_Jun_17_1531,2IFC,2,MIPA23,
2IFC,40,0,40,0,4.5,-1,correct answer,0.301207899989,False,True,stimulusMIPA23_2IFC_2019_Jun_17_1531_81,stimulusMIPA23_2IFC_2019_Jun_17_1531_82,True,2019_Jun_17_1531,2IFC,2,MIPA23,
2IFC,41,0,41,0,10.7,-1,correct answer,0.300362900016,False,True,stimulusMIPA23_2IFC_2019_Jun_17_1531_83,stimulusMIPA23_2IFC_2019_Jun_17_1531_84,True,2019_Jun_17_1531,2IFC,2,MIPA23,
2IFC,42,0,42,0,6.7,-1,correct answer,0.300218900025,False,True,stimulusMIPA23_2IFC_2019_Jun_17_1531_85,stimulusMIPA23_2IFC_2019_Jun_17_1531_86,True,2019_Jun_17_1531,2IFC,2,MIPA23,
2IFC,43,0,43,0,8.6,-1,correct answer,0.300039299997,False,True,stimulusMIPA23_2IFC_2019_Jun_17_1531_87,stimulusMIPA23_2IFC_2019_Jun_17_1531_88,True,2019_Jun_17_1531,2IFC,2,MIPA23,
2IFC,44,0,44,0,6.7,-1,correct answer,0.367627899977,False,True,stimulusMIPA23_2IFC_2019_Jun_17_1531_89,stimulusMIPA23_2IFC_2019_Jun_17_1531_90,True,2019_Jun_17_1531,2IFC,2,MIPA23,
2IFC,45,0,45,0,7.6,-1,correct answer,0.367800800013,True,False,stimulusMIPA23_2IFC_2019_Jun_17_1531_91,stimulusMIPA23_2IFC_2019_Jun_17_1531_92,True,2019_Jun_17_1531,2IFC,2,MIPA23,
2IFC,46,0,46,0,4.5,-1,correct answer,0.433928599989,True,False,stimulusMIPA23_2IFC_2019_Jun_17_1531_93,stimulusMIPA23_2IFC_2019_Jun_17_1531_94,True,2019_Jun_17_1531,2IFC,2,MIPA23,
2IFC,47,0,47,0,10.7,-1,wrong answer,0.300678199972,False,True,stimulusMIPA23_2IFC_2019_Jun_17_1531_95,stimulusMIPA23_2IFC_2019_Jun_17_1531_96,True,2019_Jun_17_1531,2IFC,2,MIPA23,
2IFC,48,0,48,0,6.7,-1,correct answer,0.400561199989,False,True,stimulusMIPA23_2IFC_2019_Jun_17_1531_97,stimulusMIPA23_2IFC_2019_Jun_17_1531_98,True,2019_Jun_17_1531,2IFC,2,MIPA23,
2IFC,49,0,49,0,10.7,-1,correct answer,0.500790599966,False,True,stimulusMIPA23_2IFC_2019_Jun_17_1531_99,stimulusMIPA23_2IFC_2019_Jun_17_1531_100,True,2019_Jun_17_1531,2IFC,2,MIPA23,
2IFC,50,0,50,0,8.6,-1,wrong answer,0.63391959999,True,False,stimulusMIPA23_2IFC_2019_Jun_17_1531_101,stimulusMIPA23_2IFC_2019_Jun_17_1531_102,True,2019_Jun_17_1531,2IFC,2,MIPA23,
2IFC,51,0,51,0,7.6,-1,correct answer,0.26722129999,False,True,stimulusMIPA23_2IFC_2019_Jun_17_1531_103,stimulusMIPA23_2IFC_2019_Jun_17_1531_104,True,2019_Jun_17_1531,2IFC,2,MIPA23,
2IFC,52,0,52,0,10.7,-1,correct answer,0.301732600026,False,True,stimulusMIPA23_2IFC_2019_Jun_17_1531_105,stimulusMIPA23_2IFC_2019_Jun_17_1531_106,True,2019_Jun_17_1531,2IFC,2,MIPA23,
2IFC,53,0,53,0,6.7,-1,correct answer,0.333828200004,False,True,stimulusMIPA23_2IFC_2019_Jun_17_1531_107,stimulusMIPA23_2IFC_2019_Jun_17_1531_108,True,2019_Jun_17_1531,2IFC,2,MIPA23,
2IFC,54,0,54,0,6.7,-1,correct answer,0.200540399994,True,False,stimulusMIPA23_2IFC_2019_Jun_17_1531_109,stimulusMIPA23_2IFC_2019_Jun_17_1531_110,True,2019_Jun_17_1531,2IFC,2,MIPA23,
2IFC,55,0,55,0,7.6,-1,correct answer,0.434137000004,True,False,stimulusMIPA23_2IFC_2019_Jun_17_1531_111,stimulusMIPA23_2IFC_2019_Jun_17_1531_112,True,2019_Jun_17_1531,2IFC,2,MIPA23,
2IFC,56,0,56,0,4.5,-1,wrong answer,0.602277599974,True,False,stimulusMIPA23_2IFC_2019_Jun_17_1531_113,stimulusMIPA23_2IFC_2019_Jun_17_1531_114,True,2019_Jun_17_1531,2IFC,2,MIPA23,
2IFC,57,0,57,0,4.5,-1,correct answer,0.432899700012,False,True,stimulusMIPA23_2IFC_2019_Jun_17_1531_115,stimulusMIPA23_2IFC_2019_Jun_17_1531_116,True,2019_Jun_17_1531,2IFC,2,MIPA23,
2IFC,58,0,58,0,10.7,-1,correct answer,0.469022000034,False,True,stimulusMIPA23_2IFC_2019_Jun_17_1531_117,stimulusMIPA23_2IFC_2019_Jun_17_1531_118,True,2019_Jun_17_1531,2IFC,2,MIPA23,
2IFC,59,0,59,0,7.6,-1,wrong answer,0.400527699967,True,False,stimulusMIPA23_2IFC_2019_Jun_17_1531_119,stimulusMIPA23_2IFC_2019_Jun_17_1531_120,True,2019_Jun_17_1531,2IFC,2,MIPA23,
2IFC,60,0,60,0,9.6,-1,correct answer,0.366652199998,False,True,stimulusMIPA23_2IFC_2019_Jun_17_1531_121,stimulusMIPA23_2IFC_2019_Jun_17_1531_122,True,2019_Jun_17_1531,2IFC,2,MIPA23,
2IFC,61,0,61,0,5.7,-1,correct answer,0.533984899987,True,False,stimulusMIPA23_2IFC_2019_Jun_17_1531_123,stimulusMIPA23_2IFC_2019_Jun_17_1531_124,True,2019_Jun_17_1531,2IFC,2,MIPA23,
2IFC,62,0,62,0,8.6,-1,correct answer,0.100231500051,True,False,stimulusMIPA23_2IFC_2019_Jun_17_1531_125,stimulusMIPA23_2IFC_2019_Jun_17_1531_126,True,2019_Jun_17_1531,2IFC,2,MIPA23,
2IFC,63,0,63,0,5.7,-1,wrong answer,0.600647199957,False,True,stimulusMIPA23_2IFC_2019_Jun_17_1531_127,stimulusMIPA23_2IFC_2019_Jun_17_1531_128,True,2019_Jun_17_1531,2IFC,2,MIPA23,
2IFC,64,0,64,0,2.9,-1,wrong answer,0.500481199997,True,False,stimulusMIPA23_2IFC_2019_Jun_17_1531_129,stimulusMIPA23_2IFC_2019_Jun_17_1531_130,True,2019_Jun_17_1531,2IFC,2,MIPA23,
2IFC,65,0,65,0,2.9,-1,wrong answer,0.367731599952,False,True,stimulusMIPA23_2IFC_2019_Jun_17_1531_131,stimulusMIPA23_2IFC_2019_Jun_17_1531_132,True,2019_Jun_17_1531,2IFC,2,MIPA23,
2IFC,66,0,66,0,2.9,-1,wrong answer,0.467133699975,True,False,stimulusMIPA23_2IFC_2019_Jun_17_1531_133,stimulusMIPA23_2IFC_2019_Jun_17_1531_134,True,2019_Jun_17_1531,2IFC,2,MIPA23,
2IFC,67,0,67,0,9.6,-1,correct answer,0.535472900025,False,True,stimulusMIPA23_2IFC_2019_Jun_17_1531_135,stimulusMIPA23_2IFC_2019_Jun_17_1531_136,True,2019_Jun_17_1531,2IFC,2,MIPA23,
2IFC,68,0,68,0,8.6,-1,correct answer,0.133324399998,True,False,stimulusMIPA23_2IFC_2019_Jun_17_1531_137,stimulusMIPA23_2IFC_2019_Jun_17_1531_138,True,2019_Jun_17_1531,2IFC,2,MIPA23,
2IFC,69,0,69,0,5.7,-1,correct answer,0.367282100022,False,True,stimulusMIPA23_2IFC_2019_Jun_17_1531_139,stimulusMIPA23_2IFC_2019_Jun_17_1531_140,True,2019_Jun_17_1531,2IFC,2,MIPA23,
2IFC,70,0,70,0,2.9,-1,correct answer,0.435116100009,False,True,stimulusMIPA23_2IFC_2019_Jun_17_1531_141,stimulusMIPA23_2IFC_2019_Jun_17_1531_142,True,2019_Jun_17_1531,2IFC,2,MIPA23,
2IFC,71,0,71,0,2.9,-1,wrong answer,0.300575300003,False,True,stimulusMIPA23_2IFC_2019_Jun_17_1531_143,stimulusMIPA23_2IFC_2019_Jun_17_1531_144,True,2019_Jun_17_1531,2IFC,2,MIPA23,
2IFC,72,0,72,0,8.6,-1,correct answer,0.400801000011,True,False,stimulusMIPA23_2IFC_2019_Jun_17_1531_145,stimulusMIPA23_2IFC_2019_Jun_17_1531_146,True,2019_Jun_17_1531,2IFC,2,MIPA23,
2IFC,73,0,73,0,9.6,-1,correct answer,0.634632999951,False,True,stimulusMIPA23_2IFC_2019_Jun_17_1531_147,stimulusMIPA23_2IFC_2019_Jun_17_1531_148,True,2019_Jun_17_1531,2IFC,2,MIPA23,
2IFC,74,0,74,0,4.5,-1,no answer,-1,True,False,stimulusMIPA23_2IFC_2019_Jun_17_1531_149,stimulusMIPA23_2IFC_2019_Jun_17_1531_150,True,2019_Jun_17_1531,2IFC,2,MIPA23,
2IFC,0,0,0,0,5.7,-1,wrong answer,0.601114699966,False,True,stimulusMIPA23_2IFC_2019_Jun_17_1531_151,stimulusMIPA23_2IFC_2019_Jun_17_1531_152,True,2019_Jun_17_1531,2IFC,2,MIPA23,
2IFC,1,0,1,0,5.7,-1,correct answer,0.267289700045,True,False,stimulusMIPA23_2IFC_2019_Jun_17_1531_153,stimulusMIPA23_2IFC_2019_Jun_17_1531_154,True,2019_Jun_17_1531,2IFC,2,MIPA23,
2IFC,2,0,2,0,2.9,-1,correct answer,0.734959300025,False,True,stimulusMIPA23_2IFC_2019_Jun_17_1531_155,stimulusMIPA23_2IFC_2019_Jun_17_1531_156,True,2019_Jun_17_1531,2IFC,2,MIPA23,
2IFC,3,0,3,0,8.6,-1,correct answer,0.433158100001,False,True,stimulusMIPA23_2IFC_2019_Jun_17_1531_157,stimulusMIPA23_2IFC_2019_Jun_17_1531_158,True,2019_Jun_17_1531,2IFC,2,MIPA23,
2IFC,4,0,4,0,6.7,-1,correct answer,0.300643199997,False,True,stimulusMIPA23_2IFC_2019_Jun_17_1531_159,stimulusMIPA23_2IFC_2019_Jun_17_1531_160,True,2019_Jun_17_1531,2IFC,2,MIPA23,
2IFC,5,0,5,0,4.5,-1,correct answer,0.433914199995,False,True,stimulusMIPA23_2IFC_2019_Jun_17_1531_161,stimulusMIPA23_2IFC_2019_Jun_17_1531_162,True,2019_Jun_17_1531,2IFC,2,MIPA23,
2IFC,6,0,6,0,7.6,-1,wrong answer,0.534152499982,True,False,stimulusMIPA23_2IFC_2019_Jun_17_1531_163,stimulusMIPA23_2IFC_2019_Jun_17_1531_164,True,2019_Jun_17_1531,2IFC,2,MIPA23,
2IFC,7,0,7,0,5.7,-1,correct answer,0.568334699958,False,True,stimulusMIPA23_2IFC_2019_Jun_17_1531_165,stimulusMIPA23_2IFC_2019_Jun_17_1531_166,True,2019_Jun_17_1531,2IFC,2,MIPA23,
2IFC,8,0,8,0,10.7,-1,correct answer,0.533890100021,False,True,stimulusMIPA23_2IFC_2019_Jun_17_1531_167,stimulusMIPA23_2IFC_2019_Jun_17_1531_168,True,2019_Jun_17_1531,2IFC,2,MIPA23,
2IFC,9,0,9,0,10.7,-1,correct answer,0.299648799992,True,False,stimulusMIPA23_2IFC_2019_Jun_17_1531_169,stimulusMIPA23_2IFC_2019_Jun_17_1531_170,True,2019_Jun_17_1531,2IFC,2,MIPA23,
2IFC,10,0,10,0,6.7,-1,correct answer,0.600792100013,False,True,stimulusMIPA23_2IFC_2019_Jun_17_1531_171,stimulusMIPA23_2IFC_2019_Jun_17_1531_172,True,2019_Jun_17_1531,2IFC,2,MIPA23,
2IFC,11,0,11,0,10.7,-1,correct answer,0.43424089998,True,False,stimulusMIPA23_2IFC_2019_Jun_17_1531_173,stimulusMIPA23_2IFC_2019_Jun_17_1531_174,True,2019_Jun_17_1531,2IFC,2,MIPA23,
2IFC,12,0,12,0,6.7,-1,correct answer,0.501022699988,False,True,stimulusMIPA23_2IFC_2019_Jun_17_1531_175,stimulusMIPA23_2IFC_2019_Jun_17_1531_176,True,2019_Jun_17_1531,2IFC,2,MIPA23,
2IFC,13,0,13,0,9.6,-1,correct answer,0.399974500004,True,False,stimulusMIPA23_2IFC_2019_Jun_17_1531_177,stimulusMIPA23_2IFC_2019_Jun_17_1531_178,True,2019_Jun_17_1531,2IFC,2,MIPA23,
2IFC,14,0,14,0,5.7,-1,wrong answer,0.534025500005,False,True,stimulusMIPA23_2IFC_2019_Jun_17_1531_179,stimulusMIPA23_2IFC_2019_Jun_17_1531_180,True,2019_Jun_17_1531,2IFC,2,MIPA23,
2IFC,15,0,15,0,7.6,-1,correct answer,0.400777400006,True,False,stimulusMIPA23_2IFC_2019_Jun_17_1531_181,stimulusMIPA23_2IFC_2019_Jun_17_1531_182,True,2019_Jun_17_1531,2IFC,2,MIPA23,
2IFC,16,0,16,0,2.9,-1,correct answer,0.533574500005,False,True,stimulusMIPA23_2IFC_2019_Jun_17_1531_183,stimulusMIPA23_2IFC_2019_Jun_17_1531_184,True,2019_Jun_17_1531,2IFC,2,MIPA23,
2IFC,17,0,17,0,4.5,-1,correct answer,0.634191200021,True,False,stimulusMIPA23_2IFC_2019_Jun_17_1531_185,stimulusMIPA23_2IFC_2019_Jun_17_1531_186,True,2019_Jun_17_1531,2IFC,2,MIPA23,
2IFC,18,0,18,0,4.5,-1,wrong answer,0.667546099983,True,False,stimulusMIPA23_2IFC_2019_Jun_17_1531_187,stimulusMIPA23_2IFC_2019_Jun_17_1531_188,True,2019_Jun_17_1531,2IFC,2,MIPA23,
2IFC,19,0,19,0,10.7,-1,correct answer,0.600697199989,False,True,stimulusMIPA23_2IFC_2019_Jun_17_1531_189,stimulusMIPA23_2IFC_2019_Jun_17_1531_190,True,2019_Jun_17_1531,2IFC,2,MIPA23,
2IFC,20,0,20,0,4.5,-1,wrong answer,0.533998900035,False,True,stimulusMIPA23_2IFC_2019_Jun_17_1531_191,stimulusMIPA23_2IFC_2019_Jun_17_1531_192,True,2019_Jun_17_1531,2IFC,2,MIPA23,
2IFC,21,0,21,0,8.6,-1,correct answer,0.534206499986,False,True,stimulusMIPA23_2IFC_2019_Jun_17_1531_193,stimulusMIPA23_2IFC_2019_Jun_17_1531_194,True,2019_Jun_17_1531,2IFC,2,MIPA23,
2IFC,22,0,22,0,4.5,-1,correct answer,0.533973099955,False,True,stimulusMIPA23_2IFC_2019_Jun_17_1531_195,stimulusMIPA23_2IFC_2019_Jun_17_1531_196,True,2019_Jun_17_1531,2IFC,2,MIPA23,
2IFC,23,0,23,0,9.6,-1,correct answer,0.533937899978,False,True,stimulusMIPA23_2IFC_2019_Jun_17_1531_197,stimulusMIPA23_2IFC_2019_Jun_17_1531_198,True,2019_Jun_17_1531,2IFC,2,MIPA23,
2IFC,24,0,24,0,8.6,-1,correct answer,0.367476199986,False,True,stimulusMIPA23_2IFC_2019_Jun_17_1531_199,stimulusMIPA23_2IFC_2019_Jun_17_1531_200,True,2019_Jun_17_1531,2IFC,2,MIPA23,
2IFC,25,0,25,0,2.9,-1,wrong answer,0.734450700053,True,False,stimulusMIPA23_2IFC_2019_Jun_17_1531_201,stimulusMIPA23_2IFC_2019_Jun_17_1531_202,True,2019_Jun_17_1531,2IFC,2,MIPA23,
2IFC,26,0,26,0,4.5,-1,correct answer,0.701105999993,False,True,stimulusMIPA23_2IFC_2019_Jun_17_1531_203,stimulusMIPA23_2IFC_2019_Jun_17_1531_204,True,2019_Jun_17_1531,2IFC,2,MIPA23,
2IFC,27,0,27,0,5.7,-1,correct answer,0.534116099996,True,False,stimulusMIPA23_2IFC_2019_Jun_17_1531_205,stimulusMIPA23_2IFC_2019_Jun_17_1531_206,True,2019_Jun_17_1531,2IFC,2,MIPA23,
2IFC,28,0,28,0,4.5,-1,correct answer,0.601696000027,False,True,stimulusMIPA23_2IFC_2019_Jun_17_1531_207,stimulusMIPA23_2IFC_2019_Jun_17_1531_208,True,2019_Jun_17_1531,2IFC,2,MIPA23,
2IFC,29,0,29,0,5.7,-1,wrong answer,0.567289699975,False,True,stimulusMIPA23_2IFC_2019_Jun_17_1531_209,stimulusMIPA23_2IFC_2019_Jun_17_1531_210,True,2019_Jun_17_1531,2IFC,2,MIPA23,
2IFC,30,0,30,0,9.6,-1,correct answer,0.534622000006,True,False,stimulusMIPA23_2IFC_2019_Jun_17_1531_211,stimulusMIPA23_2IFC_2019_Jun_17_1531_212,True,2019_Jun_17_1531,2IFC,2,MIPA23,
2IFC,31,0,31,0,6.7,-1,wrong answer,0.433932399959,True,False,stimulusMIPA23_2IFC_2019_Jun_17_1531_213,stimulusMIPA23_2IFC_2019_Jun_17_1531_214,True,2019_Jun_17_1531,2IFC,2,MIPA23,
2IFC,32,0,32,0,10.7,-1,correct answer,0.466898299986,False,True,stimulusMIPA23_2IFC_2019_Jun_17_1531_215,stimulusMIPA23_2IFC_2019_Jun_17_1531_216,True,2019_Jun_17_1531,2IFC,2,MIPA23,
2IFC,33,0,33,0,5.7,-1,correct answer,0.666752399993,False,True,stimulusMIPA23_2IFC_2019_Jun_17_1531_217,stimulusMIPA23_2IFC_2019_Jun_17_1531_218,True,2019_Jun_17_1531,2IFC,2,MIPA23,
2IFC,34,0,34,0,8.6,-1,no answer,-1,False,True,stimulusMIPA23_2IFC_2019_Jun_17_1531_219,stimulusMIPA23_2IFC_2019_Jun_17_1531_220,True,2019_Jun_17_1531,2IFC,2,MIPA23,
2IFC,35,0,35,0,8.6,-1,wrong answer,0.466577099985,True,False,stimulusMIPA23_2IFC_2019_Jun_17_1531_221,stimulusMIPA23_2IFC_2019_Jun_17_1531_222,True,2019_Jun_17_1531,2IFC,2,MIPA23,
2IFC,36,0,36,0,7.6,-1,correct answer,0.667197200004,True,False,stimulusMIPA23_2IFC_2019_Jun_17_1531_223,stimulusMIPA23_2IFC_2019_Jun_17_1531_224,True,2019_Jun_17_1531,2IFC,2,MIPA23,
2IFC,37,0,37,0,5.7,-1,correct answer,0.433700299996,True,False,stimulusMIPA23_2IFC_2019_Jun_17_1531_225,stimulusMIPA23_2IFC_2019_Jun_17_1531_226,True,2019_Jun_17_1531,2IFC,2,MIPA23,
2IFC,38,0,38,0,6.7,-1,wrong answer,0.467247900029,False,True,stimulusMIPA23_2IFC_2019_Jun_17_1531_227,stimulusMIPA23_2IFC_2019_Jun_17_1531_228,True,2019_Jun_17_1531,2IFC,2,MIPA23,
2IFC,39,0,39,0,5.7,-1,correct answer,0.300625000033,True,False,stimulusMIPA23_2IFC_2019_Jun_17_1531_229,stimulusMIPA23_2IFC_2019_Jun_17_1531_230,True,2019_Jun_17_1531,2IFC,2,MIPA23,
2IFC,40,0,40,0,4.5,-1,wrong answer,0.500645399967,True,False,stimulusMIPA23_2IFC_2019_Jun_17_1531_231,stimulusMIPA23_2IFC_2019_Jun_17_1531_232,True,2019_Jun_17_1531,2IFC,2,MIPA23,
2IFC,41,0,41,0,5.7,-1,correct answer,0.601827299979,False,True,stimulusMIPA23_2IFC_2019_Jun_17_1531_233,stimulusMIPA23_2IFC_2019_Jun_17_1531_234,True,2019_Jun_17_1531,2IFC,2,MIPA23,
2IFC,42,0,42,0,9.6,-1,correct answer,0.30062699999,False,True,stimulusMIPA23_2IFC_2019_Jun_17_1531_235,stimulusMIPA23_2IFC_2019_Jun_17_1531_236,True,2019_Jun_17_1531,2IFC,2,MIPA23,
2IFC,43,0,43,0,6.7,-1,wrong answer,0.533466699999,True,False,stimulusMIPA23_2IFC_2019_Jun_17_1531_237,stimulusMIPA23_2IFC_2019_Jun_17_1531_238,True,2019_Jun_17_1531,2IFC,2,MIPA23,
2IFC,44,0,44,0,9.6,-1,correct answer,0.400402799947,True,False,stimulusMIPA23_2IFC_2019_Jun_17_1531_239,stimulusMIPA23_2IFC_2019_Jun_17_1531_240,True,2019_Jun_17_1531,2IFC,2,MIPA23,
2IFC,45,0,45,0,7.6,-1,correct answer,0.467643000011,True,False,stimulusMIPA23_2IFC_2019_Jun_17_1531_241,stimulusMIPA23_2IFC_2019_Jun_17_1531_242,True,2019_Jun_17_1531,2IFC,2,MIPA23,
2IFC,46,0,46,0,7.6,-1,correct answer,0.0999822000158,True,False,stimulusMIPA23_2IFC_2019_Jun_17_1531_243,stimulusMIPA23_2IFC_2019_Jun_17_1531_244,True,2019_Jun_17_1531,2IFC,2,MIPA23,
2IFC,47,0,47,0,7.6,-1,correct answer,0.0339435000205,True,False,stimulusMIPA23_2IFC_2019_Jun_17_1531_245,stimulusMIPA23_2IFC_2019_Jun_17_1531_246,True,2019_Jun_17_1531,2IFC,2,MIPA23,
2IFC,48,0,48,0,5.7,-1,correct answer,0.302170999988,True,False,stimulusMIPA23_2IFC_2019_Jun_17_1531_247,stimulusMIPA23_2IFC_2019_Jun_17_1531_248,True,2019_Jun_17_1531,2IFC,2,MIPA23,
2IFC,49,0,49,0,10.7,-1,correct answer,0.267016900005,True,False,stimulusMIPA23_2IFC_2019_Jun_17_1531_249,stimulusMIPA23_2IFC_2019_Jun_17_1531_250,True,2019_Jun_17_1531,2IFC,2,MIPA23,
2IFC,50,0,50,0,10.7,-1,wrong answer,0.301605399989,False,True,stimulusMIPA23_2IFC_2019_Jun_17_1531_251,stimulusMIPA23_2IFC_2019_Jun_17_1531_252,True,2019_Jun_17_1531,2IFC,2,MIPA23,
2IFC,51,0,51,0,2.9,-1,wrong answer,0.467457699997,False,True,stimulusMIPA23_2IFC_2019_Jun_17_1531_253,stimulusMIPA23_2IFC_2019_Jun_17_1531_254,True,2019_Jun_17_1531,2IFC,2,MIPA23,
2IFC,52,0,52,0,8.6,-1,correct answer,0.433922099997,False,True,stimulusMIPA23_2IFC_2019_Jun_17_1531_255,stimulusMIPA23_2IFC_2019_Jun_17_1531_256,True,2019_Jun_17_1531,2IFC,2,MIPA23,
2IFC,53,0,53,0,10.7,-1,correct answer,0.400644199981,False,True,stimulusMIPA23_2IFC_2019_Jun_17_1531_257,stimulusMIPA23_2IFC_2019_Jun_17_1531_258,True,2019_Jun_17_1531,2IFC,2,MIPA23,
2IFC,54,0,54,0,7.6,-1,correct answer,0.134030700021,False,True,stimulusMIPA23_2IFC_2019_Jun_17_1531_259,stimulusMIPA23_2IFC_2019_Jun_17_1531_260,True,2019_Jun_17_1531,2IFC,2,MIPA23,
2IFC,55,0,55,0,5.7,-1,correct answer,0.30036470003,True,False,stimulusMIPA23_2IFC_2019_Jun_17_1531_261,stimulusMIPA23_2IFC_2019_Jun_17_1531_262,True,2019_Jun_17_1531,2IFC,2,MIPA23,
2IFC,56,0,56,0,10.7,-1,correct answer,0.233838299988,False,True,stimulusMIPA23_2IFC_2019_Jun_17_1531_263,stimulusMIPA23_2IFC_2019_Jun_17_1531_264,True,2019_Jun_17_1531,2IFC,2,MIPA23,
2IFC,57,0,57,0,5.7,-1,correct answer,0.234066999983,False,True,stimulusMIPA23_2IFC_2019_Jun_17_1531_265,stimulusMIPA23_2IFC_2019_Jun_17_1531_266,True,2019_Jun_17_1531,2IFC,2,MIPA23,
2IFC,58,0,58,0,7.6,-1,correct answer,0.167078899976,True,False,stimulusMIPA23_2IFC_2019_Jun_17_1531_267,stimulusMIPA23_2IFC_2019_Jun_17_1531_268,True,2019_Jun_17_1531,2IFC,2,MIPA23,
2IFC,59,0,59,0,2.9,-1,correct answer,0.333980800002,False,True,stimulusMIPA23_2IFC_2019_Jun_17_1531_269,stimulusMIPA23_2IFC_2019_Jun_17_1531_270,True,2019_Jun_17_1531,2IFC,2,MIPA23,
2IFC,60,0,60,0,9.6,-1,correct answer,0.200516400044,True,False,stimulusMIPA23_2IFC_2019_Jun_17_1531_271,stimulusMIPA23_2IFC_2019_Jun_17_1531_272,True,2019_Jun_17_1531,2IFC,2,MIPA23,
2IFC,61,0,61,0,9.6,-1,correct answer,0.0675894999877,False,True,stimulusMIPA23_2IFC_2019_Jun_17_1531_273,stimulusMIPA23_2IFC_2019_Jun_17_1531_274,True,2019_Jun_17_1531,2IFC,2,MIPA23,
2IFC,62,0,62,0,2.9,-1,correct answer,0.26726350002,False,True,stimulusMIPA23_2IFC_2019_Jun_17_1531_275,stimulusMIPA23_2IFC_2019_Jun_17_1531_276,True,2019_Jun_17_1531,2IFC,2,MIPA23,
2IFC,63,0,63,0,6.7,-1,correct answer,0.2341227,True,False,stimulusMIPA23_2IFC_2019_Jun_17_1531_277,stimulusMIPA23_2IFC_2019_Jun_17_1531_278,True,2019_Jun_17_1531,2IFC,2,MIPA23,
2IFC,64,0,64,0,10.7,-1,correct answer,0.266396599996,False,True,stimulusMIPA23_2IFC_2019_Jun_17_1531_279,stimulusMIPA23_2IFC_2019_Jun_17_1531_280,True,2019_Jun_17_1531,2IFC,2,MIPA23,
2IFC,65,0,65,0,2.9,-1,correct answer,0.300657299988,False,True,stimulusMIPA23_2IFC_2019_Jun_17_1531_281,stimulusMIPA23_2IFC_2019_Jun_17_1531_282,True,2019_Jun_17_1531,2IFC,2,MIPA23,
2IFC,66,0,66,0,10.7,-1,wrong answer,0.232827000029,False,True,stimulusMIPA23_2IFC_2019_Jun_17_1531_283,stimulusMIPA23_2IFC_2019_Jun_17_1531_284,True,2019_Jun_17_1531,2IFC,2,MIPA23,
2IFC,67,0,67,0,6.7,-1,wrong answer,0.433967999998,True,False,stimulusMIPA23_2IFC_2019_Jun_17_1531_285,stimulusMIPA23_2IFC_2019_Jun_17_1531_286,True,2019_Jun_17_1531,2IFC,2,MIPA23,
2IFC,68,0,68,0,8.6,-1,correct answer,0.0675143999979,False,True,stimulusMIPA23_2IFC_2019_Jun_17_1531_287,stimulusMIPA23_2IFC_2019_Jun_17_1531_288,True,2019_Jun_17_1531,2IFC,2,MIPA23,
2IFC,69,0,69,0,10.7,-1,correct answer,0.200501799991,False,True,stimulusMIPA23_2IFC_2019_Jun_17_1531_289,stimulusMIPA23_2IFC_2019_Jun_17_1531_290,True,2019_Jun_17_1531,2IFC,2,MIPA23,
2IFC,70,0,70,0,9.6,-1,correct answer,0.13328770001,True,False,stimulusMIPA23_2IFC_2019_Jun_17_1531_291,stimulusMIPA23_2IFC_2019_Jun_17_1531_292,True,2019_Jun_17_1531,2IFC,2,MIPA23,
2IFC,71,0,71,0,4.5,-1,wrong answer,0.267299400002,True,False,stimulusMIPA23_2IFC_2019_Jun_17_1531_293,stimulusMIPA23_2IFC_2019_Jun_17_1531_294,True,2019_Jun_17_1531,2IFC,2,MIPA23,
2IFC,72,0,72,0,2.9,-1,wrong answer,0.300355100015,False,True,stimulusMIPA23_2IFC_2019_Jun_17_1531_295,stimulusMIPA23_2IFC_2019_Jun_17_1531_296,True,2019_Jun_17_1531,2IFC,2,MIPA23,
2IFC,73,0,73,0,4.5,-1,correct answer,0.400690699986,True,False,stimulusMIPA23_2IFC_2019_Jun_17_1531_297,stimulusMIPA23_2IFC_2019_Jun_17_1531_298,True,2019_Jun_17_1531,2IFC,2,MIPA23,
2IFC,74,0,74,0,6.7,-1,correct answer,0.134666900034,True,False,stimulusMIPA23_2IFC_2019_Jun_17_1531_299,stimulusMIPA23_2IFC_2019_Jun_17_1531_300,True,2019_Jun_17_1531,2IFC,2,MIPA23,
2IFC,0,0,0,0,8.6,-1,wrong answer,0.6687255,True,False,stimulusMIPA23_2IFC_2019_Jun_17_1531_301,stimulusMIPA23_2IFC_2019_Jun_17_1531_302,True,2019_Jun_17_1531,2IFC,2,MIPA23,
2IFC,1,0,1,0,4.5,-1,correct answer,0.400425900007,True,False,stimulusMIPA23_2IFC_2019_Jun_17_1531_303,stimulusMIPA23_2IFC_2019_Jun_17_1531_304,True,2019_Jun_17_1531,2IFC,2,MIPA23,
2IFC,2,0,2,0,5.7,-1,correct answer,0.600862400024,False,True,stimulusMIPA23_2IFC_2019_Jun_17_1531_305,stimulusMIPA23_2IFC_2019_Jun_17_1531_306,True,2019_Jun_17_1531,2IFC,2,MIPA23,
2IFC,3,0,3,0,5.7,-1,wrong answer,0.635401900043,True,False,stimulusMIPA23_2IFC_2019_Jun_17_1531_307,stimulusMIPA23_2IFC_2019_Jun_17_1531_308,True,2019_Jun_17_1531,2IFC,2,MIPA23,
2IFC,4,0,4,0,7.6,-1,wrong answer,0.434286099975,False,True,stimulusMIPA23_2IFC_2019_Jun_17_1531_309,stimulusMIPA23_2IFC_2019_Jun_17_1531_310,True,2019_Jun_17_1531,2IFC,2,MIPA23,
2IFC,5,0,5,0,2.9,-1,wrong answer,0.333965400001,True,False,stimulusMIPA23_2IFC_2019_Jun_17_1531_311,stimulusMIPA23_2IFC_2019_Jun_17_1531_312,True,2019_Jun_17_1531,2IFC,2,MIPA23,
2IFC,6,0,6,0,5.7,-1,correct answer,0.634368000028,False,True,stimulusMIPA23_2IFC_2019_Jun_17_1531_313,stimulusMIPA23_2IFC_2019_Jun_17_1531_314,True,2019_Jun_17_1531,2IFC,2,MIPA23,
2IFC,7,0,7,0,4.5,-1,correct answer,0.464422399993,True,False,stimulusMIPA23_2IFC_2019_Jun_17_1531_315,stimulusMIPA23_2IFC_2019_Jun_17_1531_316,True,2019_Jun_17_1531,2IFC,2,MIPA23,
2IFC,8,0,8,0,10.7,-1,wrong answer,0.566304399981,True,False,stimulusMIPA23_2IFC_2019_Jun_17_1531_317,stimulusMIPA23_2IFC_2019_Jun_17_1531_318,True,2019_Jun_17_1531,2IFC,2,MIPA23,
2IFC,9,0,9,0,8.6,-1,wrong answer,0.567574699991,True,False,stimulusMIPA23_2IFC_2019_Jun_17_1531_319,stimulusMIPA23_2IFC_2019_Jun_17_1531_320,True,2019_Jun_17_1531,2IFC,2,MIPA23,
2IFC,10,0,10,0,2.9,-1,wrong answer,0.565313600004,True,False,stimulusMIPA23_2IFC_2019_Jun_17_1531_321,stimulusMIPA23_2IFC_2019_Jun_17_1531_322,True,2019_Jun_17_1531,2IFC,2,MIPA23,
2IFC,11,0,11,0,8.6,-1,correct answer,0.400328799966,True,False,stimulusMIPA23_2IFC_2019_Jun_17_1531_323,stimulusMIPA23_2IFC_2019_Jun_17_1531_324,True,2019_Jun_17_1531,2IFC,2,MIPA23,
2IFC,12,0,12,0,4.5,-1,correct answer,0.300506800006,False,True,stimulusMIPA23_2IFC_2019_Jun_17_1531_325,stimulusMIPA23_2IFC_2019_Jun_17_1531_326,True,2019_Jun_17_1531,2IFC,2,MIPA23,
2IFC,13,0,13,0,8.6,-1,wrong answer,0.733463699988,False,True,stimulusMIPA23_2IFC_2019_Jun_17_1531_327,stimulusMIPA23_2IFC_2019_Jun_17_1531_328,True,2019_Jun_17_1531,2IFC,2,MIPA23,
2IFC,14,0,14,0,9.6,-1,correct answer,0.167232200038,False,True,stimulusMIPA23_2IFC_2019_Jun_17_1531_329,stimulusMIPA23_2IFC_2019_Jun_17_1531_330,True,2019_Jun_17_1531,2IFC,2,MIPA23,
2IFC,15,0,15,0,10.7,-1,correct answer,0.267261100002,False,True,stimulusMIPA23_2IFC_2019_Jun_17_1531_331,stimulusMIPA23_2IFC_2019_Jun_17_1531_332,True,2019_Jun_17_1531,2IFC,2,MIPA23,
2IFC,16,0,16,0,8.6,-1,correct answer,0.0344628000166,True,False,stimulusMIPA23_2IFC_2019_Jun_17_1531_333,stimulusMIPA23_2IFC_2019_Jun_17_1531_334,True,2019_Jun_17_1531,2IFC,2,MIPA23,
2IFC,17,0,17,0,5.7,-1,wrong answer,0.200409700046,True,False,stimulusMIPA23_2IFC_2019_Jun_17_1531_335,stimulusMIPA23_2IFC_2019_Jun_17_1531_336,True,2019_Jun_17_1531,2IFC,2,MIPA23,
2IFC,18,0,18,0,10.7,-1,wrong answer,0.233363199979,False,True,stimulusMIPA23_2IFC_2019_Jun_17_1531_337,stimulusMIPA23_2IFC_2019_Jun_17_1531_338,True,2019_Jun_17_1531,2IFC,2,MIPA23,
2IFC,19,0,19,0,7.6,-1,wrong answer,0.367221499968,True,False,stimulusMIPA23_2IFC_2019_Jun_17_1531_339,stimulusMIPA23_2IFC_2019_Jun_17_1531_340,True,2019_Jun_17_1531,2IFC,2,MIPA23,
2IFC,20,0,20,0,4.5,-1,wrong answer,0.301381699974,False,True,stimulusMIPA23_2IFC_2019_Jun_17_1531_341,stimulusMIPA23_2IFC_2019_Jun_17_1531_342,True,2019_Jun_17_1531,2IFC,2,MIPA23,
2IFC,21,0,21,0,10.7,-1,wrong answer,0.200483400025,False,True,stimulusMIPA23_2IFC_2019_Jun_17_1531_343,stimulusMIPA23_2IFC_2019_Jun_17_1531_344,True,2019_Jun_17_1531,2IFC,2,MIPA23,
2IFC,22,0,22,0,9.6,-1,correct answer,0.167160700017,True,False,stimulusMIPA23_2IFC_2019_Jun_17_1531_345,stimulusMIPA23_2IFC_2019_Jun_17_1531_346,True,2019_Jun_17_1531,2IFC,2,MIPA23,
2IFC,23,0,23,0,9.6,-1,correct answer,0.166990800004,True,False,stimulusMIPA23_2IFC_2019_Jun_17_1531_347,stimulusMIPA23_2IFC_2019_Jun_17_1531_348,True,2019_Jun_17_1531,2IFC,2,MIPA23,
2IFC,24,0,24,0,4.5,-1,wrong answer,0.166691299994,True,False,stimulusMIPA23_2IFC_2019_Jun_17_1531_349,stimulusMIPA23_2IFC_2019_Jun_17_1531_350,True,2019_Jun_17_1531,2IFC,2,MIPA23,
2IFC,25,0,25,0,4.5,-1,correct answer,0.333351599984,True,False,stimulusMIPA23_2IFC_2019_Jun_17_1531_351,stimulusMIPA23_2IFC_2019_Jun_17_1531_352,True,2019_Jun_17_1531,2IFC,2,MIPA23,
2IFC,26,0,26,0,2.9,-1,wrong answer,0.366991200019,True,False,stimulusMIPA23_2IFC_2019_Jun_17_1531_353,stimulusMIPA23_2IFC_2019_Jun_17_1531_354,True,2019_Jun_17_1531,2IFC,2,MIPA23,
2IFC,27,0,27,0,4.5,-1,wrong answer,0.233120099991,True,False,stimulusMIPA23_2IFC_2019_Jun_17_1531_355,stimulusMIPA23_2IFC_2019_Jun_17_1531_356,True,2019_Jun_17_1531,2IFC,2,MIPA23,
2IFC,28,0,28,0,5.7,-1,wrong answer,0.0333321999642,False,True,stimulusMIPA23_2IFC_2019_Jun_17_1531_357,stimulusMIPA23_2IFC_2019_Jun_17_1531_358,True,2019_Jun_17_1531,2IFC,2,MIPA23,
2IFC,29,0,29,0,2.9,-1,wrong answer,0.367409700004,False,True,stimulusMIPA23_2IFC_2019_Jun_17_1531_359,stimulusMIPA23_2IFC_2019_Jun_17_1531_360,True,2019_Jun_17_1531,2IFC,2,MIPA23,
2IFC,30,0,30,0,7.6,-1,wrong answer,0.300838200026,False,True,stimulusMIPA23_2IFC_2019_Jun_17_1531_361,stimulusMIPA23_2IFC_2019_Jun_17_1531_362,True,2019_Jun_17_1531,2IFC,2,MIPA23,
2IFC,31,0,31,0,9.6,-1,correct answer,0.132763399975,True,False,stimulusMIPA23_2IFC_2019_Jun_17_1531_363,stimulusMIPA23_2IFC_2019_Jun_17_1531_364,True,2019_Jun_17_1531,2IFC,2,MIPA23,
2IFC,32,0,32,0,4.5,-1,correct answer,0.367934899987,True,False,stimulusMIPA23_2IFC_2019_Jun_17_1531_365,stimulusMIPA23_2IFC_2019_Jun_17_1531_366,True,2019_Jun_17_1531,2IFC,2,MIPA23,
2IFC,33,0,33,0,8.6,-1,correct answer,0.667577499989,True,False,stimulusMIPA23_2IFC_2019_Jun_17_1531_367,stimulusMIPA23_2IFC_2019_Jun_17_1531_368,True,2019_Jun_17_1531,2IFC,2,MIPA23,
2IFC,34,0,34,0,2.9,-1,wrong answer,0.534403500031,False,True,stimulusMIPA23_2IFC_2019_Jun_17_1531_369,stimulusMIPA23_2IFC_2019_Jun_17_1531_370,True,2019_Jun_17_1531,2IFC,2,MIPA23,
2IFC,35,0,35,0,2.9,-1,wrong answer,0.468646400026,True,False,stimulusMIPA23_2IFC_2019_Jun_17_1531_371,stimulusMIPA23_2IFC_2019_Jun_17_1531_372,True,2019_Jun_17_1531,2IFC,2,MIPA23,
2IFC,36,0,36,0,5.7,-1,correct answer,0.70134629996,False,True,stimulusMIPA23_2IFC_2019_Jun_17_1531_373,stimulusMIPA23_2IFC_2019_Jun_17_1531_374,True,2019_Jun_17_1531,2IFC,2,MIPA23,
2IFC,37,0,37,0,7.6,-1,correct answer,0.800623700023,False,True,stimulusMIPA23_2IFC_2019_Jun_17_1531_375,stimulusMIPA23_2IFC_2019_Jun_17_1531_376,True,2019_Jun_17_1531,2IFC,2,MIPA23,
2IFC,38,0,38,0,7.6,-1,correct answer,0.500479899987,True,False,stimulusMIPA23_2IFC_2019_Jun_17_1531_377,stimulusMIPA23_2IFC_2019_Jun_17_1531_378,True,2019_Jun_17_1531,2IFC,2,MIPA23,
2IFC,39,0,39,0,4.5,-1,correct answer,0.568007200025,True,False,stimulusMIPA23_2IFC_2019_Jun_17_1531_379,stimulusMIPA23_2IFC_2019_Jun_17_1531_380,True,2019_Jun_17_1531,2IFC,2,MIPA23,
2IFC,40,0,40,0,9.6,-1,correct answer,0.500383900013,False,True,stimulusMIPA23_2IFC_2019_Jun_17_1531_381,stimulusMIPA23_2IFC_2019_Jun_17_1531_382,True,2019_Jun_17_1531,2IFC,2,MIPA23,
2IFC,41,0,41,0,7.6,-1,correct answer,0.600572600029,True,False,stimulusMIPA23_2IFC_2019_Jun_17_1531_383,stimulusMIPA23_2IFC_2019_Jun_17_1531_384,True,2019_Jun_17_1531,2IFC,2,MIPA23,
2IFC,42,0,42,0,7.6,-1,correct answer,0.667086799978,False,True,stimulusMIPA23_2IFC_2019_Jun_17_1531_385,stimulusMIPA23_2IFC_2019_Jun_17_1531_386,True,2019_Jun_17_1531,2IFC,2,MIPA23,
2IFC,43,0,43,0,6.7,-1,wrong answer,0.600681999989,False,True,stimulusMIPA23_2IFC_2019_Jun_17_1531_387,stimulusMIPA23_2IFC_2019_Jun_17_1531_388,True,2019_Jun_17_1531,2IFC,2,MIPA23,
2IFC,44,0,44,0,5.7,-1,wrong answer,0.566900699981,True,False,stimulusMIPA23_2IFC_2019_Jun_17_1531_389,stimulusMIPA23_2IFC_2019_Jun_17_1531_390,True,2019_Jun_17_1531,2IFC,2,MIPA23,
2IFC,45,0,45,0,7.6,-1,wrong answer,0.700836200034,False,True,stimulusMIPA23_2IFC_2019_Jun_17_1531_391,stimulusMIPA23_2IFC_2019_Jun_17_1531_392,True,2019_Jun_17_1531,2IFC,2,MIPA23,
2IFC,46,0,46,0,4.5,-1,correct answer,0.733964500017,False,True,stimulusMIPA23_2IFC_2019_Jun_17_1531_393,stimulusMIPA23_2IFC_2019_Jun_17_1531_394,True,2019_Jun_17_1531,2IFC,2,MIPA23,
2IFC,47,0,47,0,9.6,-1,wrong answer,0.435430400015,False,True,stimulusMIPA23_2IFC_2019_Jun_17_1531_395,stimulusMIPA23_2IFC_2019_Jun_17_1531_396,True,2019_Jun_17_1531,2IFC,2,MIPA23,
2IFC,48,0,48,0,6.7,-1,correct answer,0.367875199998,False,True,stimulusMIPA23_2IFC_2019_Jun_17_1531_397,stimulusMIPA23_2IFC_2019_Jun_17_1531_398,True,2019_Jun_17_1531,2IFC,2,MIPA23,
2IFC,49,0,49,0,9.6,-1,correct answer,0.334178199992,False,True,stimulusMIPA23_2IFC_2019_Jun_17_1531_399,stimulusMIPA23_2IFC_2019_Jun_17_1531_400,True,2019_Jun_17_1531,2IFC,2,MIPA23,
2IFC,50,0,50,0,9.6,-1,wrong answer,0.467669100035,False,True,stimulusMIPA23_2IFC_2019_Jun_17_1531_401,stimulusMIPA23_2IFC_2019_Jun_17_1531_402,True,2019_Jun_17_1531,2IFC,2,MIPA23,
2IFC,51,0,51,0,4.5,-1,no answer,-1,False,True,stimulusMIPA23_2IFC_2019_Jun_17_1531_403,stimulusMIPA23_2IFC_2019_Jun_17_1531_404,True,2019_Jun_17_1531,2IFC,2,MIPA23,
2IFC,52,0,52,0,7.6,-1,wrong answer,0.734173099976,True,False,stimulusMIPA23_2IFC_2019_Jun_17_1531_405,stimulusMIPA23_2IFC_2019_Jun_17_1531_406,True,2019_Jun_17_1531,2IFC,2,MIPA23,
2IFC,53,0,53,0,7.6,-1,correct answer,0.267194300017,False,True,stimulusMIPA23_2IFC_2019_Jun_17_1531_407,stimulusMIPA23_2IFC_2019_Jun_17_1531_408,True,2019_Jun_17_1531,2IFC,2,MIPA23,
2IFC,54,0,54,0,9.6,-1,correct answer,0.167638099985,True,False,stimulusMIPA23_2IFC_2019_Jun_17_1531_409,stimulusMIPA23_2IFC_2019_Jun_17_1531_410,True,2019_Jun_17_1531,2IFC,2,MIPA23,
2IFC,55,0,55,0,10.7,-1,wrong answer,0.333714100008,False,True,stimulusMIPA23_2IFC_2019_Jun_17_1531_411,stimulusMIPA23_2IFC_2019_Jun_17_1531_412,True,2019_Jun_17_1531,2IFC,2,MIPA23,
2IFC,56,0,56,0,2.9,-1,wrong answer,0.133980699989,True,False,stimulusMIPA23_2IFC_2019_Jun_17_1531_413,stimulusMIPA23_2IFC_2019_Jun_17_1531_414,True,2019_Jun_17_1531,2IFC,2,MIPA23,
2IFC,57,0,57,0,5.7,-1,correct answer,0.166990099999,False,True,stimulusMIPA23_2IFC_2019_Jun_17_1531_415,stimulusMIPA23_2IFC_2019_Jun_17_1531_416,True,2019_Jun_17_1531,2IFC,2,MIPA23,
2IFC,58,0,58,0,7.6,-1,correct answer,0.26756170002,False,True,stimulusMIPA23_2IFC_2019_Jun_17_1531_417,stimulusMIPA23_2IFC_2019_Jun_17_1531_418,True,2019_Jun_17_1531,2IFC,2,MIPA23,
2IFC,59,0,59,0,9.6,-1,correct answer,0.767666400003,False,True,stimulusMIPA23_2IFC_2019_Jun_17_1531_419,stimulusMIPA23_2IFC_2019_Jun_17_1531_420,True,2019_Jun_17_1531,2IFC,2,MIPA23,
2IFC,60,0,60,0,7.6,-1,correct answer,0.333546400012,False,True,stimulusMIPA23_2IFC_2019_Jun_17_1531_421,stimulusMIPA23_2IFC_2019_Jun_17_1531_422,True,2019_Jun_17_1531,2IFC,2,MIPA23,
2IFC,61,0,61,0,10.7,-1,correct answer,0.0334766999586,False,True,stimulusMIPA23_2IFC_2019_Jun_17_1531_423,stimulusMIPA23_2IFC_2019_Jun_17_1531_424,True,2019_Jun_17_1531,2IFC,2,MIPA23,
2IFC,62,0,62,0,8.6,-1,correct answer,0.367021799961,False,True,stimulusMIPA23_2IFC_2019_Jun_17_1531_425,stimulusMIPA23_2IFC_2019_Jun_17_1531_426,True,2019_Jun_17_1531,2IFC,2,MIPA23,
2IFC,63,0,63,0,2.9,-1,correct answer,0.300079600012,False,True,stimulusMIPA23_2IFC_2019_Jun_17_1531_427,stimulusMIPA23_2IFC_2019_Jun_17_1531_428,True,2019_Jun_17_1531,2IFC,2,MIPA23,
2IFC,64,0,64,0,7.6,-1,correct answer,0.467489500006,True,False,stimulusMIPA23_2IFC_2019_Jun_17_1531_429,stimulusMIPA23_2IFC_2019_Jun_17_1531_430,True,2019_Jun_17_1531,2IFC,2,MIPA23,
2IFC,65,0,65,0,8.6,-1,correct answer,0.300196499971,False,True,stimulusMIPA23_2IFC_2019_Jun_17_1531_431,stimulusMIPA23_2IFC_2019_Jun_17_1531_432,True,2019_Jun_17_1531,2IFC,2,MIPA23,
2IFC,66,0,66,0,2.9,-1,correct answer,0.233936200035,False,True,stimulusMIPA23_2IFC_2019_Jun_17_1531_433,stimulusMIPA23_2IFC_2019_Jun_17_1531_434,True,2019_Jun_17_1531,2IFC,2,MIPA23,
2IFC,67,0,67,0,8.6,-1,wrong answer,0.301152299973,False,True,stimulusMIPA23_2IFC_2019_Jun_17_1531_435,stimulusMIPA23_2IFC_2019_Jun_17_1531_436,True,2019_Jun_17_1531,2IFC,2,MIPA23,
2IFC,68,0,68,0,10.7,-1,correct answer,0.600556300022,False,True,stimulusMIPA23_2IFC_2019_Jun_17_1531_437,stimulusMIPA23_2IFC_2019_Jun_17_1531_438,True,2019_Jun_17_1531,2IFC,2,MIPA23,
2IFC,69,0,69,0,6.7,-1,wrong answer,0.633740900026,True,False,stimulusMIPA23_2IFC_2019_Jun_17_1531_439,stimulusMIPA23_2IFC_2019_Jun_17_1531_440,True,2019_Jun_17_1531,2IFC,2,MIPA23,
2IFC,70,0,70,0,10.7,-1,correct answer,0.701453999965,False,True,stimulusMIPA23_2IFC_2019_Jun_17_1531_441,stimulusMIPA23_2IFC_2019_Jun_17_1531_442,True,2019_Jun_17_1531,2IFC,2,MIPA23,
2IFC,71,0,71,0,5.7,-1,wrong answer,0.46720480005,False,True,stimulusMIPA23_2IFC_2019_Jun_17_1531_443,stimulusMIPA23_2IFC_2019_Jun_17_1531_444,True,2019_Jun_17_1531,2IFC,2,MIPA23,
2IFC,72,0,72,0,6.7,-1,wrong answer,0.533517100033,True,False,stimulusMIPA23_2IFC_2019_Jun_17_1531_445,stimulusMIPA23_2IFC_2019_Jun_17_1531_446,True,2019_Jun_17_1531,2IFC,2,MIPA23,
2IFC,73,0,73,0,7.6,-1,wrong answer,0.233636599965,True,False,stimulusMIPA23_2IFC_2019_Jun_17_1531_447,stimulusMIPA23_2IFC_2019_Jun_17_1531_448,True,2019_Jun_17_1531,2IFC,2,MIPA23,
2IFC,74,0,74,0,6.7,-1,wrong answer,0.800052000035,False,True,stimulusMIPA23_2IFC_2019_Jun_17_1531_449,stimulusMIPA23_2IFC_2019_Jun_17_1531_450,True,2019_Jun_17_1531,2IFC,2,MIPA23,
2IFC,0,0,0,0,2.9,-1,correct answer,0.367380599957,False,True,stimulusMIPA23_2IFC_2019_Jun_17_1531_451,stimulusMIPA23_2IFC_2019_Jun_17_1531_452,True,2019_Jun_17_1531,2IFC,2,MIPA23,
2IFC,1,0,1,0,2.9,-1,correct answer,0.333937799965,False,True,stimulusMIPA23_2IFC_2019_Jun_17_1531_453,stimulusMIPA23_2IFC_2019_Jun_17_1531_454,True,2019_Jun_17_1531,2IFC,2,MIPA23,
2IFC,2,0,2,0,5.7,-1,correct answer,0.367082300014,False,True,stimulusMIPA23_2IFC_2019_Jun_17_1531_455,stimulusMIPA23_2IFC_2019_Jun_17_1531_456,True,2019_Jun_17_1531,2IFC,2,MIPA23,
2IFC,3,0,3,0,5.7,-1,correct answer,0.267156999966,False,True,stimulusMIPA23_2IFC_2019_Jun_17_1531_457,stimulusMIPA23_2IFC_2019_Jun_17_1531_458,True,2019_Jun_17_1531,2IFC,2,MIPA23,
2IFC,4,0,4,0,7.6,-1,correct answer,0.367501599947,True,False,stimulusMIPA23_2IFC_2019_Jun_17_1531_459,stimulusMIPA23_2IFC_2019_Jun_17_1531_460,True,2019_Jun_17_1531,2IFC,2,MIPA23,
2IFC,5,0,5,0,2.9,-1,correct answer,0.400409299997,True,False,stimulusMIPA23_2IFC_2019_Jun_17_1531_461,stimulusMIPA23_2IFC_2019_Jun_17_1531_462,True,2019_Jun_17_1531,2IFC,2,MIPA23,
2IFC,6,0,6,0,4.5,-1,correct answer,0.300455699966,False,True,stimulusMIPA23_2IFC_2019_Jun_17_1531_463,stimulusMIPA23_2IFC_2019_Jun_17_1531_464,True,2019_Jun_17_1531,2IFC,2,MIPA23,
2IFC,7,0,7,0,4.5,-1,correct answer,0.433219700004,False,True,stimulusMIPA23_2IFC_2019_Jun_17_1531_465,stimulusMIPA23_2IFC_2019_Jun_17_1531_466,True,2019_Jun_17_1531,2IFC,2,MIPA23,
2IFC,8,0,8,0,5.7,-1,correct answer,0.234701599984,False,True,stimulusMIPA23_2IFC_2019_Jun_17_1531_467,stimulusMIPA23_2IFC_2019_Jun_17_1531_468,True,2019_Jun_17_1531,2IFC,2,MIPA23,
2IFC,9,0,9,0,2.9,-1,correct answer,0.267865800008,False,True,stimulusMIPA23_2IFC_2019_Jun_17_1531_469,stimulusMIPA23_2IFC_2019_Jun_17_1531_470,True,2019_Jun_17_1531,2IFC,2,MIPA23,
2IFC,10,0,10,0,4.5,-1,wrong answer,0.266936299973,True,False,stimulusMIPA23_2IFC_2019_Jun_17_1531_471,stimulusMIPA23_2IFC_2019_Jun_17_1531_472,True,2019_Jun_17_1531,2IFC,2,MIPA23,
2IFC,11,0,11,0,4.5,-1,correct answer,0.734788800008,False,True,stimulusMIPA23_2IFC_2019_Jun_17_1531_473,stimulusMIPA23_2IFC_2019_Jun_17_1531_474,True,2019_Jun_17_1531,2IFC,2,MIPA23,
2IFC,12,0,12,0,8.6,-1,correct answer,0.300266200036,True,False,stimulusMIPA23_2IFC_2019_Jun_17_1531_475,stimulusMIPA23_2IFC_2019_Jun_17_1531_476,True,2019_Jun_17_1531,2IFC,2,MIPA23,
2IFC,13,0,13,0,8.6,-1,correct answer,0.434272099985,True,False,stimulusMIPA23_2IFC_2019_Jun_17_1531_477,stimulusMIPA23_2IFC_2019_Jun_17_1531_478,True,2019_Jun_17_1531,2IFC,2,MIPA23,
2IFC,14,0,14,0,7.6,-1,correct answer,0.366584799951,True,False,stimulusMIPA23_2IFC_2019_Jun_17_1531_479,stimulusMIPA23_2IFC_2019_Jun_17_1531_480,True,2019_Jun_17_1531,2IFC,2,MIPA23,
2IFC,15,0,15,0,7.6,-1,correct answer,0.299854500045,False,True,stimulusMIPA23_2IFC_2019_Jun_17_1531_481,stimulusMIPA23_2IFC_2019_Jun_17_1531_482,True,2019_Jun_17_1531,2IFC,2,MIPA23,
2IFC,16,0,16,0,2.9,-1,correct answer,0.53362839995,False,True,stimulusMIPA23_2IFC_2019_Jun_17_1531_483,stimulusMIPA23_2IFC_2019_Jun_17_1531_484,True,2019_Jun_17_1531,2IFC,2,MIPA23,
2IFC,17,0,17,0,8.6,-1,correct answer,0.0676584999892,True,False,stimulusMIPA23_2IFC_2019_Jun_17_1531_485,stimulusMIPA23_2IFC_2019_Jun_17_1531_486,True,2019_Jun_17_1531,2IFC,2,MIPA23,
2IFC,18,0,18,0,9.6,-1,correct answer,0.234163300018,True,False,stimulusMIPA23_2IFC_2019_Jun_17_1531_487,stimulusMIPA23_2IFC_2019_Jun_17_1531_488,True,2019_Jun_17_1531,2IFC,2,MIPA23,
2IFC,19,0,19,0,9.6,-1,correct answer,0.367363500001,False,True,stimulusMIPA23_2IFC_2019_Jun_17_1531_489,stimulusMIPA23_2IFC_2019_Jun_17_1531_490,True,2019_Jun_17_1531,2IFC,2,MIPA23,
2IFC,20,0,20,0,4.5,-1,correct answer,0.33378809999,False,True,stimulusMIPA23_2IFC_2019_Jun_17_1531_491,stimulusMIPA23_2IFC_2019_Jun_17_1531_492,True,2019_Jun_17_1531,2IFC,2,MIPA23,
2IFC,21,0,21,0,7.6,-1,wrong answer,0.300194499956,True,False,stimulusMIPA23_2IFC_2019_Jun_17_1531_493,stimulusMIPA23_2IFC_2019_Jun_17_1531_494,True,2019_Jun_17_1531,2IFC,2,MIPA23,
2IFC,22,0,22,0,8.6,-1,correct answer,0.400126199995,False,True,stimulusMIPA23_2IFC_2019_Jun_17_1531_495,stimulusMIPA23_2IFC_2019_Jun_17_1531_496,True,2019_Jun_17_1531,2IFC,2,MIPA23,
2IFC,23,0,23,0,9.6,-1,correct answer,0.268358200032,True,False,stimulusMIPA23_2IFC_2019_Jun_17_1531_497,stimulusMIPA23_2IFC_2019_Jun_17_1531_498,True,2019_Jun_17_1531,2IFC,2,MIPA23,
2IFC,24,0,24,0,7.6,-1,correct answer,0.299464299984,True,False,stimulusMIPA23_2IFC_2019_Jun_17_1531_499,stimulusMIPA23_2IFC_2019_Jun_17_1531_500,True,2019_Jun_17_1531,2IFC,2,MIPA23,
2IFC,25,0,25,0,10.7,-1,correct answer,0.434692799987,True,False,stimulusMIPA23_2IFC_2019_Jun_17_1531_501,stimulusMIPA23_2IFC_2019_Jun_17_1531_502,True,2019_Jun_17_1531,2IFC,2,MIPA23,
2IFC,26,0,26,0,6.7,-1,correct answer,0.433817600016,True,False,stimulusMIPA23_2IFC_2019_Jun_17_1531_503,stimulusMIPA23_2IFC_2019_Jun_17_1531_504,True,2019_Jun_17_1531,2IFC,2,MIPA23,
2IFC,27,0,27,0,7.6,-1,wrong answer,0.601768099994,False,True,stimulusMIPA23_2IFC_2019_Jun_17_1531_505,stimulusMIPA23_2IFC_2019_Jun_17_1531_506,True,2019_Jun_17_1531,2IFC,2,MIPA23,
2IFC,28,0,28,0,9.6,-1,correct answer,0.266555100039,True,False,stimulusMIPA23_2IFC_2019_Jun_17_1531_507,stimulusMIPA23_2IFC_2019_Jun_17_1531_508,True,2019_Jun_17_1531,2IFC,2,MIPA23,
2IFC,29,0,29,0,7.6,-1,correct answer,0.267094200011,False,True,stimulusMIPA23_2IFC_2019_Jun_17_1531_509,stimulusMIPA23_2IFC_2019_Jun_17_1531_510,True,2019_Jun_17_1531,2IFC,2,MIPA23,
2IFC,30,0,30,0,8.6,-1,correct answer,0.368013800005,False,True,stimulusMIPA23_2IFC_2019_Jun_17_1531_511,stimulusMIPA23_2IFC_2019_Jun_17_1531_512,True,2019_Jun_17_1531,2IFC,2,MIPA23,
2IFC,31,0,31,0,2.9,-1,correct answer,0.300883299962,False,True,stimulusMIPA23_2IFC_2019_Jun_17_1531_513,stimulusMIPA23_2IFC_2019_Jun_17_1531_514,True,2019_Jun_17_1531,2IFC,2,MIPA23,
2IFC,32,0,32,0,8.6,-1,correct answer,0.200938199996,True,False,stimulusMIPA23_2IFC_2019_Jun_17_1531_515,stimulusMIPA23_2IFC_2019_Jun_17_1531_516,True,2019_Jun_17_1531,2IFC,2,MIPA23,
2IFC,33,0,33,0,5.7,-1,correct answer,0.300779200043,True,False,stimulusMIPA23_2IFC_2019_Jun_17_1531_517,stimulusMIPA23_2IFC_2019_Jun_17_1531_518,True,2019_Jun_17_1531,2IFC,2,MIPA23,
2IFC,34,0,34,0,8.6,-1,correct answer,0.400677500002,True,False,stimulusMIPA23_2IFC_2019_Jun_17_1531_519,stimulusMIPA23_2IFC_2019_Jun_17_1531_520,True,2019_Jun_17_1531,2IFC,2,MIPA23,
2IFC,35,0,35,0,10.7,-1,correct answer,0.2326933,False,True,stimulusMIPA23_2IFC_2019_Jun_17_1531_521,stimulusMIPA23_2IFC_2019_Jun_17_1531_522,True,2019_Jun_17_1531,2IFC,2,MIPA23,
2IFC,36,0,36,0,8.6,-1,correct answer,0.332434199983,True,False,stimulusMIPA23_2IFC_2019_Jun_17_1531_523,stimulusMIPA23_2IFC_2019_Jun_17_1531_524,True,2019_Jun_17_1531,2IFC,2,MIPA23,
2IFC,37,0,37,0,5.7,-1,correct answer,0.234419899993,False,True,stimulusMIPA23_2IFC_2019_Jun_17_1531_525,stimulusMIPA23_2IFC_2019_Jun_17_1531_526,True,2019_Jun_17_1531,2IFC,2,MIPA23,
2IFC,38,0,38,0,6.7,-1,wrong answer,0.300938899978,True,False,stimulusMIPA23_2IFC_2019_Jun_17_1531_527,stimulusMIPA23_2IFC_2019_Jun_17_1531_528,True,2019_Jun_17_1531,2IFC,2,MIPA23,
2IFC,39,0,39,0,8.6,-1,wrong answer,0.267160399992,False,True,stimulusMIPA23_2IFC_2019_Jun_17_1531_529,stimulusMIPA23_2IFC_2019_Jun_17_1531_530,True,2019_Jun_17_1531,2IFC,2,MIPA23,
2IFC,40,0,40,0,5.7,-1,correct answer,0.30038109998,False,True,stimulusMIPA23_2IFC_2019_Jun_17_1531_531,stimulusMIPA23_2IFC_2019_Jun_17_1531_532,True,2019_Jun_17_1531,2IFC,2,MIPA23,
2IFC,41,0,41,0,4.5,-1,correct answer,0.267958000011,False,True,stimulusMIPA23_2IFC_2019_Jun_17_1531_533,stimulusMIPA23_2IFC_2019_Jun_17_1531_534,True,2019_Jun_17_1531,2IFC,2,MIPA23,
2IFC,42,0,42,0,5.7,-1,wrong answer,0.333272500022,True,False,stimulusMIPA23_2IFC_2019_Jun_17_1531_535,stimulusMIPA23_2IFC_2019_Jun_17_1531_536,True,2019_Jun_17_1531,2IFC,2,MIPA23,
2IFC,43,0,43,0,4.5,-1,correct answer,0.334218200005,True,False,stimulusMIPA23_2IFC_2019_Jun_17_1531_537,stimulusMIPA23_2IFC_2019_Jun_17_1531_538,True,2019_Jun_17_1531,2IFC,2,MIPA23,
2IFC,44,0,44,0,4.5,-1,correct answer,0.567507100001,False,True,stimulusMIPA23_2IFC_2019_Jun_17_1531_539,stimulusMIPA23_2IFC_2019_Jun_17_1531_540,True,2019_Jun_17_1531,2IFC,2,MIPA23,
2IFC,45,0,45,0,4.5,-1,correct answer,0.567577899958,False,True,stimulusMIPA23_2IFC_2019_Jun_17_1531_541,stimulusMIPA23_2IFC_2019_Jun_17_1531_542,True,2019_Jun_17_1531,2IFC,2,MIPA23,
2IFC,46,0,46,0,7.6,-1,correct answer,0.30062709999,True,False,stimulusMIPA23_2IFC_2019_Jun_17_1531_543,stimulusMIPA23_2IFC_2019_Jun_17_1531_544,True,2019_Jun_17_1531,2IFC,2,MIPA23,
2IFC,47,0,47,0,4.5,-1,wrong answer,0.133733999974,True,False,stimulusMIPA23_2IFC_2019_Jun_17_1531_545,stimulusMIPA23_2IFC_2019_Jun_17_1531_546,True,2019_Jun_17_1531,2IFC,2,MIPA23,
2IFC,48,0,48,0,8.6,-1,correct answer,0.267979900003,False,True,stimulusMIPA23_2IFC_2019_Jun_17_1531_547,stimulusMIPA23_2IFC_2019_Jun_17_1531_548,True,2019_Jun_17_1531,2IFC,2,MIPA23,
2IFC,49,0,49,0,7.6,-1,correct answer,0.435074799985,False,True,stimulusMIPA23_2IFC_2019_Jun_17_1531_549,stimulusMIPA23_2IFC_2019_Jun_17_1531_550,True,2019_Jun_17_1531,2IFC,2,MIPA23,
2IFC,50,0,50,0,5.7,-1,wrong answer,0.634181499947,True,False,stimulusMIPA23_2IFC_2019_Jun_17_1531_551,stimulusMIPA23_2IFC_2019_Jun_17_1531_552,True,2019_Jun_17_1531,2IFC,2,MIPA23,
2IFC,51,0,51,0,4.5,-1,correct answer,0.266848200001,False,True,stimulusMIPA23_2IFC_2019_Jun_17_1531_553,stimulusMIPA23_2IFC_2019_Jun_17_1531_554,True,2019_Jun_17_1531,2IFC,2,MIPA23,
2IFC,52,0,52,0,8.6,-1,wrong answer,0.568318500009,True,False,stimulusMIPA23_2IFC_2019_Jun_17_1531_555,stimulusMIPA23_2IFC_2019_Jun_17_1531_556,True,2019_Jun_17_1531,2IFC,2,MIPA23,
2IFC,53,0,53,0,6.7,-1,correct answer,0.200604000012,True,False,stimulusMIPA23_2IFC_2019_Jun_17_1531_557,stimulusMIPA23_2IFC_2019_Jun_17_1531_558,True,2019_Jun_17_1531,2IFC,2,MIPA23,
2IFC,54,0,54,0,10.7,-1,correct answer,0.499542200007,True,False,stimulusMIPA23_2IFC_2019_Jun_17_1531_559,stimulusMIPA23_2IFC_2019_Jun_17_1531_560,True,2019_Jun_17_1531,2IFC,2,MIPA23,
2IFC,55,0,55,0,7.6,-1,correct answer,0.501018200011,False,True,stimulusMIPA23_2IFC_2019_Jun_17_1531_561,stimulusMIPA23_2IFC_2019_Jun_17_1531_562,True,2019_Jun_17_1531,2IFC,2,MIPA23,
2IFC,56,0,56,0,10.7,-1,correct answer,0.298176999961,False,True,stimulusMIPA23_2IFC_2019_Jun_17_1531_563,stimulusMIPA23_2IFC_2019_Jun_17_1531_564,True,2019_Jun_17_1531,2IFC,2,MIPA23,
2IFC,57,0,57,0,7.6,-1,correct answer,0.300272900029,True,False,stimulusMIPA23_2IFC_2019_Jun_17_1531_565,stimulusMIPA23_2IFC_2019_Jun_17_1531_566,True,2019_Jun_17_1531,2IFC,2,MIPA23,
2IFC,58,0,58,0,9.6,-1,correct answer,0.267437600007,True,False,stimulusMIPA23_2IFC_2019_Jun_17_1531_567,stimulusMIPA23_2IFC_2019_Jun_17_1531_568,True,2019_Jun_17_1531,2IFC,2,MIPA23,
2IFC,59,0,59,0,8.6,-1,correct answer,0.233912999975,False,True,stimulusMIPA23_2IFC_2019_Jun_17_1531_569,stimulusMIPA23_2IFC_2019_Jun_17_1531_570,True,2019_Jun_17_1531,2IFC,2,MIPA23,
2IFC,60,0,60,0,8.6,-1,correct answer,0.400789899984,True,False,stimulusMIPA23_2IFC_2019_Jun_17_1531_571,stimulusMIPA23_2IFC_2019_Jun_17_1531_572,True,2019_Jun_17_1531,2IFC,2,MIPA23,
2IFC,61,0,61,0,8.6,-1,correct answer,0.233941300015,True,False,stimulusMIPA23_2IFC_2019_Jun_17_1531_573,stimulusMIPA23_2IFC_2019_Jun_17_1531_574,True,2019_Jun_17_1531,2IFC,2,MIPA23,
2IFC,62,0,62,0,4.5,-1,correct answer,0.233038300008,False,True,stimulusMIPA23_2IFC_2019_Jun_17_1531_575,stimulusMIPA23_2IFC_2019_Jun_17_1531_576,True,2019_Jun_17_1531,2IFC,2,MIPA23,
2IFC,63,0,63,0,8.6,-1,correct answer,0.266636200016,True,False,stimulusMIPA23_2IFC_2019_Jun_17_1531_577,stimulusMIPA23_2IFC_2019_Jun_17_1531_578,True,2019_Jun_17_1531,2IFC,2,MIPA23,
2IFC,64,0,64,0,4.5,-1,wrong answer,0.267011599964,False,True,stimulusMIPA23_2IFC_2019_Jun_17_1531_579,stimulusMIPA23_2IFC_2019_Jun_17_1531_580,True,2019_Jun_17_1531,2IFC,2,MIPA23,
2IFC,65,0,65,0,5.7,-1,correct answer,0.333417800022,True,False,stimulusMIPA23_2IFC_2019_Jun_17_1531_581,stimulusMIPA23_2IFC_2019_Jun_17_1531_582,True,2019_Jun_17_1531,2IFC,2,MIPA23,
2IFC,66,0,66,0,5.7,-1,correct answer,0.233291199955,False,True,stimulusMIPA23_2IFC_2019_Jun_17_1531_583,stimulusMIPA23_2IFC_2019_Jun_17_1531_584,True,2019_Jun_17_1531,2IFC,2,MIPA23,
2IFC,67,0,67,0,5.7,-1,wrong answer,0.200463999994,True,False,stimulusMIPA23_2IFC_2019_Jun_17_1531_585,stimulusMIPA23_2IFC_2019_Jun_17_1531_586,True,2019_Jun_17_1531,2IFC,2,MIPA23,
2IFC,68,0,68,0,9.6,-1,correct answer,0.266967300035,False,True,stimulusMIPA23_2IFC_2019_Jun_17_1531_587,stimulusMIPA23_2IFC_2019_Jun_17_1531_588,True,2019_Jun_17_1531,2IFC,2,MIPA23,
2IFC,69,0,69,0,7.6,-1,correct answer,0.534482200048,False,True,stimulusMIPA23_2IFC_2019_Jun_17_1531_589,stimulusMIPA23_2IFC_2019_Jun_17_1531_590,True,2019_Jun_17_1531,2IFC,2,MIPA23,
2IFC,70,0,70,0,9.6,-1,correct answer,0.234555699979,True,False,stimulusMIPA23_2IFC_2019_Jun_17_1531_591,stimulusMIPA23_2IFC_2019_Jun_17_1531_592,True,2019_Jun_17_1531,2IFC,2,MIPA23,
2IFC,71,0,71,0,9.6,-1,correct answer,0.201622099965,False,True,stimulusMIPA23_2IFC_2019_Jun_17_1531_593,stimulusMIPA23_2IFC_2019_Jun_17_1531_594,True,2019_Jun_17_1531,2IFC,2,MIPA23,
2IFC,72,0,72,0,5.7,-1,correct answer,0.267043300031,False,True,stimulusMIPA23_2IFC_2019_Jun_17_1531_595,stimulusMIPA23_2IFC_2019_Jun_17_1531_596,True,2019_Jun_17_1531,2IFC,2,MIPA23,
2IFC,73,0,73,0,9.6,-1,correct answer,0.400680800027,False,True,stimulusMIPA23_2IFC_2019_Jun_17_1531_597,stimulusMIPA23_2IFC_2019_Jun_17_1531_598,True,2019_Jun_17_1531,2IFC,2,MIPA23,
2IFC,74,0,74,0,7.6,-1,correct answer,0.466365200002,False,True,stimulusMIPA23_2IFC_2019_Jun_17_1531_599,stimulusMIPA23_2IFC_2019_Jun_17_1531_600,True,2019_Jun_17_1531,2IFC,2,MIPA23,
2IFC,0,0,0,0,2.9,-1,wrong answer,0.300554800022,True,False,stimulusMIPA23_2IFC_2019_Jun_17_1531_601,stimulusMIPA23_2IFC_2019_Jun_17_1531_602,True,2019_Jun_17_1531,2IFC,2,MIPA23,
2IFC,1,0,1,0,2.9,-1,correct answer,0.333759100002,True,False,stimulusMIPA23_2IFC_2019_Jun_17_1531_603,stimulusMIPA23_2IFC_2019_Jun_17_1531_604,True,2019_Jun_17_1531,2IFC,2,MIPA23,
2IFC,2,0,2,0,6.7,-1,correct answer,0.433743400034,True,False,stimulusMIPA23_2IFC_2019_Jun_17_1531_605,stimulusMIPA23_2IFC_2019_Jun_17_1531_606,True,2019_Jun_17_1531,2IFC,2,MIPA23,
2IFC,3,0,3,0,7.6,-1,correct answer,0.200584899983,False,True,stimulusMIPA23_2IFC_2019_Jun_17_1531_607,stimulusMIPA23_2IFC_2019_Jun_17_1531_608,True,2019_Jun_17_1531,2IFC,2,MIPA23,
2IFC,4,0,4,0,2.9,-1,correct answer,0.269402100006,False,True,stimulusMIPA23_2IFC_2019_Jun_17_1531_609,stimulusMIPA23_2IFC_2019_Jun_17_1531_610,True,2019_Jun_17_1531,2IFC,2,MIPA23,
2IFC,5,0,5,0,8.6,-1,correct answer,0.434124200023,False,True,stimulusMIPA23_2IFC_2019_Jun_17_1531_611,stimulusMIPA23_2IFC_2019_Jun_17_1531_612,True,2019_Jun_17_1531,2IFC,2,MIPA23,
2IFC,6,0,6,0,8.6,-1,correct answer,0.667988300032,False,True,stimulusMIPA23_2IFC_2019_Jun_17_1531_613,stimulusMIPA23_2IFC_2019_Jun_17_1531_614,True,2019_Jun_17_1531,2IFC,2,MIPA23,
2IFC,7,0,7,0,7.6,-1,correct answer,0.367342800018,True,False,stimulusMIPA23_2IFC_2019_Jun_17_1531_615,stimulusMIPA23_2IFC_2019_Jun_17_1531_616,True,2019_Jun_17_1531,2IFC,2,MIPA23,
2IFC,8,0,8,0,7.6,-1,wrong answer,0.533484599961,True,False,stimulusMIPA23_2IFC_2019_Jun_17_1531_617,stimulusMIPA23_2IFC_2019_Jun_17_1531_618,True,2019_Jun_17_1531,2IFC,2,MIPA23,
2IFC,9,0,9,0,2.9,-1,wrong answer,0.534136300033,True,False,stimulusMIPA23_2IFC_2019_Jun_17_1531_619,stimulusMIPA23_2IFC_2019_Jun_17_1531_620,True,2019_Jun_17_1531,2IFC,2,MIPA23,
2IFC,10,0,10,0,8.6,-1,correct answer,0.268411899975,False,True,stimulusMIPA23_2IFC_2019_Jun_17_1531_621,stimulusMIPA23_2IFC_2019_Jun_17_1531_622,True,2019_Jun_17_1531,2IFC,2,MIPA23,
2IFC,11,0,11,0,7.6,-1,correct answer,0.300322199997,False,True,stimulusMIPA23_2IFC_2019_Jun_17_1531_623,stimulusMIPA23_2IFC_2019_Jun_17_1531_624,True,2019_Jun_17_1531,2IFC,2,MIPA23,
2IFC,12,0,12,0,2.9,-1,correct answer,0.334017899993,True,False,stimulusMIPA23_2IFC_2019_Jun_17_1531_625,stimulusMIPA23_2IFC_2019_Jun_17_1531_626,True,2019_Jun_17_1531,2IFC,2,MIPA23,
2IFC,13,0,13,0,7.6,-1,correct answer,0.366294600011,True,False,stimulusMIPA23_2IFC_2019_Jun_17_1531_627,stimulusMIPA23_2IFC_2019_Jun_17_1531_628,True,2019_Jun_17_1531,2IFC,2,MIPA23,
2IFC,14,0,14,0,10.7,-1,correct answer,0.467248599976,False,True,stimulusMIPA23_2IFC_2019_Jun_17_1531_629,stimulusMIPA23_2IFC_2019_Jun_17_1531_630,True,2019_Jun_17_1531,2IFC,2,MIPA23,
2IFC,15,0,15,0,5.7,-1,wrong answer,0.300332300016,False,True,stimulusMIPA23_2IFC_2019_Jun_17_1531_631,stimulusMIPA23_2IFC_2019_Jun_17_1531_632,True,2019_Jun_17_1531,2IFC,2,MIPA23,
2IFC,16,0,16,0,8.6,-1,correct answer,0.300959300017,False,True,stimulusMIPA23_2IFC_2019_Jun_17_1531_633,stimulusMIPA23_2IFC_2019_Jun_17_1531_634,True,2019_Jun_17_1531,2IFC,2,MIPA23,
2IFC,17,0,17,0,2.9,-1,correct answer,0.200676699984,False,True,stimulusMIPA23_2IFC_2019_Jun_17_1531_635,stimulusMIPA23_2IFC_2019_Jun_17_1531_636,True,2019_Jun_17_1531,2IFC,2,MIPA23,
2IFC,18,0,18,0,4.5,-1,correct answer,0.300672599988,True,False,stimulusMIPA23_2IFC_2019_Jun_17_1531_637,stimulusMIPA23_2IFC_2019_Jun_17_1531_638,True,2019_Jun_17_1531,2IFC,2,MIPA23,
2IFC,19,0,19,0,2.9,-1,correct answer,0.36706889997,False,True,stimulusMIPA23_2IFC_2019_Jun_17_1531_639,stimulusMIPA23_2IFC_2019_Jun_17_1531_640,True,2019_Jun_17_1531,2IFC,2,MIPA23,
2IFC,20,0,20,0,9.6,-1,correct answer,0.300385300012,True,False,stimulusMIPA23_2IFC_2019_Jun_17_1531_641,stimulusMIPA23_2IFC_2019_Jun_17_1531_642,True,2019_Jun_17_1531,2IFC,2,MIPA23,
2IFC,21,0,21,0,8.6,-1,correct answer,0.267223800009,True,False,stimulusMIPA23_2IFC_2019_Jun_17_1531_643,stimulusMIPA23_2IFC_2019_Jun_17_1531_644,True,2019_Jun_17_1531,2IFC,2,MIPA23,
2IFC,22,0,22,0,10.7,-1,wrong answer,0.367299699981,False,True,stimulusMIPA23_2IFC_2019_Jun_17_1531_645,stimulusMIPA23_2IFC_2019_Jun_17_1531_646,True,2019_Jun_17_1531,2IFC,2,MIPA23,
2IFC,23,0,23,0,10.7,-1,correct answer,0.400630999997,False,True,stimulusMIPA23_2IFC_2019_Jun_17_1531_647,stimulusMIPA23_2IFC_2019_Jun_17_1531_648,True,2019_Jun_17_1531,2IFC,2,MIPA23,
2IFC,24,0,24,0,8.6,-1,correct answer,0.200925800018,True,False,stimulusMIPA23_2IFC_2019_Jun_17_1531_649,stimulusMIPA23_2IFC_2019_Jun_17_1531_650,True,2019_Jun_17_1531,2IFC,2,MIPA23,
2IFC,25,0,25,0,5.7,-1,wrong answer,0.232847100007,True,False,stimulusMIPA23_2IFC_2019_Jun_17_1531_651,stimulusMIPA23_2IFC_2019_Jun_17_1531_652,True,2019_Jun_17_1531,2IFC,2,MIPA23,
2IFC,26,0,26,0,6.7,-1,correct answer,0.167492099979,True,False,stimulusMIPA23_2IFC_2019_Jun_17_1531_653,stimulusMIPA23_2IFC_2019_Jun_17_1531_654,True,2019_Jun_17_1531,2IFC,2,MIPA23,
2IFC,27,0,27,0,9.6,-1,correct answer,0.200273900002,False,True,stimulusMIPA23_2IFC_2019_Jun_17_1531_655,stimulusMIPA23_2IFC_2019_Jun_17_1531_656,True,2019_Jun_17_1531,2IFC,2,MIPA23,
2IFC,28,0,28,0,6.7,-1,correct answer,0.232518000004,False,True,stimulusMIPA23_2IFC_2019_Jun_17_1531_657,stimulusMIPA23_2IFC_2019_Jun_17_1531_658,True,2019_Jun_17_1531,2IFC,2,MIPA23,
2IFC,29,0,29,0,9.6,-1,correct answer,0.267261000001,True,False,stimulusMIPA23_2IFC_2019_Jun_17_1531_659,stimulusMIPA23_2IFC_2019_Jun_17_1531_660,True,2019_Jun_17_1531,2IFC,2,MIPA23,
2IFC,30,0,30,0,4.5,-1,wrong answer,0.10024270002,True,False,stimulusMIPA23_2IFC_2019_Jun_17_1531_661,stimulusMIPA23_2IFC_2019_Jun_17_1531_662,True,2019_Jun_17_1531,2IFC,2,MIPA23,
2IFC,31,0,31,0,7.6,-1,wrong answer,0.234017700015,False,True,stimulusMIPA23_2IFC_2019_Jun_17_1531_663,stimulusMIPA23_2IFC_2019_Jun_17_1531_664,True,2019_Jun_17_1531,2IFC,2,MIPA23,
2IFC,32,0,32,0,5.7,-1,correct answer,0.267215700005,False,True,stimulusMIPA23_2IFC_2019_Jun_17_1531_665,stimulusMIPA23_2IFC_2019_Jun_17_1531_666,True,2019_Jun_17_1531,2IFC,2,MIPA23,
2IFC,33,0,33,0,4.5,-1,wrong answer,0.167378099984,True,False,stimulusMIPA23_2IFC_2019_Jun_17_1531_667,stimulusMIPA23_2IFC_2019_Jun_17_1531_668,True,2019_Jun_17_1531,2IFC,2,MIPA23,
2IFC,34,0,34,0,6.7,-1,wrong answer,0.300570500025,False,True,stimulusMIPA23_2IFC_2019_Jun_17_1531_669,stimulusMIPA23_2IFC_2019_Jun_17_1531_670,True,2019_Jun_17_1531,2IFC,2,MIPA23,
2IFC,35,0,35,0,4.5,-1,wrong answer,0.300565599988,True,False,stimulusMIPA23_2IFC_2019_Jun_17_1531_671,stimulusMIPA23_2IFC_2019_Jun_17_1531_672,True,2019_Jun_17_1531,2IFC,2,MIPA23,
2IFC,36,0,36,0,2.9,-1,wrong answer,0.333861700026,True,False,stimulusMIPA23_2IFC_2019_Jun_17_1531_673,stimulusMIPA23_2IFC_2019_Jun_17_1531_674,True,2019_Jun_17_1531,2IFC,2,MIPA23,
2IFC,37,0,37,0,6.7,-1,correct answer,0.46722479997,False,True,stimulusMIPA23_2IFC_2019_Jun_17_1531_675,stimulusMIPA23_2IFC_2019_Jun_17_1531_676,True,2019_Jun_17_1531,2IFC,2,MIPA23,
2IFC,38,0,38,0,10.7,-1,correct answer,0.300711699994,False,True,stimulusMIPA23_2IFC_2019_Jun_17_1531_677,stimulusMIPA23_2IFC_2019_Jun_17_1531_678,True,2019_Jun_17_1531,2IFC,2,MIPA23,
2IFC,39,0,39,0,8.6,-1,correct answer,0.567274199973,False,True,stimulusMIPA23_2IFC_2019_Jun_17_1531_679,stimulusMIPA23_2IFC_2019_Jun_17_1531_680,True,2019_Jun_17_1531,2IFC,2,MIPA23,
2IFC,40,0,40,0,2.9,-1,correct answer,0.534255400009,False,True,stimulusMIPA23_2IFC_2019_Jun_17_1531_681,stimulusMIPA23_2IFC_2019_Jun_17_1531_682,True,2019_Jun_17_1531,2IFC,2,MIPA23,
2IFC,41,0,41,0,10.7,-1,wrong answer,0.533921900031,True,False,stimulusMIPA23_2IFC_2019_Jun_17_1531_683,stimulusMIPA23_2IFC_2019_Jun_17_1531_684,True,2019_Jun_17_1531,2IFC,2,MIPA23,
2IFC,42,0,42,0,7.6,-1,correct answer,0.63321869995,False,True,stimulusMIPA23_2IFC_2019_Jun_17_1531_685,stimulusMIPA23_2IFC_2019_Jun_17_1531_686,True,2019_Jun_17_1531,2IFC,2,MIPA23,
2IFC,43,0,43,0,2.9,-1,correct answer,0.434104699991,True,False,stimulusMIPA23_2IFC_2019_Jun_17_1531_687,stimulusMIPA23_2IFC_2019_Jun_17_1531_688,True,2019_Jun_17_1531,2IFC,2,MIPA23,
2IFC,44,0,44,0,10.7,-1,correct answer,0.267129899992,True,False,stimulusMIPA23_2IFC_2019_Jun_17_1531_689,stimulusMIPA23_2IFC_2019_Jun_17_1531_690,True,2019_Jun_17_1531,2IFC,2,MIPA23,
2IFC,45,0,45,0,6.7,-1,correct answer,0.232812299975,True,False,stimulusMIPA23_2IFC_2019_Jun_17_1531_691,stimulusMIPA23_2IFC_2019_Jun_17_1531_692,True,2019_Jun_17_1531,2IFC,2,MIPA23,
2IFC,46,0,46,0,6.7,-1,correct answer,0.0348031999893,False,True,stimulusMIPA23_2IFC_2019_Jun_17_1531_693,stimulusMIPA23_2IFC_2019_Jun_17_1531_694,True,2019_Jun_17_1531,2IFC,2,MIPA23,
2IFC,47,0,47,0,9.6,-1,correct answer,0.134318800003,True,False,stimulusMIPA23_2IFC_2019_Jun_17_1531_695,stimulusMIPA23_2IFC_2019_Jun_17_1531_696,True,2019_Jun_17_1531,2IFC,2,MIPA23,
2IFC,48,0,48,0,4.5,-1,correct answer,0.0678780999733,False,True,stimulusMIPA23_2IFC_2019_Jun_17_1531_697,stimulusMIPA23_2IFC_2019_Jun_17_1531_698,True,2019_Jun_17_1531,2IFC,2,MIPA23,
2IFC,49,0,49,0,9.6,-1,correct answer,0.101090900018,True,False,stimulusMIPA23_2IFC_2019_Jun_17_1531_699,stimulusMIPA23_2IFC_2019_Jun_17_1531_700,True,2019_Jun_17_1531,2IFC,2,MIPA23,
2IFC,50,0,50,0,9.6,-1,correct answer,0.233994300012,True,False,stimulusMIPA23_2IFC_2019_Jun_17_1531_701,stimulusMIPA23_2IFC_2019_Jun_17_1531_702,True,2019_Jun_17_1531,2IFC,2,MIPA23,
2IFC,51,0,51,0,6.7,-1,correct answer,0.067617600027,False,True,stimulusMIPA23_2IFC_2019_Jun_17_1531_703,stimulusMIPA23_2IFC_2019_Jun_17_1531_704,True,2019_Jun_17_1531,2IFC,2,MIPA23,
2IFC,52,0,52,0,6.7,-1,correct answer,0.1662717,False,True,stimulusMIPA23_2IFC_2019_Jun_17_1531_705,stimulusMIPA23_2IFC_2019_Jun_17_1531_706,True,2019_Jun_17_1531,2IFC,2,MIPA23,
2IFC,53,0,53,0,7.6,-1,wrong answer,0.101411800017,False,True,stimulusMIPA23_2IFC_2019_Jun_17_1531_707,stimulusMIPA23_2IFC_2019_Jun_17_1531_708,True,2019_Jun_17_1531,2IFC,2,MIPA23,
2IFC,54,0,54,0,4.5,-1,correct answer,0.233045700006,False,True,stimulusMIPA23_2IFC_2019_Jun_17_1531_709,stimulusMIPA23_2IFC_2019_Jun_17_1531_710,True,2019_Jun_17_1531,2IFC,2,MIPA23,
2IFC,55,0,55,0,9.6,-1,correct answer,0.201016800012,False,True,stimulusMIPA23_2IFC_2019_Jun_17_1531_711,stimulusMIPA23_2IFC_2019_Jun_17_1531_712,True,2019_Jun_17_1531,2IFC,2,MIPA23,
2IFC,56,0,56,0,8.6,-1,correct answer,0.0673862000112,True,False,stimulusMIPA23_2IFC_2019_Jun_17_1531_713,stimulusMIPA23_2IFC_2019_Jun_17_1531_714,True,2019_Jun_17_1531,2IFC,2,MIPA23,
2IFC,57,0,57,0,10.7,-1,correct answer,0.100472700025,False,True,stimulusMIPA23_2IFC_2019_Jun_17_1531_715,stimulusMIPA23_2IFC_2019_Jun_17_1531_716,True,2019_Jun_17_1531,2IFC,2,MIPA23,
2IFC,58,0,58,0,8.6,-1,correct answer,0.300934500003,True,False,stimulusMIPA23_2IFC_2019_Jun_17_1531_717,stimulusMIPA23_2IFC_2019_Jun_17_1531_718,True,2019_Jun_17_1531,2IFC,2,MIPA23,
2IFC,59,0,59,0,6.7,-1,correct answer,0.431967100012,True,False,stimulusMIPA23_2IFC_2019_Jun_17_1531_719,stimulusMIPA23_2IFC_2019_Jun_17_1531_720,True,2019_Jun_17_1531,2IFC,2,MIPA23,
2IFC,60,0,60,0,6.7,-1,wrong answer,0.667417200049,False,True,stimulusMIPA23_2IFC_2019_Jun_17_1531_721,stimulusMIPA23_2IFC_2019_Jun_17_1531_722,True,2019_Jun_17_1531,2IFC,2,MIPA23,
2IFC,61,0,61,0,10.7,-1,correct answer,0.399943900004,False,True,stimulusMIPA23_2IFC_2019_Jun_17_1531_723,stimulusMIPA23_2IFC_2019_Jun_17_1531_724,True,2019_Jun_17_1531,2IFC,2,MIPA23,
2IFC,62,0,62,0,9.6,-1,correct answer,0.100103400007,True,False,stimulusMIPA23_2IFC_2019_Jun_17_1531_725,stimulusMIPA23_2IFC_2019_Jun_17_1531_726,True,2019_Jun_17_1531,2IFC,2,MIPA23,
2IFC,63,0,63,0,8.6,-1,correct answer,0.567395100021,False,True,stimulusMIPA23_2IFC_2019_Jun_17_1531_727,stimulusMIPA23_2IFC_2019_Jun_17_1531_728,True,2019_Jun_17_1531,2IFC,2,MIPA23,
2IFC,64,0,64,0,6.7,-1,wrong answer,0.367181000009,True,False,stimulusMIPA23_2IFC_2019_Jun_17_1531_729,stimulusMIPA23_2IFC_2019_Jun_17_1531_730,True,2019_Jun_17_1531,2IFC,2,MIPA23,
2IFC,65,0,65,0,6.7,-1,correct answer,0.533929399971,True,False,stimulusMIPA23_2IFC_2019_Jun_17_1531_731,stimulusMIPA23_2IFC_2019_Jun_17_1531_732,True,2019_Jun_17_1531,2IFC,2,MIPA23,
2IFC,66,0,66,0,4.5,-1,correct answer,0.433897799987,False,True,stimulusMIPA23_2IFC_2019_Jun_17_1531_733,stimulusMIPA23_2IFC_2019_Jun_17_1531_734,True,2019_Jun_17_1531,2IFC,2,MIPA23,
2IFC,67,0,67,0,5.7,-1,wrong answer,0.367431099992,False,True,stimulusMIPA23_2IFC_2019_Jun_17_1531_735,stimulusMIPA23_2IFC_2019_Jun_17_1531_736,True,2019_Jun_17_1531,2IFC,2,MIPA23,
2IFC,68,0,68,0,10.7,-1,correct answer,0.301056900003,False,True,stimulusMIPA23_2IFC_2019_Jun_17_1531_737,stimulusMIPA23_2IFC_2019_Jun_17_1531_738,True,2019_Jun_17_1531,2IFC,2,MIPA23,
2IFC,69,0,69,0,6.7,-1,correct answer,0.267050199967,True,False,stimulusMIPA23_2IFC_2019_Jun_17_1531_739,stimulusMIPA23_2IFC_2019_Jun_17_1531_740,True,2019_Jun_17_1531,2IFC,2,MIPA23,
2IFC,70,0,70,0,9.6,-1,correct answer,0.600815900019,False,True,stimulusMIPA23_2IFC_2019_Jun_17_1531_741,stimulusMIPA23_2IFC_2019_Jun_17_1531_742,True,2019_Jun_17_1531,2IFC,2,MIPA23,
2IFC,71,0,71,0,5.7,-1,wrong answer,0.501046999998,True,False,stimulusMIPA23_2IFC_2019_Jun_17_1531_743,stimulusMIPA23_2IFC_2019_Jun_17_1531_744,True,2019_Jun_17_1531,2IFC,2,MIPA23,
2IFC,72,0,72,0,4.5,-1,wrong answer,0.400726200023,True,False,stimulusMIPA23_2IFC_2019_Jun_17_1531_745,stimulusMIPA23_2IFC_2019_Jun_17_1531_746,True,2019_Jun_17_1531,2IFC,2,MIPA23,
2IFC,73,0,73,0,9.6,-1,correct answer,0.333288399968,True,False,stimulusMIPA23_2IFC_2019_Jun_17_1531_747,stimulusMIPA23_2IFC_2019_Jun_17_1531_748,True,2019_Jun_17_1531,2IFC,2,MIPA23,
2IFC,74,0,74,0,7.6,-1,wrong answer,0.534002800006,True,False,stimulusMIPA23_2IFC_2019_Jun_17_1531_749,stimulusMIPA23_2IFC_2019_Jun_17_1531_750,True,2019_Jun_17_1531,2IFC,2,MIPA23,
2IFC,0,0,0,0,6.7,-1,no answer,-1,True,False,stimulusMIPA23_2IFC_2019_Jun_17_1531_751,stimulusMIPA23_2IFC_2019_Jun_17_1531_752,True,2019_Jun_17_1531,2IFC,2,MIPA23,
2IFC,1,0,1,0,9.6,-1,correct answer,0.333599500009,False,True,stimulusMIPA23_2IFC_2019_Jun_17_1531_753,stimulusMIPA23_2IFC_2019_Jun_17_1531_754,True,2019_Jun_17_1531,2IFC,2,MIPA23,
2IFC,2,0,2,0,2.9,-1,correct answer,0.633012900013,False,True,stimulusMIPA23_2IFC_2019_Jun_17_1531_755,stimulusMIPA23_2IFC_2019_Jun_17_1531_756,True,2019_Jun_17_1531,2IFC,2,MIPA23,
2IFC,3,0,3,0,5.7,-1,wrong answer,0.467422399961,True,False,stimulusMIPA23_2IFC_2019_Jun_17_1531_757,stimulusMIPA23_2IFC_2019_Jun_17_1531_758,True,2019_Jun_17_1531,2IFC,2,MIPA23,
2IFC,4,0,4,0,4.5,-1,correct answer,0.50171490002,False,True,stimulusMIPA23_2IFC_2019_Jun_17_1531_759,stimulusMIPA23_2IFC_2019_Jun_17_1531_760,True,2019_Jun_17_1531,2IFC,2,MIPA23,
2IFC,5,0,5,0,4.5,-1,correct answer,0.267109799956,False,True,stimulusMIPA23_2IFC_2019_Jun_17_1531_761,stimulusMIPA23_2IFC_2019_Jun_17_1531_762,True,2019_Jun_17_1531,2IFC,2,MIPA23,
2IFC,6,0,6,0,7.6,-1,wrong answer,0.336141600041,False,True,stimulusMIPA23_2IFC_2019_Jun_17_1531_763,stimulusMIPA23_2IFC_2019_Jun_17_1531_764,True,2019_Jun_17_1531,2IFC,2,MIPA23,
2IFC,7,0,7,0,6.7,-1,correct answer,0.300519800046,True,False,stimulusMIPA23_2IFC_2019_Jun_17_1531_765,stimulusMIPA23_2IFC_2019_Jun_17_1531_766,True,2019_Jun_17_1531,2IFC,2,MIPA23,
2IFC,8,0,8,0,7.6,-1,wrong answer,0.434157900047,True,False,stimulusMIPA23_2IFC_2019_Jun_17_1531_767,stimulusMIPA23_2IFC_2019_Jun_17_1531_768,True,2019_Jun_17_1531,2IFC,2,MIPA23,
2IFC,9,0,9,0,2.9,-1,correct answer,0.164098899986,False,True,stimulusMIPA23_2IFC_2019_Jun_17_1531_769,stimulusMIPA23_2IFC_2019_Jun_17_1531_770,True,2019_Jun_17_1531,2IFC,2,MIPA23,
2IFC,10,0,10,0,5.7,-1,correct answer,0.300295099965,False,True,stimulusMIPA23_2IFC_2019_Jun_17_1531_771,stimulusMIPA23_2IFC_2019_Jun_17_1531_772,True,2019_Jun_17_1531,2IFC,2,MIPA23,
2IFC,11,0,11,0,8.6,-1,correct answer,0.333691699954,True,False,stimulusMIPA23_2IFC_2019_Jun_17_1531_773,stimulusMIPA23_2IFC_2019_Jun_17_1531_774,True,2019_Jun_17_1531,2IFC,2,MIPA23,
2IFC,12,0,12,0,10.7,-1,correct answer,0.233709399996,True,False,stimulusMIPA23_2IFC_2019_Jun_17_1531_775,stimulusMIPA23_2IFC_2019_Jun_17_1531_776,True,2019_Jun_17_1531,2IFC,2,MIPA23,
2IFC,13,0,13,0,9.6,-1,correct answer,0.0680881000008,False,True,stimulusMIPA23_2IFC_2019_Jun_17_1531_777,stimulusMIPA23_2IFC_2019_Jun_17_1531_778,True,2019_Jun_17_1531,2IFC,2,MIPA23,
2IFC,14,0,14,0,4.5,-1,wrong answer,0.300531899964,False,True,stimulusMIPA23_2IFC_2019_Jun_17_1531_779,stimulusMIPA23_2IFC_2019_Jun_17_1531_780,True,2019_Jun_17_1531,2IFC,2,MIPA23,
2IFC,15,0,15,0,2.9,-1,correct answer,0.434059399995,False,True,stimulusMIPA23_2IFC_2019_Jun_17_1531_781,stimulusMIPA23_2IFC_2019_Jun_17_1531_782,True,2019_Jun_17_1531,2IFC,2,MIPA23,
2IFC,16,0,16,0,2.9,-1,correct answer,0.301025199995,True,False,stimulusMIPA23_2IFC_2019_Jun_17_1531_783,stimulusMIPA23_2IFC_2019_Jun_17_1531_784,True,2019_Jun_17_1531,2IFC,2,MIPA23,
2IFC,17,0,17,0,10.7,-1,correct answer,0.366926999995,True,False,stimulusMIPA23_2IFC_2019_Jun_17_1531_785,stimulusMIPA23_2IFC_2019_Jun_17_1531_786,True,2019_Jun_17_1531,2IFC,2,MIPA23,
2IFC,18,0,18,0,7.6,-1,wrong answer,0.267255300016,False,True,stimulusMIPA23_2IFC_2019_Jun_17_1531_787,stimulusMIPA23_2IFC_2019_Jun_17_1531_788,True,2019_Jun_17_1531,2IFC,2,MIPA23,
2IFC,19,0,19,0,6.7,-1,correct answer,0.0669957000064,False,True,stimulusMIPA23_2IFC_2019_Jun_17_1531_789,stimulusMIPA23_2IFC_2019_Jun_17_1531_790,True,2019_Jun_17_1531,2IFC,2,MIPA23,
2IFC,20,0,20,0,10.7,-1,correct answer,0.234429000004,False,True,stimulusMIPA23_2IFC_2019_Jun_17_1531_791,stimulusMIPA23_2IFC_2019_Jun_17_1531_792,True,2019_Jun_17_1531,2IFC,2,MIPA23,
2IFC,21,0,21,0,7.6,-1,correct answer,0.13408509997,True,False,stimulusMIPA23_2IFC_2019_Jun_17_1531_793,stimulusMIPA23_2IFC_2019_Jun_17_1531_794,True,2019_Jun_17_1531,2IFC,2,MIPA23,
2IFC,22,0,22,0,10.7,-1,wrong answer,0.133897399995,False,True,stimulusMIPA23_2IFC_2019_Jun_17_1531_795,stimulusMIPA23_2IFC_2019_Jun_17_1531_796,True,2019_Jun_17_1531,2IFC,2,MIPA23,
2IFC,23,0,23,0,9.6,-1,correct answer,0.300701799977,False,True,stimulusMIPA23_2IFC_2019_Jun_17_1531_797,stimulusMIPA23_2IFC_2019_Jun_17_1531_798,True,2019_Jun_17_1531,2IFC,2,MIPA23,
2IFC,24,0,24,0,5.7,-1,wrong answer,0.301264700014,True,False,stimulusMIPA23_2IFC_2019_Jun_17_1531_799,stimulusMIPA23_2IFC_2019_Jun_17_1531_800,True,2019_Jun_17_1531,2IFC,2,MIPA23,
2IFC,25,0,25,0,2.9,-1,wrong answer,0.333776699961,True,False,stimulusMIPA23_2IFC_2019_Jun_17_1531_801,stimulusMIPA23_2IFC_2019_Jun_17_1531_802,True,2019_Jun_17_1531,2IFC,2,MIPA23,
2IFC,26,0,26,0,8.6,-1,wrong answer,0.266918799956,False,True,stimulusMIPA23_2IFC_2019_Jun_17_1531_803,stimulusMIPA23_2IFC_2019_Jun_17_1531_804,True,2019_Jun_17_1531,2IFC,2,MIPA23,
2IFC,27,0,27,0,2.9,-1,correct answer,0.233945099986,False,True,stimulusMIPA23_2IFC_2019_Jun_17_1531_805,stimulusMIPA23_2IFC_2019_Jun_17_1531_806,True,2019_Jun_17_1531,2IFC,2,MIPA23,
2IFC,28,0,28,0,4.5,-1,correct answer,0.1003623,False,True,stimulusMIPA23_2IFC_2019_Jun_17_1531_807,stimulusMIPA23_2IFC_2019_Jun_17_1531_808,True,2019_Jun_17_1531,2IFC,2,MIPA23,
2IFC,29,0,29,0,6.7,-1,correct answer,0.200727600022,False,True,stimulusMIPA23_2IFC_2019_Jun_17_1531_809,stimulusMIPA23_2IFC_2019_Jun_17_1531_810,True,2019_Jun_17_1531,2IFC,2,MIPA23,
2IFC,30,0,30,0,7.6,-1,correct answer,0.299548600044,False,True,stimulusMIPA23_2IFC_2019_Jun_17_1531_811,stimulusMIPA23_2IFC_2019_Jun_17_1531_812,True,2019_Jun_17_1531,2IFC,2,MIPA23,
2IFC,31,0,31,0,4.5,-1,correct answer,0.233608999988,False,True,stimulusMIPA23_2IFC_2019_Jun_17_1531_813,stimulusMIPA23_2IFC_2019_Jun_17_1531_814,True,2019_Jun_17_1531,2IFC,2,MIPA23,
2IFC,32,0,32,0,2.9,-1,correct answer,0.26713599998,False,True,stimulusMIPA23_2IFC_2019_Jun_17_1531_815,stimulusMIPA23_2IFC_2019_Jun_17_1531_816,True,2019_Jun_17_1531,2IFC,2,MIPA23,
2IFC,33,0,33,0,2.9,-1,wrong answer,0.100309000001,True,False,stimulusMIPA23_2IFC_2019_Jun_17_1531_817,stimulusMIPA23_2IFC_2019_Jun_17_1531_818,True,2019_Jun_17_1531,2IFC,2,MIPA23,
2IFC,34,0,34,0,8.6,-1,wrong answer,0.20006469998,False,True,stimulusMIPA23_2IFC_2019_Jun_17_1531_819,stimulusMIPA23_2IFC_2019_Jun_17_1531_820,True,2019_Jun_17_1531,2IFC,2,MIPA23,
2IFC,35,0,35,0,10.7,-1,correct answer,0.132438000001,True,False,stimulusMIPA23_2IFC_2019_Jun_17_1531_821,stimulusMIPA23_2IFC_2019_Jun_17_1531_822,True,2019_Jun_17_1531,2IFC,2,MIPA23,
2IFC,36,0,36,0,8.6,-1,correct answer,0.199896799983,True,False,stimulusMIPA23_2IFC_2019_Jun_17_1531_823,stimulusMIPA23_2IFC_2019_Jun_17_1531_824,True,2019_Jun_17_1531,2IFC,2,MIPA23,
2IFC,37,0,37,0,5.7,-1,wrong answer,0.434176600014,False,True,stimulusMIPA23_2IFC_2019_Jun_17_1531_825,stimulusMIPA23_2IFC_2019_Jun_17_1531_826,True,2019_Jun_17_1531,2IFC,2,MIPA23,
2IFC,38,0,38,0,4.5,-1,correct answer,0.534337499994,False,True,stimulusMIPA23_2IFC_2019_Jun_17_1531_827,stimulusMIPA23_2IFC_2019_Jun_17_1531_828,True,2019_Jun_17_1531,2IFC,2,MIPA23,
2IFC,39,0,39,0,10.7,-1,correct answer,0.767300300009,False,True,stimulusMIPA23_2IFC_2019_Jun_17_1531_829,stimulusMIPA23_2IFC_2019_Jun_17_1531_830,True,2019_Jun_17_1531,2IFC,2,MIPA23,
2IFC,40,0,40,0,4.5,-1,correct answer,0.335130999971,False,True,stimulusMIPA23_2IFC_2019_Jun_17_1531_831,stimulusMIPA23_2IFC_2019_Jun_17_1531_832,True,2019_Jun_17_1531,2IFC,2,MIPA23,
2IFC,41,0,41,0,10.7,-1,correct answer,0.532820600027,True,False,stimulusMIPA23_2IFC_2019_Jun_17_1531_833,stimulusMIPA23_2IFC_2019_Jun_17_1531_834,True,2019_Jun_17_1531,2IFC,2,MIPA23,
2IFC,42,0,42,0,10.7,-1,correct answer,0.332383600005,False,True,stimulusMIPA23_2IFC_2019_Jun_17_1531_835,stimulusMIPA23_2IFC_2019_Jun_17_1531_836,True,2019_Jun_17_1531,2IFC,2,MIPA23,
2IFC,43,0,43,0,9.6,-1,correct answer,0.434098999947,True,False,stimulusMIPA23_2IFC_2019_Jun_17_1531_837,stimulusMIPA23_2IFC_2019_Jun_17_1531_838,True,2019_Jun_17_1531,2IFC,2,MIPA23,
2IFC,44,0,44,0,2.9,-1,correct answer,0.232454800047,False,True,stimulusMIPA23_2IFC_2019_Jun_17_1531_839,stimulusMIPA23_2IFC_2019_Jun_17_1531_840,True,2019_Jun_17_1531,2IFC,2,MIPA23,
2IFC,45,0,45,0,9.6,-1,wrong answer,0.367434599961,True,False,stimulusMIPA23_2IFC_2019_Jun_17_1531_841,stimulusMIPA23_2IFC_2019_Jun_17_1531_842,True,2019_Jun_17_1531,2IFC,2,MIPA23,
2IFC,46,0,46,0,7.6,-1,wrong answer,0.334087900002,True,False,stimulusMIPA23_2IFC_2019_Jun_17_1531_843,stimulusMIPA23_2IFC_2019_Jun_17_1531_844,True,2019_Jun_17_1531,2IFC,2,MIPA23,
2IFC,47,0,47,0,8.6,-1,correct answer,0.26713990001,True,False,stimulusMIPA23_2IFC_2019_Jun_17_1531_845,stimulusMIPA23_2IFC_2019_Jun_17_1531_846,True,2019_Jun_17_1531,2IFC,2,MIPA23,
2IFC,48,0,48,0,9.6,-1,correct answer,0.434006099997,False,True,stimulusMIPA23_2IFC_2019_Jun_17_1531_847,stimulusMIPA23_2IFC_2019_Jun_17_1531_848,True,2019_Jun_17_1531,2IFC,2,MIPA23,
2IFC,49,0,49,0,9.6,-1,wrong answer,0.199229599966,False,True,stimulusMIPA23_2IFC_2019_Jun_17_1531_849,stimulusMIPA23_2IFC_2019_Jun_17_1531_850,True,2019_Jun_17_1531,2IFC,2,MIPA23,
2IFC,50,0,50,0,4.5,-1,correct answer,0.0336313000298,False,True,stimulusMIPA23_2IFC_2019_Jun_17_1531_851,stimulusMIPA23_2IFC_2019_Jun_17_1531_852,True,2019_Jun_17_1531,2IFC,2,MIPA23,
2IFC,51,0,51,0,6.7,-1,correct answer,0.233564199996,False,True,stimulusMIPA23_2IFC_2019_Jun_17_1531_853,stimulusMIPA23_2IFC_2019_Jun_17_1531_854,True,2019_Jun_17_1531,2IFC,2,MIPA23,
2IFC,52,0,52,0,9.6,-1,correct answer,0.0667818000074,True,False,stimulusMIPA23_2IFC_2019_Jun_17_1531_855,stimulusMIPA23_2IFC_2019_Jun_17_1531_856,True,2019_Jun_17_1531,2IFC,2,MIPA23,
2IFC,53,0,53,0,7.6,-1,correct answer,0.133689699986,False,True,stimulusMIPA23_2IFC_2019_Jun_17_1531_857,stimulusMIPA23_2IFC_2019_Jun_17_1531_858,True,2019_Jun_17_1531,2IFC,2,MIPA23,
2IFC,54,0,54,0,6.7,-1,correct answer,0.301032999996,True,False,stimulusMIPA23_2IFC_2019_Jun_17_1531_859,stimulusMIPA23_2IFC_2019_Jun_17_1531_860,True,2019_Jun_17_1531,2IFC,2,MIPA23,
2IFC,55,0,55,0,5.7,-1,wrong answer,0.100896499993,True,False,stimulusMIPA23_2IFC_2019_Jun_17_1531_861,stimulusMIPA23_2IFC_2019_Jun_17_1531_862,True,2019_Jun_17_1531,2IFC,2,MIPA23,
2IFC,56,0,56,0,5.7,-1,wrong answer,0.635708999995,True,False,stimulusMIPA23_2IFC_2019_Jun_17_1531_863,stimulusMIPA23_2IFC_2019_Jun_17_1531_864,True,2019_Jun_17_1531,2IFC,2,MIPA23,
2IFC,57,0,57,0,10.7,-1,wrong answer,0.30040160002,False,True,stimulusMIPA23_2IFC_2019_Jun_17_1531_865,stimulusMIPA23_2IFC_2019_Jun_17_1531_866,True,2019_Jun_17_1531,2IFC,2,MIPA23,
2IFC,58,0,58,0,9.6,-1,correct answer,0.467371799983,True,False,stimulusMIPA23_2IFC_2019_Jun_17_1531_867,stimulusMIPA23_2IFC_2019_Jun_17_1531_868,True,2019_Jun_17_1531,2IFC,2,MIPA23,
2IFC,59,0,59,0,9.6,-1,correct answer,0.467082999996,True,False,stimulusMIPA23_2IFC_2019_Jun_17_1531_869,stimulusMIPA23_2IFC_2019_Jun_17_1531_870,True,2019_Jun_17_1531,2IFC,2,MIPA23,
2IFC,60,0,60,0,2.9,-1,wrong answer,0.333824700036,True,False,stimulusMIPA23_2IFC_2019_Jun_17_1531_871,stimulusMIPA23_2IFC_2019_Jun_17_1531_872,True,2019_Jun_17_1531,2IFC,2,MIPA23,
2IFC,61,0,61,0,2.9,-1,correct answer,0.667708399997,False,True,stimulusMIPA23_2IFC_2019_Jun_17_1531_873,stimulusMIPA23_2IFC_2019_Jun_17_1531_874,True,2019_Jun_17_1531,2IFC,2,MIPA23,
2IFC,62,0,62,0,7.6,-1,correct answer,0.56749809999,False,True,stimulusMIPA23_2IFC_2019_Jun_17_1531_875,stimulusMIPA23_2IFC_2019_Jun_17_1531_876,True,2019_Jun_17_1531,2IFC,2,MIPA23,
2IFC,63,0,63,0,2.9,-1,correct answer,0.366907900025,False,True,stimulusMIPA23_2IFC_2019_Jun_17_1531_877,stimulusMIPA23_2IFC_2019_Jun_17_1531_878,True,2019_Jun_17_1531,2IFC,2,MIPA23,
2IFC,64,0,64,0,5.7,-1,wrong answer,0.467474300007,True,False,stimulusMIPA23_2IFC_2019_Jun_17_1531_879,stimulusMIPA23_2IFC_2019_Jun_17_1531_880,True,2019_Jun_17_1531,2IFC,2,MIPA23,
2IFC,65,0,65,0,10.7,-1,correct answer,0.56726640003,True,False,stimulusMIPA23_2IFC_2019_Jun_17_1531_881,stimulusMIPA23_2IFC_2019_Jun_17_1531_882,True,2019_Jun_17_1531,2IFC,2,MIPA23,
2IFC,66,0,66,0,6.7,-1,correct answer,0.600765299983,True,False,stimulusMIPA23_2IFC_2019_Jun_17_1531_883,stimulusMIPA23_2IFC_2019_Jun_17_1531_884,True,2019_Jun_17_1531,2IFC,2,MIPA23,
2IFC,67,0,67,0,2.9,-1,correct answer,0.334197399963,False,True,stimulusMIPA23_2IFC_2019_Jun_17_1531_885,stimulusMIPA23_2IFC_2019_Jun_17_1531_886,True,2019_Jun_17_1531,2IFC,2,MIPA23,
2IFC,68,0,68,0,7.6,-1,correct answer,0.63416950003,False,True,stimulusMIPA23_2IFC_2019_Jun_17_1531_887,stimulusMIPA23_2IFC_2019_Jun_17_1531_888,True,2019_Jun_17_1531,2IFC,2,MIPA23,
2IFC,69,0,69,0,5.7,-1,wrong answer,0.367339999997,True,False,stimulusMIPA23_2IFC_2019_Jun_17_1531_889,stimulusMIPA23_2IFC_2019_Jun_17_1531_890,True,2019_Jun_17_1531,2IFC,2,MIPA23,
2IFC,70,0,70,0,4.5,-1,correct answer,0.16668970004,True,False,stimulusMIPA23_2IFC_2019_Jun_17_1531_891,stimulusMIPA23_2IFC_2019_Jun_17_1531_892,True,2019_Jun_17_1531,2IFC,2,MIPA23,
2IFC,71,0,71,0,9.6,-1,correct answer,0.267998300027,False,True,stimulusMIPA23_2IFC_2019_Jun_17_1531_893,stimulusMIPA23_2IFC_2019_Jun_17_1531_894,True,2019_Jun_17_1531,2IFC,2,MIPA23,
2IFC,72,0,72,0,8.6,-1,wrong answer,0.767533300037,False,True,stimulusMIPA23_2IFC_2019_Jun_17_1531_895,stimulusMIPA23_2IFC_2019_Jun_17_1531_896,True,2019_Jun_17_1531,2IFC,2,MIPA23,
2IFC,73,0,73,0,7.6,-1,correct answer,0.500738399976,True,False,stimulusMIPA23_2IFC_2019_Jun_17_1531_897,stimulusMIPA23_2IFC_2019_Jun_17_1531_898,True,2019_Jun_17_1531,2IFC,2,MIPA23,
2IFC,74,0,74,0,6.7,-1,correct answer,0.300594899978,False,True,stimulusMIPA23_2IFC_2019_Jun_17_1531_899,stimulusMIPA23_2IFC_2019_Jun_17_1531_900,True,2019_Jun_17_1531,2IFC,2,MIPA23,
2IFC,0,0,0,0,6.7,-1,no answer,-1,True,False,stimulusMIPA23_2IFC_2019_Jun_17_1531_901,stimulusMIPA23_2IFC_2019_Jun_17_1531_902,True,2019_Jun_17_1531,2IFC,2,MIPA23,
2IFC,1,0,1,0,7.6,-1,correct answer,0.335267799965,False,True,stimulusMIPA23_2IFC_2019_Jun_17_1531_903,stimulusMIPA23_2IFC_2019_Jun_17_1531_904,True,2019_Jun_17_1531,2IFC,2,MIPA23,
2IFC,2,0,2,0,9.6,-1,correct answer,0.267267799994,False,True,stimulusMIPA23_2IFC_2019_Jun_17_1531_905,stimulusMIPA23_2IFC_2019_Jun_17_1531_906,True,2019_Jun_17_1531,2IFC,2,MIPA23,
2IFC,3,0,3,0,2.9,-1,correct answer,0.133173300012,False,True,stimulusMIPA23_2IFC_2019_Jun_17_1531_907,stimulusMIPA23_2IFC_2019_Jun_17_1531_908,True,2019_Jun_17_1531,2IFC,2,MIPA23,
2IFC,4,0,4,0,4.5,-1,wrong answer,0.100656999974,True,False,stimulusMIPA23_2IFC_2019_Jun_17_1531_909,stimulusMIPA23_2IFC_2019_Jun_17_1531_910,True,2019_Jun_17_1531,2IFC,2,MIPA23,
2IFC,5,0,5,0,9.6,-1,correct answer,0.300082599977,True,False,stimulusMIPA23_2IFC_2019_Jun_17_1531_911,stimulusMIPA23_2IFC_2019_Jun_17_1531_912,True,2019_Jun_17_1531,2IFC,2,MIPA23,
2IFC,6,0,6,0,7.6,-1,correct answer,0.634574200027,False,True,stimulusMIPA23_2IFC_2019_Jun_17_1531_913,stimulusMIPA23_2IFC_2019_Jun_17_1531_914,True,2019_Jun_17_1531,2IFC,2,MIPA23,
2IFC,7,0,7,0,6.7,-1,correct answer,0.467336300004,False,True,stimulusMIPA23_2IFC_2019_Jun_17_1531_915,stimulusMIPA23_2IFC_2019_Jun_17_1531_916,True,2019_Jun_17_1531,2IFC,2,MIPA23,
2IFC,8,0,8,0,7.6,-1,correct answer,0.267449999985,True,False,stimulusMIPA23_2IFC_2019_Jun_17_1531_917,stimulusMIPA23_2IFC_2019_Jun_17_1531_918,True,2019_Jun_17_1531,2IFC,2,MIPA23,
2IFC,9,0,9,0,2.9,-1,wrong answer,0.333955800044,True,False,stimulusMIPA23_2IFC_2019_Jun_17_1531_919,stimulusMIPA23_2IFC_2019_Jun_17_1531_920,True,2019_Jun_17_1531,2IFC,2,MIPA23,
2IFC,10,0,10,0,9.6,-1,wrong answer,0.300778399978,False,True,stimulusMIPA23_2IFC_2019_Jun_17_1531_921,stimulusMIPA23_2IFC_2019_Jun_17_1531_922,True,2019_Jun_17_1531,2IFC,2,MIPA23,
2IFC,11,0,11,0,10.7,-1,correct answer,0.300175799988,False,True,stimulusMIPA23_2IFC_2019_Jun_17_1531_923,stimulusMIPA23_2IFC_2019_Jun_17_1531_924,True,2019_Jun_17_1531,2IFC,2,MIPA23,
2IFC,12,0,12,0,5.7,-1,correct answer,0.433940899966,False,True,stimulusMIPA23_2IFC_2019_Jun_17_1531_925,stimulusMIPA23_2IFC_2019_Jun_17_1531_926,True,2019_Jun_17_1531,2IFC,2,MIPA23,
2IFC,13,0,13,0,10.7,-1,correct answer,0.167127699999,False,True,stimulusMIPA23_2IFC_2019_Jun_17_1531_927,stimulusMIPA23_2IFC_2019_Jun_17_1531_928,True,2019_Jun_17_1531,2IFC,2,MIPA23,
2IFC,14,0,14,0,9.6,-1,correct answer,0.400606799987,False,True,stimulusMIPA23_2IFC_2019_Jun_17_1531_929,stimulusMIPA23_2IFC_2019_Jun_17_1531_930,True,2019_Jun_17_1531,2IFC,2,MIPA23,
2IFC,15,0,15,0,5.7,-1,correct answer,0.267631400027,True,False,stimulusMIPA23_2IFC_2019_Jun_17_1531_931,stimulusMIPA23_2IFC_2019_Jun_17_1531_932,True,2019_Jun_17_1531,2IFC,2,MIPA23,
2IFC,16,0,16,0,8.6,-1,correct answer,0.267027499969,True,False,stimulusMIPA23_2IFC_2019_Jun_17_1531_933,stimulusMIPA23_2IFC_2019_Jun_17_1531_934,True,2019_Jun_17_1531,2IFC,2,MIPA23,
2IFC,17,0,17,0,7.6,-1,correct answer,0.100242699962,True,False,stimulusMIPA23_2IFC_2019_Jun_17_1531_935,stimulusMIPA23_2IFC_2019_Jun_17_1531_936,True,2019_Jun_17_1531,2IFC,2,MIPA23,
2IFC,18,0,18,0,2.9,-1,wrong answer,0.16691780003,True,False,stimulusMIPA23_2IFC_2019_Jun_17_1531_937,stimulusMIPA23_2IFC_2019_Jun_17_1531_938,True,2019_Jun_17_1531,2IFC,2,MIPA23,
2IFC,19,0,19,0,5.7,-1,wrong answer,0.0336636999855,False,True,stimulusMIPA23_2IFC_2019_Jun_17_1531_939,stimulusMIPA23_2IFC_2019_Jun_17_1531_940,True,2019_Jun_17_1531,2IFC,2,MIPA23,
2IFC,20,0,20,0,5.7,-1,correct answer,0.133793899964,False,True,stimulusMIPA23_2IFC_2019_Jun_17_1531_941,stimulusMIPA23_2IFC_2019_Jun_17_1531_942,True,2019_Jun_17_1531,2IFC,2,MIPA23,
2IFC,21,0,21,0,5.7,-1,correct answer,0.0674510999816,False,True,stimulusMIPA23_2IFC_2019_Jun_17_1531_943,stimulusMIPA23_2IFC_2019_Jun_17_1531_944,True,2019_Jun_17_1531,2IFC,2,MIPA23,
2IFC,22,0,22,0,8.6,-1,correct answer,0.0997909999569,True,False,stimulusMIPA23_2IFC_2019_Jun_17_1531_945,stimulusMIPA23_2IFC_2019_Jun_17_1531_946,True,2019_Jun_17_1531,2IFC,2,MIPA23,
2IFC,23,0,23,0,6.7,-1,correct answer,0.200942199968,True,False,stimulusMIPA23_2IFC_2019_Jun_17_1531_947,stimulusMIPA23_2IFC_2019_Jun_17_1531_948,True,2019_Jun_17_1531,2IFC,2,MIPA23,
2IFC,24,0,24,0,6.7,-1,wrong answer,0.233773999964,False,True,stimulusMIPA23_2IFC_2019_Jun_17_1531_949,stimulusMIPA23_2IFC_2019_Jun_17_1531_950,True,2019_Jun_17_1531,2IFC,2,MIPA23,
2IFC,25,0,25,0,4.5,-1,wrong answer,0.266467399953,True,False,stimulusMIPA23_2IFC_2019_Jun_17_1531_951,stimulusMIPA23_2IFC_2019_Jun_17_1531_952,True,2019_Jun_17_1531,2IFC,2,MIPA23,
2IFC,26,0,26,0,5.7,-1,wrong answer,0.0676639999729,True,False,stimulusMIPA23_2IFC_2019_Jun_17_1531_953,stimulusMIPA23_2IFC_2019_Jun_17_1531_954,True,2019_Jun_17_1531,2IFC,2,MIPA23,
2IFC,27,0,27,0,4.5,-1,correct answer,0.100404200028,False,True,stimulusMIPA23_2IFC_2019_Jun_17_1531_955,stimulusMIPA23_2IFC_2019_Jun_17_1531_956,True,2019_Jun_17_1531,2IFC,2,MIPA23,
2IFC,28,0,28,0,9.6,-1,correct answer,0.133769500011,True,False,stimulusMIPA23_2IFC_2019_Jun_17_1531_957,stimulusMIPA23_2IFC_2019_Jun_17_1531_958,True,2019_Jun_17_1531,2IFC,2,MIPA23,
2IFC,29,0,29,0,8.6,-1,correct answer,0.201158799988,True,False,stimulusMIPA23_2IFC_2019_Jun_17_1531_959,stimulusMIPA23_2IFC_2019_Jun_17_1531_960,True,2019_Jun_17_1531,2IFC,2,MIPA23,
2IFC,30,0,30,0,4.5,-1,correct answer,0.367301899998,False,True,stimulusMIPA23_2IFC_2019_Jun_17_1531_961,stimulusMIPA23_2IFC_2019_Jun_17_1531_962,True,2019_Jun_17_1531,2IFC,2,MIPA23,
2IFC,31,0,31,0,10.7,-1,correct answer,0.233739799995,True,False,stimulusMIPA23_2IFC_2019_Jun_17_1531_963,stimulusMIPA23_2IFC_2019_Jun_17_1531_964,True,2019_Jun_17_1531,2IFC,2,MIPA23,
2IFC,32,0,32,0,9.6,-1,correct answer,0.300986599992,True,False,stimulusMIPA23_2IFC_2019_Jun_17_1531_965,stimulusMIPA23_2IFC_2019_Jun_17_1531_966,True,2019_Jun_17_1531,2IFC,2,MIPA23,
2IFC,33,0,33,0,10.7,-1,correct answer,0.568120099953,True,False,stimulusMIPA23_2IFC_2019_Jun_17_1531_967,stimulusMIPA23_2IFC_2019_Jun_17_1531_968,True,2019_Jun_17_1531,2IFC,2,MIPA23,
2IFC,34,0,34,0,5.7,-1,wrong answer,0.100510700024,True,False,stimulusMIPA23_2IFC_2019_Jun_17_1531_969,stimulusMIPA23_2IFC_2019_Jun_17_1531_970,True,2019_Jun_17_1531,2IFC,2,MIPA23,
2IFC,35,0,35,0,9.6,-1,no answer,-1,False,True,stimulusMIPA23_2IFC_2019_Jun_17_1531_971,stimulusMIPA23_2IFC_2019_Jun_17_1531_972,True,2019_Jun_17_1531,2IFC,2,MIPA23,
2IFC,36,0,36,0,9.6,-1,correct answer,0.467847899999,False,True,stimulusMIPA23_2IFC_2019_Jun_17_1531_973,stimulusMIPA23_2IFC_2019_Jun_17_1531_974,True,2019_Jun_17_1531,2IFC,2,MIPA23,
2IFC,37,0,37,0,7.6,-1,wrong answer,0.168103199976,True,False,stimulusMIPA23_2IFC_2019_Jun_17_1531_975,stimulusMIPA23_2IFC_2019_Jun_17_1531_976,True,2019_Jun_17_1531,2IFC,2,MIPA23,
2IFC,38,0,38,0,6.7,-1,correct answer,0.265864100016,False,True,stimulusMIPA23_2IFC_2019_Jun_17_1531_977,stimulusMIPA23_2IFC_2019_Jun_17_1531_978,True,2019_Jun_17_1531,2IFC,2,MIPA23,
2IFC,39,0,39,0,6.7,-1,correct answer,0.300687599985,False,True,stimulusMIPA23_2IFC_2019_Jun_17_1531_979,stimulusMIPA23_2IFC_2019_Jun_17_1531_980,True,2019_Jun_17_1531,2IFC,2,MIPA23,
2IFC,40,0,40,0,9.6,-1,correct answer,0.266768699978,True,False,stimulusMIPA23_2IFC_2019_Jun_17_1531_981,stimulusMIPA23_2IFC_2019_Jun_17_1531_982,True,2019_Jun_17_1531,2IFC,2,MIPA23,
2IFC,41,0,41,0,4.5,-1,correct answer,0.300832999987,False,True,stimulusMIPA23_2IFC_2019_Jun_17_1531_983,stimulusMIPA23_2IFC_2019_Jun_17_1531_984,True,2019_Jun_17_1531,2IFC,2,MIPA23,
2IFC,42,0,42,0,7.6,-1,correct answer,0.300553000008,False,True,stimulusMIPA23_2IFC_2019_Jun_17_1531_985,stimulusMIPA23_2IFC_2019_Jun_17_1531_986,True,2019_Jun_17_1531,2IFC,2,MIPA23,
2IFC,43,0,43,0,6.7,-1,correct answer,0.20047739998,False,True,stimulusMIPA23_2IFC_2019_Jun_17_1531_987,stimulusMIPA23_2IFC_2019_Jun_17_1531_988,True,2019_Jun_17_1531,2IFC,2,MIPA23,
2IFC,44,0,44,0,6.7,-1,correct answer,0.201286300027,False,True,stimulusMIPA23_2IFC_2019_Jun_17_1531_989,stimulusMIPA23_2IFC_2019_Jun_17_1531_990,True,2019_Jun_17_1531,2IFC,2,MIPA23,
2IFC,45,0,45,0,2.9,-1,correct answer,0.433885899954,True,False,stimulusMIPA23_2IFC_2019_Jun_17_1531_991,stimulusMIPA23_2IFC_2019_Jun_17_1531_992,True,2019_Jun_17_1531,2IFC,2,MIPA23,
2IFC,46,0,46,0,10.7,-1,correct answer,0.366616700019,False,True,stimulusMIPA23_2IFC_2019_Jun_17_1531_993,stimulusMIPA23_2IFC_2019_Jun_17_1531_994,True,2019_Jun_17_1531,2IFC,2,MIPA23,
2IFC,47,0,47,0,4.5,-1,correct answer,0.333640099969,True,False,stimulusMIPA23_2IFC_2019_Jun_17_1531_995,stimulusMIPA23_2IFC_2019_Jun_17_1531_996,True,2019_Jun_17_1531,2IFC,2,MIPA23,
2IFC,48,0,48,0,9.6,-1,correct answer,0.333519699983,True,False,stimulusMIPA23_2IFC_2019_Jun_17_1531_997,stimulusMIPA23_2IFC_2019_Jun_17_1531_998,True,2019_Jun_17_1531,2IFC,2,MIPA23,
2IFC,49,0,49,0,5.7,-1,correct answer,0.334333999956,False,True,stimulusMIPA23_2IFC_2019_Jun_17_1531_999,stimulusMIPA23_2IFC_2019_Jun_17_1531_1000,True,2019_Jun_17_1531,2IFC,2,MIPA23,
2IFC,50,0,50,0,9.6,-1,wrong answer,0.36734539998,True,False,stimulusMIPA23_2IFC_2019_Jun_17_1531_1001,stimulusMIPA23_2IFC_2019_Jun_17_1531_1002,True,2019_Jun_17_1531,2IFC,2,MIPA23,
2IFC,51,0,51,0,8.6,-1,correct answer,0.434136399999,True,False,stimulusMIPA23_2IFC_2019_Jun_17_1531_1003,stimulusMIPA23_2IFC_2019_Jun_17_1531_1004,True,2019_Jun_17_1531,2IFC,2,MIPA23,
2IFC,52,0,52,0,7.6,-1,wrong answer,0.133828200051,True,False,stimulusMIPA23_2IFC_2019_Jun_17_1531_1005,stimulusMIPA23_2IFC_2019_Jun_17_1531_1006,True,2019_Jun_17_1531,2IFC,2,MIPA23,
2IFC,53,0,53,0,9.6,-1,wrong answer,0.134005600004,True,False,stimulusMIPA23_2IFC_2019_Jun_17_1531_1007,stimulusMIPA23_2IFC_2019_Jun_17_1531_1008,True,2019_Jun_17_1531,2IFC,2,MIPA23,
2IFC,54,0,54,0,7.6,-1,correct answer,0.397718099994,True,False,stimulusMIPA23_2IFC_2019_Jun_17_1531_1009,stimulusMIPA23_2IFC_2019_Jun_17_1531_1010,True,2019_Jun_17_1531,2IFC,2,MIPA23,
2IFC,55,0,55,0,4.5,-1,correct answer,0.334330700047,True,False,stimulusMIPA23_2IFC_2019_Jun_17_1531_1011,stimulusMIPA23_2IFC_2019_Jun_17_1531_1012,True,2019_Jun_17_1531,2IFC,2,MIPA23,
2IFC,56,0,56,0,8.6,-1,correct answer,0.36712390004,True,False,stimulusMIPA23_2IFC_2019_Jun_17_1531_1013,stimulusMIPA23_2IFC_2019_Jun_17_1531_1014,True,2019_Jun_17_1531,2IFC,2,MIPA23,
2IFC,57,0,57,0,4.5,-1,correct answer,0.534376099997,True,False,stimulusMIPA23_2IFC_2019_Jun_17_1531_1015,stimulusMIPA23_2IFC_2019_Jun_17_1531_1016,True,2019_Jun_17_1531,2IFC,2,MIPA23,
2IFC,58,0,58,0,7.6,-1,correct answer,0.500578499981,False,True,stimulusMIPA23_2IFC_2019_Jun_17_1531_1017,stimulusMIPA23_2IFC_2019_Jun_17_1531_1018,True,2019_Jun_17_1531,2IFC,2,MIPA23,
2IFC,59,0,59,0,2.9,-1,correct answer,0.433922200056,True,False,stimulusMIPA23_2IFC_2019_Jun_17_1531_1019,stimulusMIPA23_2IFC_2019_Jun_17_1531_1020,True,2019_Jun_17_1531,2IFC,2,MIPA23,
2IFC,60,0,60,0,5.7,-1,wrong answer,0.435873700015,False,True,stimulusMIPA23_2IFC_2019_Jun_17_1531_1021,stimulusMIPA23_2IFC_2019_Jun_17_1531_1022,True,2019_Jun_17_1531,2IFC,2,MIPA23,
2IFC,61,0,61,0,4.5,-1,wrong answer,0.266660600028,False,True,stimulusMIPA23_2IFC_2019_Jun_17_1531_1023,stimulusMIPA23_2IFC_2019_Jun_17_1531_1024,True,2019_Jun_17_1531,2IFC,2,MIPA23,
2IFC,62,0,62,0,2.9,-1,wrong answer,0.133877000015,True,False,stimulusMIPA23_2IFC_2019_Jun_17_1531_1025,stimulusMIPA23_2IFC_2019_Jun_17_1531_1026,True,2019_Jun_17_1531,2IFC,2,MIPA23,
2IFC,63,0,63,0,4.5,-1,wrong answer,0.367490999983,True,False,stimulusMIPA23_2IFC_2019_Jun_17_1531_1027,stimulusMIPA23_2IFC_2019_Jun_17_1531_1028,True,2019_Jun_17_1531,2IFC,2,MIPA23,
2IFC,64,0,64,0,10.7,-1,correct answer,0.301687400031,False,True,stimulusMIPA23_2IFC_2019_Jun_17_1531_1029,stimulusMIPA23_2IFC_2019_Jun_17_1531_1030,True,2019_Jun_17_1531,2IFC,2,MIPA23,
2IFC,65,0,65,0,4.5,-1,wrong answer,0.0334856999689,True,False,stimulusMIPA23_2IFC_2019_Jun_17_1531_1031,stimulusMIPA23_2IFC_2019_Jun_17_1531_1032,True,2019_Jun_17_1531,2IFC,2,MIPA23,
2IFC,66,0,66,0,5.7,-1,wrong answer,0.167243100004,False,True,stimulusMIPA23_2IFC_2019_Jun_17_1531_1033,stimulusMIPA23_2IFC_2019_Jun_17_1531_1034,True,2019_Jun_17_1531,2IFC,2,MIPA23,
2IFC,67,0,67,0,6.7,-1,correct answer,0.333994999994,True,False,stimulusMIPA23_2IFC_2019_Jun_17_1531_1035,stimulusMIPA23_2IFC_2019_Jun_17_1531_1036,True,2019_Jun_17_1531,2IFC,2,MIPA23,
2IFC,68,0,68,0,4.5,-1,correct answer,0.301841499982,False,True,stimulusMIPA23_2IFC_2019_Jun_17_1531_1037,stimulusMIPA23_2IFC_2019_Jun_17_1531_1038,True,2019_Jun_17_1531,2IFC,2,MIPA23,
2IFC,69,0,69,0,2.9,-1,wrong answer,0.200890599983,True,False,stimulusMIPA23_2IFC_2019_Jun_17_1531_1039,stimulusMIPA23_2IFC_2019_Jun_17_1531_1040,True,2019_Jun_17_1531,2IFC,2,MIPA23,
2IFC,70,0,70,0,10.7,-1,correct answer,0.233769600047,True,False,stimulusMIPA23_2IFC_2019_Jun_17_1531_1041,stimulusMIPA23_2IFC_2019_Jun_17_1531_1042,True,2019_Jun_17_1531,2IFC,2,MIPA23,
2IFC,71,0,71,0,9.6,-1,correct answer,0.299970599997,True,False,stimulusMIPA23_2IFC_2019_Jun_17_1531_1043,stimulusMIPA23_2IFC_2019_Jun_17_1531_1044,True,2019_Jun_17_1531,2IFC,2,MIPA23,
2IFC,72,0,72,0,6.7,-1,correct answer,0.7005794,True,False,stimulusMIPA23_2IFC_2019_Jun_17_1531_1045,stimulusMIPA23_2IFC_2019_Jun_17_1531_1046,True,2019_Jun_17_1531,2IFC,2,MIPA23,
2IFC,73,0,73,0,8.6,-1,correct answer,0.468631400028,False,True,stimulusMIPA23_2IFC_2019_Jun_17_1531_1047,stimulusMIPA23_2IFC_2019_Jun_17_1531_1048,True,2019_Jun_17_1531,2IFC,2,MIPA23,
2IFC,74,0,74,0,4.5,-1,correct answer,0.331538700033,True,False,stimulusMIPA23_2IFC_2019_Jun_17_1531_1049,stimulusMIPA23_2IFC_2019_Jun_17_1531_1050,True,2019_Jun_17_1531,2IFC,2,MIPA23,
2IFC,0,0,0,0,5.7,-1,wrong answer,0.333986300044,True,False,stimulusMIPA23_2IFC_2019_Jun_17_1531_1051,stimulusMIPA23_2IFC_2019_Jun_17_1531_1052,True,2019_Jun_17_1531,2IFC,2,MIPA23,
2IFC,1,0,1,0,7.6,-1,correct answer,0.200972499966,False,True,stimulusMIPA23_2IFC_2019_Jun_17_1531_1053,stimulusMIPA23_2IFC_2019_Jun_17_1531_1054,True,2019_Jun_17_1531,2IFC,2,MIPA23,
2IFC,2,0,2,0,5.7,-1,correct answer,0.233131400018,False,True,stimulusMIPA23_2IFC_2019_Jun_17_1531_1055,stimulusMIPA23_2IFC_2019_Jun_17_1531_1056,True,2019_Jun_17_1531,2IFC,2,MIPA23,
2IFC,3,0,3,0,6.7,-1,correct answer,0.133464500017,True,False,stimulusMIPA23_2IFC_2019_Jun_17_1531_1057,stimulusMIPA23_2IFC_2019_Jun_17_1531_1058,True,2019_Jun_17_1531,2IFC,2,MIPA23,
2IFC,4,0,4,0,6.7,-1,correct answer,0.200289300003,False,True,stimulusMIPA23_2IFC_2019_Jun_17_1531_1059,stimulusMIPA23_2IFC_2019_Jun_17_1531_1060,True,2019_Jun_17_1531,2IFC,2,MIPA23,
2IFC,5,0,5,0,7.6,-1,correct answer,0.233939199999,False,True,stimulusMIPA23_2IFC_2019_Jun_17_1531_1061,stimulusMIPA23_2IFC_2019_Jun_17_1531_1062,True,2019_Jun_17_1531,2IFC,2,MIPA23,
2IFC,6,0,6,0,4.5,-1,wrong answer,0.23604540003,True,False,stimulusMIPA23_2IFC_2019_Jun_17_1531_1063,stimulusMIPA23_2IFC_2019_Jun_17_1531_1064,True,2019_Jun_17_1531,2IFC,2,MIPA23,
2IFC,7,0,7,0,4.5,-1,correct answer,0.133887799981,True,False,stimulusMIPA23_2IFC_2019_Jun_17_1531_1065,stimulusMIPA23_2IFC_2019_Jun_17_1531_1066,True,2019_Jun_17_1531,2IFC,2,MIPA23,
2IFC,8,0,8,0,9.6,-1,correct answer,0.0335176999797,False,True,stimulusMIPA23_2IFC_2019_Jun_17_1531_1067,stimulusMIPA23_2IFC_2019_Jun_17_1531_1068,True,2019_Jun_17_1531,2IFC,2,MIPA23,
2IFC,9,0,9,0,7.6,-1,correct answer,0.0669206000166,False,True,stimulusMIPA23_2IFC_2019_Jun_17_1531_1069,stimulusMIPA23_2IFC_2019_Jun_17_1531_1070,True,2019_Jun_17_1531,2IFC,2,MIPA23,
2IFC,10,0,10,0,5.7,-1,correct answer,0.0667269999976,False,True,stimulusMIPA23_2IFC_2019_Jun_17_1531_1071,stimulusMIPA23_2IFC_2019_Jun_17_1531_1072,True,2019_Jun_17_1531,2IFC,2,MIPA23,
2IFC,11,0,11,0,9.6,-1,correct answer,0.100309000001,False,True,stimulusMIPA23_2IFC_2019_Jun_17_1531_1073,stimulusMIPA23_2IFC_2019_Jun_17_1531_1074,True,2019_Jun_17_1531,2IFC,2,MIPA23,
2IFC,12,0,12,0,9.6,-1,correct answer,0.100067099964,False,True,stimulusMIPA23_2IFC_2019_Jun_17_1531_1075,stimulusMIPA23_2IFC_2019_Jun_17_1531_1076,True,2019_Jun_17_1531,2IFC,2,MIPA23,
2IFC,13,0,13,0,10.7,-1,correct answer,0.101901699963,True,False,stimulusMIPA23_2IFC_2019_Jun_17_1531_1077,stimulusMIPA23_2IFC_2019_Jun_17_1531_1078,True,2019_Jun_17_1531,2IFC,2,MIPA23,
2IFC,14,0,14,0,4.5,-1,correct answer,0.16751910001,True,False,stimulusMIPA23_2IFC_2019_Jun_17_1531_1079,stimulusMIPA23_2IFC_2019_Jun_17_1531_1080,True,2019_Jun_17_1531,2IFC,2,MIPA23,
2IFC,15,0,15,0,7.6,-1,correct answer,0.234037899994,False,True,stimulusMIPA23_2IFC_2019_Jun_17_1531_1081,stimulusMIPA23_2IFC_2019_Jun_17_1531_1082,True,2019_Jun_17_1531,2IFC,2,MIPA23,
2IFC,16,0,16,0,6.7,-1,correct answer,0.0340038999566,False,True,stimulusMIPA23_2IFC_2019_Jun_17_1531_1083,stimulusMIPA23_2IFC_2019_Jun_17_1531_1084,True,2019_Jun_17_1531,2IFC,2,MIPA23,
2IFC,17,0,17,0,4.5,-1,wrong answer,0.13373609999,True,False,stimulusMIPA23_2IFC_2019_Jun_17_1531_1085,stimulusMIPA23_2IFC_2019_Jun_17_1531_1086,True,2019_Jun_17_1531,2IFC,2,MIPA23,
2IFC,18,0,18,0,4.5,-1,wrong answer,0.0673749999842,False,True,stimulusMIPA23_2IFC_2019_Jun_17_1531_1087,stimulusMIPA23_2IFC_2019_Jun_17_1531_1088,True,2019_Jun_17_1531,2IFC,2,MIPA23,
2IFC,19,0,19,0,2.9,-1,correct answer,0.133678300015,False,True,stimulusMIPA23_2IFC_2019_Jun_17_1531_1089,stimulusMIPA23_2IFC_2019_Jun_17_1531_1090,True,2019_Jun_17_1531,2IFC,2,MIPA23,
2IFC,20,0,20,0,8.6,-1,correct answer,0.0685277000302,False,True,stimulusMIPA23_2IFC_2019_Jun_17_1531_1091,stimulusMIPA23_2IFC_2019_Jun_17_1531_1092,True,2019_Jun_17_1531,2IFC,2,MIPA23,
2IFC,21,0,21,0,6.7,-1,correct answer,0.101573600026,True,False,stimulusMIPA23_2IFC_2019_Jun_17_1531_1093,stimulusMIPA23_2IFC_2019_Jun_17_1531_1094,True,2019_Jun_17_1531,2IFC,2,MIPA23,
2IFC,22,0,22,0,2.9,-1,wrong answer,0.267169800005,False,True,stimulusMIPA23_2IFC_2019_Jun_17_1531_1095,stimulusMIPA23_2IFC_2019_Jun_17_1531_1096,True,2019_Jun_17_1531,2IFC,2,MIPA23,
2IFC,23,0,23,0,4.5,-1,wrong answer,0.0658443000284,True,False,stimulusMIPA23_2IFC_2019_Jun_17_1531_1097,stimulusMIPA23_2IFC_2019_Jun_17_1531_1098,True,2019_Jun_17_1531,2IFC,2,MIPA23,
2IFC,24,0,24,0,4.5,-1,correct answer,0.0339706999948,False,True,stimulusMIPA23_2IFC_2019_Jun_17_1531_1099,stimulusMIPA23_2IFC_2019_Jun_17_1531_1100,True,2019_Jun_17_1531,2IFC,2,MIPA23,
2IFC,25,0,25,0,2.9,-1,wrong answer,0.1670208,False,True,stimulusMIPA23_2IFC_2019_Jun_17_1531_1101,stimulusMIPA23_2IFC_2019_Jun_17_1531_1102,True,2019_Jun_17_1531,2IFC,2,MIPA23,
