Task,trials.thisRepN,trials.thisTrialN,trials.thisN,trials.thisIndex,time_response_second,response_2IFCnew,response_key2Interval_2IFCnew,signal_intensity,constant Value,response,time_response,signal_on_stimuluspos1,signal_on_stimuluspos2,stimulus_name_pos1,stimulus_name_pos2,random_intensity,date,expName,session,participant,
2IFCnew,0,0,0,0,0.333527000039,2,Yes,6.7,-1,Correct Rejection,0.501044999983,False,True,stimulusMIPA23_2IFCnew_2019_Jun_17_1450_1,stimulusMIPA23_2IFCnew_2019_Jun_17_1450_2,True,2019_Jun_17_1450,2IFCnew,2,MIPA23,
2IFCnew,1,0,1,0,0.400207800034,4,Yes,8.6,-1,Miss,0.565788900014,True,False,stimulusMIPA23_2IFCnew_2019_Jun_17_1450_3,stimulusMIPA23_2IFCnew_2019_Jun_17_1450_4,True,2019_Jun_17_1450,2IFCnew,2,MIPA23,
2IFCnew,2,0,2,0,0.467492899974,2,Yes,6.7,-1,Correct Rejection,0.7340234,False,True,stimulusMIPA23_2IFCnew_2019_Jun_17_1450_5,stimulusMIPA23_2IFCnew_2019_Jun_17_1450_6,True,2019_Jun_17_1450,2IFCnew,2,MIPA23,
2IFCnew,3,0,3,0,0.433866399981,2,Yes,8.6,-1,Correct Rejection,0.667317299987,False,True,stimulusMIPA23_2IFCnew_2019_Jun_17_1450_7,stimulusMIPA23_2IFCnew_2019_Jun_17_1450_8,True,2019_Jun_17_1450,2IFCnew,2,MIPA23,
2IFCnew,4,0,4,0,0.300321499992,1,No,8.6,-1,Hit,0.633430199989,True,False,stimulusMIPA23_2IFCnew_2019_Jun_17_1450_9,stimulusMIPA23_2IFCnew_2019_Jun_17_1450_10,True,2019_Jun_17_1450,2IFCnew,2,MIPA23,
2IFCnew,5,0,5,0,0.599899599969,2,Yes,9.6,-1,Correct Rejection,0.733777799993,False,True,stimulusMIPA23_2IFCnew_2019_Jun_17_1450_11,stimulusMIPA23_2IFCnew_2019_Jun_17_1450_12,True,2019_Jun_17_1450,2IFCnew,2,MIPA23,
2IFCnew,6,0,6,0,0.433595099952,2,Yes,2.9,-1,Correct Rejection,0.601808699954,False,True,stimulusMIPA23_2IFCnew_2019_Jun_17_1450_13,stimulusMIPA23_2IFCnew_2019_Jun_17_1450_14,True,2019_Jun_17_1450,2IFCnew,2,MIPA23,
2IFCnew,7,0,7,0,0.300463999971,1,No,7.6,-1,Hit,0.601890599995,True,False,stimulusMIPA23_2IFCnew_2019_Jun_17_1450_15,stimulusMIPA23_2IFCnew_2019_Jun_17_1450_16,True,2019_Jun_17_1450,2IFCnew,2,MIPA23,
2IFCnew,8,0,8,0,0.467069700011,1,No,7.6,-1,Hit,0.767267099989,True,False,stimulusMIPA23_2IFCnew_2019_Jun_17_1450_17,stimulusMIPA23_2IFCnew_2019_Jun_17_1450_18,True,2019_Jun_17_1450,2IFCnew,2,MIPA23,
2IFCnew,9,0,9,0,0.433977800014,2,Yes,6.7,-1,Correct Rejection,0.633755700022,False,True,stimulusMIPA23_2IFCnew_2019_Jun_17_1450_19,stimulusMIPA23_2IFCnew_2019_Jun_17_1450_20,True,2019_Jun_17_1450,2IFCnew,2,MIPA23,
2IFCnew,10,0,10,0,0.467117300024,4,Yes,2.9,-1,Miss,0.60094959999,True,False,stimulusMIPA23_2IFCnew_2019_Jun_17_1450_21,stimulusMIPA23_2IFCnew_2019_Jun_17_1450_22,True,2019_Jun_17_1450,2IFCnew,2,MIPA23,
2IFCnew,11,0,11,0,0.467283899954,2,Yes,9.6,-1,Correct Rejection,0.767429,False,True,stimulusMIPA23_2IFCnew_2019_Jun_17_1450_23,stimulusMIPA23_2IFCnew_2019_Jun_17_1450_24,True,2019_Jun_17_1450,2IFCnew,2,MIPA23,
2IFCnew,12,0,12,0,0.434140100027,2,Yes,7.6,-1,Correct Rejection,0.635034099978,False,True,stimulusMIPA23_2IFCnew_2019_Jun_17_1450_25,stimulusMIPA23_2IFCnew_2019_Jun_17_1450_26,True,2019_Jun_17_1450,2IFCnew,2,MIPA23,
2IFCnew,13,0,13,0,0.633917399973,8,No,2.9,-1,Correct Rejection,0.734483200009,False,True,stimulusMIPA23_2IFCnew_2019_Jun_17_1450_27,stimulusMIPA23_2IFCnew_2019_Jun_17_1450_28,True,2019_Jun_17_1450,2IFCnew,2,MIPA23,
2IFCnew,14,0,14,0,0.630114600004,2,Yes,9.6,-1,Correct Rejection,0.901297000004,False,True,stimulusMIPA23_2IFCnew_2019_Jun_17_1450_29,stimulusMIPA23_2IFCnew_2019_Jun_17_1450_30,True,2019_Jun_17_1450,2IFCnew,2,MIPA23,
2IFCnew,15,0,15,0,0.566948199994,2,Yes,10.7,-1,Correct Rejection,0.567749500042,False,True,stimulusMIPA23_2IFCnew_2019_Jun_17_1450_31,stimulusMIPA23_2IFCnew_2019_Jun_17_1450_32,True,2019_Jun_17_1450,2IFCnew,2,MIPA23,
2IFCnew,16,0,16,0,0.533472099982,6,No,7.6,-1,Miss,0.600827000046,True,False,stimulusMIPA23_2IFCnew_2019_Jun_17_1450_33,stimulusMIPA23_2IFCnew_2019_Jun_17_1450_34,True,2019_Jun_17_1450,2IFCnew,2,MIPA23,
2IFCnew,17,0,17,0,0.467440899985,2,Yes,6.7,-1,Correct Rejection,0.601244799967,False,True,stimulusMIPA23_2IFCnew_2019_Jun_17_1450_35,stimulusMIPA23_2IFCnew_2019_Jun_17_1450_36,True,2019_Jun_17_1450,2IFCnew,2,MIPA23,
2IFCnew,18,0,18,0,0.600733600033,8,No,4.5,-1,Correct Rejection,0.535201399995,False,True,stimulusMIPA23_2IFCnew_2019_Jun_17_1450_37,stimulusMIPA23_2IFCnew_2019_Jun_17_1450_38,True,2019_Jun_17_1450,2IFCnew,2,MIPA23,
2IFCnew,19,0,19,0,0.567316800007,2,Yes,7.6,-1,Correct Rejection,0.801114000031,False,True,stimulusMIPA23_2IFCnew_2019_Jun_17_1450_39,stimulusMIPA23_2IFCnew_2019_Jun_17_1450_40,True,2019_Jun_17_1450,2IFCnew,2,MIPA23,
2IFCnew,20,0,20,0,0.633588199969,2,Yes,6.7,-1,Correct Rejection,0.600414199987,False,True,stimulusMIPA23_2IFCnew_2019_Jun_17_1450_41,stimulusMIPA23_2IFCnew_2019_Jun_17_1450_42,True,2019_Jun_17_1450,2IFCnew,2,MIPA23,
2IFCnew,21,0,21,0,0.467493799981,2,Yes,10.7,-1,Correct Rejection,0.499616199988,False,True,stimulusMIPA23_2IFCnew_2019_Jun_17_1450_43,stimulusMIPA23_2IFCnew_2019_Jun_17_1450_44,True,2019_Jun_17_1450,2IFCnew,2,MIPA23,
2IFCnew,22,0,22,0,0.501356199966,6,No,5.7,-1,Miss,0.635423699976,True,False,stimulusMIPA23_2IFCnew_2019_Jun_17_1450_45,stimulusMIPA23_2IFCnew_2019_Jun_17_1450_46,True,2019_Jun_17_1450,2IFCnew,2,MIPA23,
2IFCnew,23,0,23,0,0.600523800007,2,Yes,6.7,-1,Correct Rejection,0.600897700002,False,True,stimulusMIPA23_2IFCnew_2019_Jun_17_1450_47,stimulusMIPA23_2IFCnew_2019_Jun_17_1450_48,True,2019_Jun_17_1450,2IFCnew,2,MIPA23,
2IFCnew,24,0,24,0,0.6007369,2,Yes,7.6,-1,Correct Rejection,0.600576900004,False,True,stimulusMIPA23_2IFCnew_2019_Jun_17_1450_49,stimulusMIPA23_2IFCnew_2019_Jun_17_1450_50,True,2019_Jun_17_1450,2IFCnew,2,MIPA23,
2IFCnew,25,0,25,0,0.467108400015,6,No,5.7,-1,Miss,0.533833099995,True,False,stimulusMIPA23_2IFCnew_2019_Jun_17_1450_51,stimulusMIPA23_2IFCnew_2019_Jun_17_1450_52,True,2019_Jun_17_1450,2IFCnew,2,MIPA23,
2IFCnew,26,0,26,0,0.433635600028,4,Yes,6.7,-1,Miss,0.568824800022,True,False,stimulusMIPA23_2IFCnew_2019_Jun_17_1450_53,stimulusMIPA23_2IFCnew_2019_Jun_17_1450_54,True,2019_Jun_17_1450,2IFCnew,2,MIPA23,
2IFCnew,27,0,27,0,0.267215200001,1,No,8.6,-1,Hit,0.667065199988,True,False,stimulusMIPA23_2IFCnew_2019_Jun_17_1450_55,stimulusMIPA23_2IFCnew_2019_Jun_17_1450_56,True,2019_Jun_17_1450,2IFCnew,2,MIPA23,
2IFCnew,28,0,28,0,0.300587999984,3,No,2.9,-1,False Alarm,0.833773499995,False,True,stimulusMIPA23_2IFCnew_2019_Jun_17_1450_57,stimulusMIPA23_2IFCnew_2019_Jun_17_1450_58,True,2019_Jun_17_1450,2IFCnew,2,MIPA23,
2IFCnew,29,0,29,0,0.533972400008,2,Yes,5.7,-1,Correct Rejection,0.901007600012,False,True,stimulusMIPA23_2IFCnew_2019_Jun_17_1450_59,stimulusMIPA23_2IFCnew_2019_Jun_17_1450_60,True,2019_Jun_17_1450,2IFCnew,2,MIPA23,
2IFCnew,30,0,30,0,0.300900000031,1,No,6.7,-1,Hit,0.801027900015,True,False,stimulusMIPA23_2IFCnew_2019_Jun_17_1450_61,stimulusMIPA23_2IFCnew_2019_Jun_17_1450_62,True,2019_Jun_17_1450,2IFCnew,2,MIPA23,
2IFCnew,31,0,31,0,0.533757800004,6,No,2.9,-1,Miss,0.700600300042,True,False,stimulusMIPA23_2IFCnew_2019_Jun_17_1450_63,stimulusMIPA23_2IFCnew_2019_Jun_17_1450_64,True,2019_Jun_17_1450,2IFCnew,2,MIPA23,
2IFCnew,32,0,32,0,0.466716199997,8,No,8.6,-1,Correct Rejection,0.635110599978,False,True,stimulusMIPA23_2IFCnew_2019_Jun_17_1450_65,stimulusMIPA23_2IFCnew_2019_Jun_17_1450_66,True,2019_Jun_17_1450,2IFCnew,2,MIPA23,
2IFCnew,33,0,33,0,0.467045900004,2,Yes,7.6,-1,Correct Rejection,0.60015329998,False,True,stimulusMIPA23_2IFCnew_2019_Jun_17_1450_67,stimulusMIPA23_2IFCnew_2019_Jun_17_1450_68,True,2019_Jun_17_1450,2IFCnew,2,MIPA23,
2IFCnew,34,0,34,0,0.700556399999,4,Yes,2.9,-1,Miss,0.700632199994,True,False,stimulusMIPA23_2IFCnew_2019_Jun_17_1450_69,stimulusMIPA23_2IFCnew_2019_Jun_17_1450_70,True,2019_Jun_17_1450,2IFCnew,2,MIPA23,
2IFCnew,35,0,35,0,0.73437130003,2,Yes,9.6,-1,Correct Rejection,0.734481299995,False,True,stimulusMIPA23_2IFCnew_2019_Jun_17_1450_71,stimulusMIPA23_2IFCnew_2019_Jun_17_1450_72,True,2019_Jun_17_1450,2IFCnew,2,MIPA23,
2IFCnew,36,0,36,0,0.333589999995,1,No,5.7,-1,Hit,0.633048100048,True,False,stimulusMIPA23_2IFCnew_2019_Jun_17_1450_73,stimulusMIPA23_2IFCnew_2019_Jun_17_1450_74,True,2019_Jun_17_1450,2IFCnew,2,MIPA23,
2IFCnew,37,0,37,0,0.46749000001,2,Yes,4.5,-1,Correct Rejection,0.633725400025,False,True,stimulusMIPA23_2IFCnew_2019_Jun_17_1450_75,stimulusMIPA23_2IFCnew_2019_Jun_17_1450_76,True,2019_Jun_17_1450,2IFCnew,2,MIPA23,
2IFCnew,38,0,38,0,0.233242499991,1,No,4.5,-1,Hit,0.633816799964,True,False,stimulusMIPA23_2IFCnew_2019_Jun_17_1450_77,stimulusMIPA23_2IFCnew_2019_Jun_17_1450_78,True,2019_Jun_17_1450,2IFCnew,2,MIPA23,
2IFCnew,39,0,39,0,0.334726399975,2,Yes,5.7,-1,Correct Rejection,0.738471999997,False,True,stimulusMIPA23_2IFCnew_2019_Jun_17_1450_79,stimulusMIPA23_2IFCnew_2019_Jun_17_1450_80,True,2019_Jun_17_1450,2IFCnew,2,MIPA23,
2IFCnew,40,0,40,0,0.333049700013,2,Yes,8.6,-1,Correct Rejection,0.700776499987,False,True,stimulusMIPA23_2IFCnew_2019_Jun_17_1450_81,stimulusMIPA23_2IFCnew_2019_Jun_17_1450_82,True,2019_Jun_17_1450,2IFCnew,2,MIPA23,
2IFCnew,41,0,41,0,0.434026800038,2,Yes,4.5,-1,Correct Rejection,0.667670499999,False,True,stimulusMIPA23_2IFCnew_2019_Jun_17_1450_83,stimulusMIPA23_2IFCnew_2019_Jun_17_1450_84,True,2019_Jun_17_1450,2IFCnew,2,MIPA23,
2IFCnew,42,0,42,0,0.332984299981,2,Yes,6.7,-1,Correct Rejection,0.567377700005,False,True,stimulusMIPA23_2IFCnew_2019_Jun_17_1450_85,stimulusMIPA23_2IFCnew_2019_Jun_17_1450_86,True,2019_Jun_17_1450,2IFCnew,2,MIPA23,
2IFCnew,43,0,43,0,0.400339299988,3,No,8.6,-1,False Alarm,0.834332500002,False,True,stimulusMIPA23_2IFCnew_2019_Jun_17_1450_87,stimulusMIPA23_2IFCnew_2019_Jun_17_1450_88,True,2019_Jun_17_1450,2IFCnew,2,MIPA23,
2IFCnew,44,0,44,0,0.333660700009,2,Yes,6.7,-1,Correct Rejection,0.667230800027,False,True,stimulusMIPA23_2IFCnew_2019_Jun_17_1450_89,stimulusMIPA23_2IFCnew_2019_Jun_17_1450_90,True,2019_Jun_17_1450,2IFCnew,2,MIPA23,
2IFCnew,45,0,45,0,0.467354899971,8,No,9.6,-1,Correct Rejection,0.667620800028,False,True,stimulusMIPA23_2IFCnew_2019_Jun_17_1450_91,stimulusMIPA23_2IFCnew_2019_Jun_17_1450_92,True,2019_Jun_17_1450,2IFCnew,2,MIPA23,
2IFCnew,46,0,46,0,0.399388399965,1,No,4.5,-1,Hit,0.767445300007,True,False,stimulusMIPA23_2IFCnew_2019_Jun_17_1450_93,stimulusMIPA23_2IFCnew_2019_Jun_17_1450_94,True,2019_Jun_17_1450,2IFCnew,2,MIPA23,
2IFCnew,47,0,47,0,0.26767000003,4,Yes,2.9,-1,Miss,0.634294299991,True,False,stimulusMIPA23_2IFCnew_2019_Jun_17_1450_95,stimulusMIPA23_2IFCnew_2019_Jun_17_1450_96,True,2019_Jun_17_1450,2IFCnew,2,MIPA23,
2IFCnew,48,0,48,0,-1,0,Yes,4.5,-1,No Answer,-1,True,False,stimulusMIPA23_2IFCnew_2019_Jun_17_1450_97,stimulusMIPA23_2IFCnew_2019_Jun_17_1450_98,True,2019_Jun_17_1450,2IFCnew,2,MIPA23,
2IFCnew,49,0,49,0,0.267198500049,2,Yes,10.7,-1,Correct Rejection,0.634250300005,False,True,stimulusMIPA23_2IFCnew_2019_Jun_17_1450_99,stimulusMIPA23_2IFCnew_2019_Jun_17_1450_100,True,2019_Jun_17_1450,2IFCnew,2,MIPA23,
2IFCnew,50,0,50,0,0.266969799995,1,No,10.7,-1,Hit,0.700267999957,True,False,stimulusMIPA23_2IFCnew_2019_Jun_17_1450_101,stimulusMIPA23_2IFCnew_2019_Jun_17_1450_102,True,2019_Jun_17_1450,2IFCnew,2,MIPA23,
2IFCnew,51,0,51,0,0.268053200038,2,Yes,8.6,-1,Correct Rejection,0.566796300001,False,True,stimulusMIPA23_2IFCnew_2019_Jun_17_1450_103,stimulusMIPA23_2IFCnew_2019_Jun_17_1450_104,True,2019_Jun_17_1450,2IFCnew,2,MIPA23,
2IFCnew,52,0,52,0,0.200620999967,1,No,9.6,-1,Hit,0.601919300039,True,False,stimulusMIPA23_2IFCnew_2019_Jun_17_1450_105,stimulusMIPA23_2IFCnew_2019_Jun_17_1450_106,True,2019_Jun_17_1450,2IFCnew,2,MIPA23,
2IFCnew,53,0,53,0,0.130381800001,1,No,7.6,-1,Hit,0.635083300003,True,False,stimulusMIPA23_2IFCnew_2019_Jun_17_1450_107,stimulusMIPA23_2IFCnew_2019_Jun_17_1450_108,True,2019_Jun_17_1450,2IFCnew,2,MIPA23,
2IFCnew,54,0,54,0,0.234230300004,1,No,7.6,-1,Hit,0.634204400005,True,False,stimulusMIPA23_2IFCnew_2019_Jun_17_1450_109,stimulusMIPA23_2IFCnew_2019_Jun_17_1450_110,True,2019_Jun_17_1450,2IFCnew,2,MIPA23,
2IFCnew,55,0,55,0,0.267017800012,2,Yes,2.9,-1,Correct Rejection,0.66729870002,False,True,stimulusMIPA23_2IFCnew_2019_Jun_17_1450_111,stimulusMIPA23_2IFCnew_2019_Jun_17_1450_112,True,2019_Jun_17_1450,2IFCnew,2,MIPA23,
2IFCnew,56,0,56,0,0.166899500007,1,No,8.6,-1,Hit,0.633628699987,True,False,stimulusMIPA23_2IFCnew_2019_Jun_17_1450_113,stimulusMIPA23_2IFCnew_2019_Jun_17_1450_114,True,2019_Jun_17_1450,2IFCnew,2,MIPA23,
2IFCnew,57,0,57,0,0.266806599975,4,Yes,2.9,-1,Miss,0.632999200025,True,False,stimulusMIPA23_2IFCnew_2019_Jun_17_1450_115,stimulusMIPA23_2IFCnew_2019_Jun_17_1450_116,True,2019_Jun_17_1450,2IFCnew,2,MIPA23,
2IFCnew,58,0,58,0,0.567232300004,5,Yes,2.9,-1,False Alarm,0.767596099991,False,True,stimulusMIPA23_2IFCnew_2019_Jun_17_1450_117,stimulusMIPA23_2IFCnew_2019_Jun_17_1450_118,True,2019_Jun_17_1450,2IFCnew,2,MIPA23,
2IFCnew,59,0,59,0,0.200335400004,1,No,8.6,-1,Hit,0.733447499981,True,False,stimulusMIPA23_2IFCnew_2019_Jun_17_1450_119,stimulusMIPA23_2IFCnew_2019_Jun_17_1450_120,True,2019_Jun_17_1450,2IFCnew,2,MIPA23,
2IFCnew,60,0,60,0,0.366416400007,2,Yes,7.6,-1,Correct Rejection,0.734043700038,False,True,stimulusMIPA23_2IFCnew_2019_Jun_17_1450_121,stimulusMIPA23_2IFCnew_2019_Jun_17_1450_122,True,2019_Jun_17_1450,2IFCnew,2,MIPA23,
2IFCnew,61,0,61,0,0.400524099998,2,Yes,9.6,-1,Correct Rejection,0.635454899981,False,True,stimulusMIPA23_2IFCnew_2019_Jun_17_1450_123,stimulusMIPA23_2IFCnew_2019_Jun_17_1450_124,True,2019_Jun_17_1450,2IFCnew,2,MIPA23,
2IFCnew,62,0,62,0,0.500662000035,8,No,7.6,-1,Correct Rejection,0.767413699999,False,True,stimulusMIPA23_2IFCnew_2019_Jun_17_1450_125,stimulusMIPA23_2IFCnew_2019_Jun_17_1450_126,True,2019_Jun_17_1450,2IFCnew,2,MIPA23,
2IFCnew,63,0,63,0,0.432907400012,2,Yes,2.9,-1,Correct Rejection,0.667418800003,False,True,stimulusMIPA23_2IFCnew_2019_Jun_17_1450_127,stimulusMIPA23_2IFCnew_2019_Jun_17_1450_128,True,2019_Jun_17_1450,2IFCnew,2,MIPA23,
2IFCnew,64,0,64,0,0.367341199948,2,Yes,4.5,-1,Correct Rejection,0.667324499984,False,True,stimulusMIPA23_2IFCnew_2019_Jun_17_1450_129,stimulusMIPA23_2IFCnew_2019_Jun_17_1450_130,True,2019_Jun_17_1450,2IFCnew,2,MIPA23,
2IFCnew,65,0,65,0,0.467338899965,2,Yes,4.5,-1,Correct Rejection,0.601126299996,False,True,stimulusMIPA23_2IFCnew_2019_Jun_17_1450_131,stimulusMIPA23_2IFCnew_2019_Jun_17_1450_132,True,2019_Jun_17_1450,2IFCnew,2,MIPA23,
2IFCnew,66,0,66,0,0.301746600016,1,No,10.7,-1,Hit,0.834780500038,True,False,stimulusMIPA23_2IFCnew_2019_Jun_17_1450_133,stimulusMIPA23_2IFCnew_2019_Jun_17_1450_134,True,2019_Jun_17_1450,2IFCnew,2,MIPA23,
2IFCnew,67,0,67,0,0.467181199987,2,Yes,2.9,-1,Correct Rejection,0.833483099996,False,True,stimulusMIPA23_2IFCnew_2019_Jun_17_1450_135,stimulusMIPA23_2IFCnew_2019_Jun_17_1450_136,True,2019_Jun_17_1450,2IFCnew,2,MIPA23,
2IFCnew,68,0,68,0,0.233934299962,2,Yes,5.7,-1,Correct Rejection,0.568627099972,False,True,stimulusMIPA23_2IFCnew_2019_Jun_17_1450_137,stimulusMIPA23_2IFCnew_2019_Jun_17_1450_138,True,2019_Jun_17_1450,2IFCnew,2,MIPA23,
2IFCnew,69,0,69,0,0.300086000003,2,Yes,6.7,-1,Correct Rejection,0.634662900004,False,True,stimulusMIPA23_2IFCnew_2019_Jun_17_1450_139,stimulusMIPA23_2IFCnew_2019_Jun_17_1450_140,True,2019_Jun_17_1450,2IFCnew,2,MIPA23,
2IFCnew,70,0,70,0,0.400686399953,2,Yes,4.5,-1,Correct Rejection,0.566816099978,False,True,stimulusMIPA23_2IFCnew_2019_Jun_17_1450_141,stimulusMIPA23_2IFCnew_2019_Jun_17_1450_142,True,2019_Jun_17_1450,2IFCnew,2,MIPA23,
2IFCnew,71,0,71,0,0.367348200001,2,Yes,9.6,-1,Correct Rejection,0.599415900011,False,True,stimulusMIPA23_2IFCnew_2019_Jun_17_1450_143,stimulusMIPA23_2IFCnew_2019_Jun_17_1450_144,True,2019_Jun_17_1450,2IFCnew,2,MIPA23,
2IFCnew,72,0,72,0,0.300424500019,2,Yes,5.7,-1,Correct Rejection,0.534833499987,False,True,stimulusMIPA23_2IFCnew_2019_Jun_17_1450_145,stimulusMIPA23_2IFCnew_2019_Jun_17_1450_146,True,2019_Jun_17_1450,2IFCnew,2,MIPA23,
2IFCnew,73,0,73,0,0.301875200006,2,Yes,7.6,-1,Correct Rejection,0.634045200015,False,True,stimulusMIPA23_2IFCnew_2019_Jun_17_1450_147,stimulusMIPA23_2IFCnew_2019_Jun_17_1450_148,True,2019_Jun_17_1450,2IFCnew,2,MIPA23,
2IFCnew,74,0,74,0,0.367004900007,2,Yes,9.6,-1,Correct Rejection,0.467956100008,False,True,stimulusMIPA23_2IFCnew_2019_Jun_17_1450_149,stimulusMIPA23_2IFCnew_2019_Jun_17_1450_150,True,2019_Jun_17_1450,2IFCnew,2,MIPA23,
2IFCnew,0,0,0,0,0.233282600006,2,Yes,9.6,-1,Correct Rejection,0.57003469998,False,True,stimulusMIPA23_2IFCnew_2019_Jun_17_1450_151,stimulusMIPA23_2IFCnew_2019_Jun_17_1450_152,True,2019_Jun_17_1450,2IFCnew,2,MIPA23,
2IFCnew,1,0,1,0,0.233447899984,2,Yes,2.9,-1,Correct Rejection,0.499719899963,False,True,stimulusMIPA23_2IFCnew_2019_Jun_17_1450_153,stimulusMIPA23_2IFCnew_2019_Jun_17_1450_154,True,2019_Jun_17_1450,2IFCnew,2,MIPA23,
2IFCnew,2,0,2,0,0.0669403999927,1,No,9.6,-1,Hit,0.532636600023,True,False,stimulusMIPA23_2IFCnew_2019_Jun_17_1450_155,stimulusMIPA23_2IFCnew_2019_Jun_17_1450_156,True,2019_Jun_17_1450,2IFCnew,2,MIPA23,
2IFCnew,3,0,3,0,0.100441300019,1,No,6.7,-1,Hit,0.534873900004,True,False,stimulusMIPA23_2IFCnew_2019_Jun_17_1450_157,stimulusMIPA23_2IFCnew_2019_Jun_17_1450_158,True,2019_Jun_17_1450,2IFCnew,2,MIPA23,
2IFCnew,4,0,4,0,0.433807599999,3,No,7.6,-1,False Alarm,0.566858200007,False,True,stimulusMIPA23_2IFCnew_2019_Jun_17_1450_159,stimulusMIPA23_2IFCnew_2019_Jun_17_1450_160,True,2019_Jun_17_1450,2IFCnew,2,MIPA23,
2IFCnew,5,0,5,0,0.334008100035,2,Yes,7.6,-1,Correct Rejection,0.533522600017,False,True,stimulusMIPA23_2IFCnew_2019_Jun_17_1450_161,stimulusMIPA23_2IFCnew_2019_Jun_17_1450_162,True,2019_Jun_17_1450,2IFCnew,2,MIPA23,
2IFCnew,6,0,6,0,0.300504599989,2,Yes,4.5,-1,Correct Rejection,0.566164899967,False,True,stimulusMIPA23_2IFCnew_2019_Jun_17_1450_163,stimulusMIPA23_2IFCnew_2019_Jun_17_1450_164,True,2019_Jun_17_1450,2IFCnew,2,MIPA23,
2IFCnew,7,0,7,0,0.498307099973,8,No,2.9,-1,Correct Rejection,0.500417199975,False,True,stimulusMIPA23_2IFCnew_2019_Jun_17_1450_165,stimulusMIPA23_2IFCnew_2019_Jun_17_1450_166,True,2019_Jun_17_1450,2IFCnew,2,MIPA23,
2IFCnew,8,0,8,0,0.367118499998,2,Yes,10.7,-1,Correct Rejection,0.500255100022,False,True,stimulusMIPA23_2IFCnew_2019_Jun_17_1450_167,stimulusMIPA23_2IFCnew_2019_Jun_17_1450_168,True,2019_Jun_17_1450,2IFCnew,2,MIPA23,
2IFCnew,9,0,9,0,0.266864300007,2,Yes,5.7,-1,Correct Rejection,0.500859699969,False,True,stimulusMIPA23_2IFCnew_2019_Jun_17_1450_169,stimulusMIPA23_2IFCnew_2019_Jun_17_1450_170,True,2019_Jun_17_1450,2IFCnew,2,MIPA23,
2IFCnew,10,0,10,0,0.267575400008,4,Yes,4.5,-1,Miss,0.834257299954,True,False,stimulusMIPA23_2IFCnew_2019_Jun_17_1450_171,stimulusMIPA23_2IFCnew_2019_Jun_17_1450_172,True,2019_Jun_17_1450,2IFCnew,2,MIPA23,
2IFCnew,11,0,11,0,0.367171699996,4,Yes,2.9,-1,Miss,0.700005499995,True,False,stimulusMIPA23_2IFCnew_2019_Jun_17_1450_173,stimulusMIPA23_2IFCnew_2019_Jun_17_1450_174,True,2019_Jun_17_1450,2IFCnew,2,MIPA23,
2IFCnew,12,0,12,0,0.733415400027,2,Yes,8.6,-1,Correct Rejection,0.634204000002,False,True,stimulusMIPA23_2IFCnew_2019_Jun_17_1450_175,stimulusMIPA23_2IFCnew_2019_Jun_17_1450_176,True,2019_Jun_17_1450,2IFCnew,2,MIPA23,
2IFCnew,13,0,13,0,0.535742499982,4,Yes,10.7,-1,Miss,0.768107999989,True,False,stimulusMIPA23_2IFCnew_2019_Jun_17_1450_177,stimulusMIPA23_2IFCnew_2019_Jun_17_1450_178,True,2019_Jun_17_1450,2IFCnew,2,MIPA23,
2IFCnew,14,0,14,0,0.300335499982,3,No,9.6,-1,False Alarm,0.866741599981,False,True,stimulusMIPA23_2IFCnew_2019_Jun_17_1450_179,stimulusMIPA23_2IFCnew_2019_Jun_17_1450_180,True,2019_Jun_17_1450,2IFCnew,2,MIPA23,
2IFCnew,15,0,15,0,-1,0,No,10.7,-1,No Answer,-1,True,False,stimulusMIPA23_2IFCnew_2019_Jun_17_1450_181,stimulusMIPA23_2IFCnew_2019_Jun_17_1450_182,True,2019_Jun_17_1450,2IFCnew,2,MIPA23,
2IFCnew,16,0,16,0,0.300399100001,2,Yes,10.7,-1,Correct Rejection,0.633905800001,False,True,stimulusMIPA23_2IFCnew_2019_Jun_17_1450_183,stimulusMIPA23_2IFCnew_2019_Jun_17_1450_184,True,2019_Jun_17_1450,2IFCnew,2,MIPA23,
2IFCnew,17,0,17,0,0.367323100043,5,Yes,9.6,-1,False Alarm,0.634028900007,False,True,stimulusMIPA23_2IFCnew_2019_Jun_17_1450_185,stimulusMIPA23_2IFCnew_2019_Jun_17_1450_186,True,2019_Jun_17_1450,2IFCnew,2,MIPA23,
2IFCnew,18,0,18,0,0.467226100038,2,Yes,2.9,-1,Correct Rejection,0.601209500048,False,True,stimulusMIPA23_2IFCnew_2019_Jun_17_1450_187,stimulusMIPA23_2IFCnew_2019_Jun_17_1450_188,True,2019_Jun_17_1450,2IFCnew,2,MIPA23,
2IFCnew,19,0,19,0,0.566959800024,2,Yes,9.6,-1,Correct Rejection,0.668112300045,False,True,stimulusMIPA23_2IFCnew_2019_Jun_17_1450_189,stimulusMIPA23_2IFCnew_2019_Jun_17_1450_190,True,2019_Jun_17_1450,2IFCnew,2,MIPA23,
2IFCnew,20,0,20,0,0.566739199974,2,Yes,4.5,-1,Correct Rejection,0.600017299992,False,True,stimulusMIPA23_2IFCnew_2019_Jun_17_1450_191,stimulusMIPA23_2IFCnew_2019_Jun_17_1450_192,True,2019_Jun_17_1450,2IFCnew,2,MIPA23,
2IFCnew,21,0,21,0,0.466686400003,3,No,4.5,-1,False Alarm,0.734049200022,False,True,stimulusMIPA23_2IFCnew_2019_Jun_17_1450_193,stimulusMIPA23_2IFCnew_2019_Jun_17_1450_194,True,2019_Jun_17_1450,2IFCnew,2,MIPA23,
2IFCnew,22,0,22,0,0.400800100004,1,No,8.6,-1,Hit,0.767305299989,True,False,stimulusMIPA23_2IFCnew_2019_Jun_17_1450_195,stimulusMIPA23_2IFCnew_2019_Jun_17_1450_196,True,2019_Jun_17_1450,2IFCnew,2,MIPA23,
2IFCnew,23,0,23,0,0.500504399999,1,No,5.7,-1,Hit,0.83429269999,True,False,stimulusMIPA23_2IFCnew_2019_Jun_17_1450_197,stimulusMIPA23_2IFCnew_2019_Jun_17_1450_198,True,2019_Jun_17_1450,2IFCnew,2,MIPA23,
2IFCnew,24,0,24,0,-1,0,No,6.7,-1,No Answer,-1,False,True,stimulusMIPA23_2IFCnew_2019_Jun_17_1450_199,stimulusMIPA23_2IFCnew_2019_Jun_17_1450_200,True,2019_Jun_17_1450,2IFCnew,2,MIPA23,
2IFCnew,25,0,25,0,-1,1,No,6.7,-1,Hit,0.597521500022,True,False,stimulusMIPA23_2IFCnew_2019_Jun_17_1450_201,stimulusMIPA23_2IFCnew_2019_Jun_17_1450_202,True,2019_Jun_17_1450,2IFCnew,2,MIPA23,
2IFCnew,26,0,26,0,0.565904700023,3,No,8.6,-1,False Alarm,0.738219799998,False,True,stimulusMIPA23_2IFCnew_2019_Jun_17_1450_203,stimulusMIPA23_2IFCnew_2019_Jun_17_1450_204,True,2019_Jun_17_1450,2IFCnew,2,MIPA23,
2IFCnew,27,0,27,0,0.429876400041,7,Yes,2.9,-1,Hit,0.638280300016,True,False,stimulusMIPA23_2IFCnew_2019_Jun_17_1450_205,stimulusMIPA23_2IFCnew_2019_Jun_17_1450_206,True,2019_Jun_17_1450,2IFCnew,2,MIPA23,
2IFCnew,28,0,28,0,0.499522100028,1,No,7.6,-1,Hit,0.667412999959,True,False,stimulusMIPA23_2IFCnew_2019_Jun_17_1450_207,stimulusMIPA23_2IFCnew_2019_Jun_17_1450_208,True,2019_Jun_17_1450,2IFCnew,2,MIPA23,
2IFCnew,29,0,29,0,0.466730199987,3,No,5.7,-1,False Alarm,0.734818099998,False,True,stimulusMIPA23_2IFCnew_2019_Jun_17_1450_209,stimulusMIPA23_2IFCnew_2019_Jun_17_1450_210,True,2019_Jun_17_1450,2IFCnew,2,MIPA23,
2IFCnew,30,0,30,0,0.33377550001,2,Yes,10.7,-1,Correct Rejection,0.801163399999,False,True,stimulusMIPA23_2IFCnew_2019_Jun_17_1450_211,stimulusMIPA23_2IFCnew_2019_Jun_17_1450_212,True,2019_Jun_17_1450,2IFCnew,2,MIPA23,
2IFCnew,31,0,31,0,0.567352500046,2,Yes,9.6,-1,Correct Rejection,0.835126799997,False,True,stimulusMIPA23_2IFCnew_2019_Jun_17_1450_213,stimulusMIPA23_2IFCnew_2019_Jun_17_1450_214,True,2019_Jun_17_1450,2IFCnew,2,MIPA23,
2IFCnew,32,0,32,0,0.333245599992,2,Yes,8.6,-1,Correct Rejection,0.601728899986,False,True,stimulusMIPA23_2IFCnew_2019_Jun_17_1450_215,stimulusMIPA23_2IFCnew_2019_Jun_17_1450_216,True,2019_Jun_17_1450,2IFCnew,2,MIPA23,
2IFCnew,33,0,33,0,-1,4,Yes,4.5,-1,Miss,0.636125000019,True,False,stimulusMIPA23_2IFCnew_2019_Jun_17_1450_217,stimulusMIPA23_2IFCnew_2019_Jun_17_1450_218,True,2019_Jun_17_1450,2IFCnew,2,MIPA23,
2IFCnew,34,0,34,0,0.567427599977,4,Yes,4.5,-1,Miss,0.733696699957,True,False,stimulusMIPA23_2IFCnew_2019_Jun_17_1450_219,stimulusMIPA23_2IFCnew_2019_Jun_17_1450_220,True,2019_Jun_17_1450,2IFCnew,2,MIPA23,
2IFCnew,35,0,35,0,0.300849699997,1,No,4.5,-1,Hit,0.701146900014,True,False,stimulusMIPA23_2IFCnew_2019_Jun_17_1450_221,stimulusMIPA23_2IFCnew_2019_Jun_17_1450_222,True,2019_Jun_17_1450,2IFCnew,2,MIPA23,
2IFCnew,36,0,36,0,0.701462399971,5,Yes,5.7,-1,False Alarm,0.634122800024,False,True,stimulusMIPA23_2IFCnew_2019_Jun_17_1450_223,stimulusMIPA23_2IFCnew_2019_Jun_17_1450_224,True,2019_Jun_17_1450,2IFCnew,2,MIPA23,
2IFCnew,37,0,37,0,0.466933900025,2,Yes,7.6,-1,Correct Rejection,0.599767999956,False,True,stimulusMIPA23_2IFCnew_2019_Jun_17_1450_225,stimulusMIPA23_2IFCnew_2019_Jun_17_1450_226,True,2019_Jun_17_1450,2IFCnew,2,MIPA23,
2IFCnew,38,0,38,0,0.233817400003,1,No,10.7,-1,Hit,0.634002199979,True,False,stimulusMIPA23_2IFCnew_2019_Jun_17_1450_227,stimulusMIPA23_2IFCnew_2019_Jun_17_1450_228,True,2019_Jun_17_1450,2IFCnew,2,MIPA23,
2IFCnew,39,0,39,0,-1,0,No,8.6,-1,No Answer,-1,False,True,stimulusMIPA23_2IFCnew_2019_Jun_17_1450_229,stimulusMIPA23_2IFCnew_2019_Jun_17_1450_230,True,2019_Jun_17_1450,2IFCnew,2,MIPA23,
2IFCnew,40,0,40,0,0.333516499959,2,Yes,8.6,-1,Correct Rejection,0.66738910001,False,True,stimulusMIPA23_2IFCnew_2019_Jun_17_1450_231,stimulusMIPA23_2IFCnew_2019_Jun_17_1450_232,True,2019_Jun_17_1450,2IFCnew,2,MIPA23,
2IFCnew,41,0,41,0,0.300555999973,1,No,8.6,-1,Hit,0.667261599971,True,False,stimulusMIPA23_2IFCnew_2019_Jun_17_1450_233,stimulusMIPA23_2IFCnew_2019_Jun_17_1450_234,True,2019_Jun_17_1450,2IFCnew,2,MIPA23,
2IFCnew,42,0,42,0,0.333709700033,1,No,10.7,-1,Hit,0.701097600046,True,False,stimulusMIPA23_2IFCnew_2019_Jun_17_1450_235,stimulusMIPA23_2IFCnew_2019_Jun_17_1450_236,True,2019_Jun_17_1450,2IFCnew,2,MIPA23,
2IFCnew,43,0,43,0,0.167606200033,1,No,7.6,-1,Hit,0.567310600018,True,False,stimulusMIPA23_2IFCnew_2019_Jun_17_1450_237,stimulusMIPA23_2IFCnew_2019_Jun_17_1450_238,True,2019_Jun_17_1450,2IFCnew,2,MIPA23,
2IFCnew,44,0,44,0,0.300543500052,1,No,7.6,-1,Hit,0.633249400009,True,False,stimulusMIPA23_2IFCnew_2019_Jun_17_1450_239,stimulusMIPA23_2IFCnew_2019_Jun_17_1450_240,True,2019_Jun_17_1450,2IFCnew,2,MIPA23,
2IFCnew,45,0,45,0,0.63588180003,6,No,5.7,-1,Miss,0.634051900008,True,False,stimulusMIPA23_2IFCnew_2019_Jun_17_1450_241,stimulusMIPA23_2IFCnew_2019_Jun_17_1450_242,True,2019_Jun_17_1450,2IFCnew,2,MIPA23,
2IFCnew,46,0,46,0,0.333151799976,2,Yes,9.6,-1,Correct Rejection,0.865661199961,False,True,stimulusMIPA23_2IFCnew_2019_Jun_17_1450_243,stimulusMIPA23_2IFCnew_2019_Jun_17_1450_244,True,2019_Jun_17_1450,2IFCnew,2,MIPA23,
2IFCnew,47,0,47,0,0.467069800012,4,Yes,8.6,-1,Miss,0.734413099999,True,False,stimulusMIPA23_2IFCnew_2019_Jun_17_1450_245,stimulusMIPA23_2IFCnew_2019_Jun_17_1450_246,True,2019_Jun_17_1450,2IFCnew,2,MIPA23,
2IFCnew,48,0,48,0,0.500962199993,6,No,4.5,-1,Miss,0.90196680004,True,False,stimulusMIPA23_2IFCnew_2019_Jun_17_1450_247,stimulusMIPA23_2IFCnew_2019_Jun_17_1450_248,True,2019_Jun_17_1450,2IFCnew,2,MIPA23,
2IFCnew,49,0,49,0,0.667584999988,2,Yes,4.5,-1,Correct Rejection,0.635636499966,False,True,stimulusMIPA23_2IFCnew_2019_Jun_17_1450_249,stimulusMIPA23_2IFCnew_2019_Jun_17_1450_250,True,2019_Jun_17_1450,2IFCnew,2,MIPA23,
2IFCnew,50,0,50,0,0.500562800036,8,No,5.7,-1,Correct Rejection,0.533266699989,False,True,stimulusMIPA23_2IFCnew_2019_Jun_17_1450_251,stimulusMIPA23_2IFCnew_2019_Jun_17_1450_252,True,2019_Jun_17_1450,2IFCnew,2,MIPA23,
2IFCnew,51,0,51,0,0.468269400008,2,Yes,4.5,-1,Correct Rejection,0.734373599989,False,True,stimulusMIPA23_2IFCnew_2019_Jun_17_1450_253,stimulusMIPA23_2IFCnew_2019_Jun_17_1450_254,True,2019_Jun_17_1450,2IFCnew,2,MIPA23,
2IFCnew,52,0,52,0,0.766626299999,2,Yes,5.7,-1,Correct Rejection,0.801631599956,False,True,stimulusMIPA23_2IFCnew_2019_Jun_17_1450_255,stimulusMIPA23_2IFCnew_2019_Jun_17_1450_256,True,2019_Jun_17_1450,2IFCnew,2,MIPA23,
2IFCnew,53,0,53,0,0.667340799992,2,Yes,8.6,-1,Correct Rejection,0.668467700016,False,True,stimulusMIPA23_2IFCnew_2019_Jun_17_1450_257,stimulusMIPA23_2IFCnew_2019_Jun_17_1450_258,True,2019_Jun_17_1450,2IFCnew,2,MIPA23,
2IFCnew,54,0,54,0,-1,3,Yes,9.6,-1,Correct Rejection,0.734028599982,False,True,stimulusMIPA23_2IFCnew_2019_Jun_17_1450_259,stimulusMIPA23_2IFCnew_2019_Jun_17_1450_260,True,2019_Jun_17_1450,2IFCnew,2,MIPA23,
2IFCnew,55,0,55,0,-1,1,Yes,5.7,-1,Hit,0.735102900013,True,False,stimulusMIPA23_2IFCnew_2019_Jun_17_1450_261,stimulusMIPA23_2IFCnew_2019_Jun_17_1450_262,True,2019_Jun_17_1450,2IFCnew,2,MIPA23,
2IFCnew,56,0,56,0,0.767315100005,2,Yes,7.6,-1,Correct Rejection,0.899969200022,False,True,stimulusMIPA23_2IFCnew_2019_Jun_17_1450_263,stimulusMIPA23_2IFCnew_2019_Jun_17_1450_264,True,2019_Jun_17_1450,2IFCnew,2,MIPA23,
2IFCnew,57,0,57,0,-1,0,Yes,6.7,-1,No Answer,-1,False,True,stimulusMIPA23_2IFCnew_2019_Jun_17_1450_265,stimulusMIPA23_2IFCnew_2019_Jun_17_1450_266,True,2019_Jun_17_1450,2IFCnew,2,MIPA23,
2IFCnew,58,0,58,0,0.367874799995,2,Yes,10.7,-1,Correct Rejection,0.700071800034,False,True,stimulusMIPA23_2IFCnew_2019_Jun_17_1450_267,stimulusMIPA23_2IFCnew_2019_Jun_17_1450_268,True,2019_Jun_17_1450,2IFCnew,2,MIPA23,
2IFCnew,59,0,59,0,0.100302200008,1,No,10.7,-1,Hit,0.568745600001,True,False,stimulusMIPA23_2IFCnew_2019_Jun_17_1450_269,stimulusMIPA23_2IFCnew_2019_Jun_17_1450_270,True,2019_Jun_17_1450,2IFCnew,2,MIPA23,
2IFCnew,60,0,60,0,0.401433499996,1,No,8.6,-1,Hit,0.834233800007,True,False,stimulusMIPA23_2IFCnew_2019_Jun_17_1450_271,stimulusMIPA23_2IFCnew_2019_Jun_17_1450_272,True,2019_Jun_17_1450,2IFCnew,2,MIPA23,
2IFCnew,61,0,61,0,-1,2,No,6.7,-1,False Alarm,0.700689600024,False,True,stimulusMIPA23_2IFCnew_2019_Jun_17_1450_273,stimulusMIPA23_2IFCnew_2019_Jun_17_1450_274,True,2019_Jun_17_1450,2IFCnew,2,MIPA23,
2IFCnew,62,0,62,0,0.400840299961,4,Yes,4.5,-1,Miss,0.734413099999,True,False,stimulusMIPA23_2IFCnew_2019_Jun_17_1450_275,stimulusMIPA23_2IFCnew_2019_Jun_17_1450_276,True,2019_Jun_17_1450,2IFCnew,2,MIPA23,
2IFCnew,63,0,63,0,-1,0,Yes,9.6,-1,No Answer,-1,True,False,stimulusMIPA23_2IFCnew_2019_Jun_17_1450_277,stimulusMIPA23_2IFCnew_2019_Jun_17_1450_278,True,2019_Jun_17_1450,2IFCnew,2,MIPA23,
2IFCnew,64,0,64,0,0.433836499986,3,No,9.6,-1,False Alarm,0.801942999999,False,True,stimulusMIPA23_2IFCnew_2019_Jun_17_1450_279,stimulusMIPA23_2IFCnew_2019_Jun_17_1450_280,True,2019_Jun_17_1450,2IFCnew,2,MIPA23,
2IFCnew,65,0,65,0,-1,0,No,10.7,-1,No Answer,-1,True,False,stimulusMIPA23_2IFCnew_2019_Jun_17_1450_281,stimulusMIPA23_2IFCnew_2019_Jun_17_1450_282,True,2019_Jun_17_1450,2IFCnew,2,MIPA23,
2IFCnew,66,0,66,0,0.367205600021,4,Yes,2.9,-1,Miss,0.834275399975,True,False,stimulusMIPA23_2IFCnew_2019_Jun_17_1450_283,stimulusMIPA23_2IFCnew_2019_Jun_17_1450_284,True,2019_Jun_17_1450,2IFCnew,2,MIPA23,
2IFCnew,67,0,67,0,0.300436099991,1,No,6.7,-1,Hit,0.634757499967,True,False,stimulusMIPA23_2IFCnew_2019_Jun_17_1450_285,stimulusMIPA23_2IFCnew_2019_Jun_17_1450_286,True,2019_Jun_17_1450,2IFCnew,2,MIPA23,
2IFCnew,68,0,68,0,0.300484300009,4,Yes,2.9,-1,Miss,0.701247800025,True,False,stimulusMIPA23_2IFCnew_2019_Jun_17_1450_287,stimulusMIPA23_2IFCnew_2019_Jun_17_1450_288,True,2019_Jun_17_1450,2IFCnew,2,MIPA23,
2IFCnew,69,0,69,0,0.466877800005,2,Yes,2.9,-1,Correct Rejection,0.867409400002,False,True,stimulusMIPA23_2IFCnew_2019_Jun_17_1450_289,stimulusMIPA23_2IFCnew_2019_Jun_17_1450_290,True,2019_Jun_17_1450,2IFCnew,2,MIPA23,
2IFCnew,70,0,70,0,0.635090299998,6,No,2.9,-1,Miss,0.701047700015,True,False,stimulusMIPA23_2IFCnew_2019_Jun_17_1450_291,stimulusMIPA23_2IFCnew_2019_Jun_17_1450_292,True,2019_Jun_17_1450,2IFCnew,2,MIPA23,
2IFCnew,71,0,71,0,0.534934700001,2,Yes,2.9,-1,Correct Rejection,0.666466500028,False,True,stimulusMIPA23_2IFCnew_2019_Jun_17_1450_293,stimulusMIPA23_2IFCnew_2019_Jun_17_1450_294,True,2019_Jun_17_1450,2IFCnew,2,MIPA23,
2IFCnew,72,0,72,0,0.50079890003,2,Yes,8.6,-1,Correct Rejection,0.667240099981,False,True,stimulusMIPA23_2IFCnew_2019_Jun_17_1450_295,stimulusMIPA23_2IFCnew_2019_Jun_17_1450_296,True,2019_Jun_17_1450,2IFCnew,2,MIPA23,
2IFCnew,73,0,73,0,0.433983499999,4,Yes,9.6,-1,Miss,0.601143600012,True,False,stimulusMIPA23_2IFCnew_2019_Jun_17_1450_297,stimulusMIPA23_2IFCnew_2019_Jun_17_1450_298,True,2019_Jun_17_1450,2IFCnew,2,MIPA23,
2IFCnew,74,0,74,0,0.567181300023,4,Yes,5.7,-1,Miss,0.567589199985,True,False,stimulusMIPA23_2IFCnew_2019_Jun_17_1450_299,stimulusMIPA23_2IFCnew_2019_Jun_17_1450_300,True,2019_Jun_17_1450,2IFCnew,2,MIPA23,
2IFCnew,0,0,0,0,0.3687164,4,Yes,5.7,-1,Miss,0.635328100005,True,False,stimulusMIPA23_2IFCnew_2019_Jun_17_1450_301,stimulusMIPA23_2IFCnew_2019_Jun_17_1450_302,True,2019_Jun_17_1450,2IFCnew,2,MIPA23,
2IFCnew,1,0,1,0,0.500395999989,4,Yes,6.7,-1,Miss,0.599753599963,True,False,stimulusMIPA23_2IFCnew_2019_Jun_17_1450_303,stimulusMIPA23_2IFCnew_2019_Jun_17_1450_304,True,2019_Jun_17_1450,2IFCnew,2,MIPA23,
2IFCnew,2,0,2,0,0.60177150002,8,No,5.7,-1,Correct Rejection,0.530171299994,False,True,stimulusMIPA23_2IFCnew_2019_Jun_17_1450_305,stimulusMIPA23_2IFCnew_2019_Jun_17_1450_306,True,2019_Jun_17_1450,2IFCnew,2,MIPA23,
2IFCnew,3,0,3,0,-1,4,No,2.9,-1,Miss,0.500782900024,True,False,stimulusMIPA23_2IFCnew_2019_Jun_17_1450_307,stimulusMIPA23_2IFCnew_2019_Jun_17_1450_308,True,2019_Jun_17_1450,2IFCnew,2,MIPA23,
2IFCnew,4,0,4,0,0.43442830001,2,Yes,6.7,-1,Correct Rejection,0.60072820005,False,True,stimulusMIPA23_2IFCnew_2019_Jun_17_1450_309,stimulusMIPA23_2IFCnew_2019_Jun_17_1450_310,True,2019_Jun_17_1450,2IFCnew,2,MIPA23,
2IFCnew,5,0,5,0,0.300856099988,3,No,10.7,-1,False Alarm,0.734563599981,False,True,stimulusMIPA23_2IFCnew_2019_Jun_17_1450_311,stimulusMIPA23_2IFCnew_2019_Jun_17_1450_312,True,2019_Jun_17_1450,2IFCnew,2,MIPA23,
2IFCnew,6,0,6,0,-1,0,No,8.6,-1,No Answer,-1,True,False,stimulusMIPA23_2IFCnew_2019_Jun_17_1450_313,stimulusMIPA23_2IFCnew_2019_Jun_17_1450_314,True,2019_Jun_17_1450,2IFCnew,2,MIPA23,
2IFCnew,7,0,7,0,0.434940300009,2,Yes,2.9,-1,Correct Rejection,0.597017200023,False,True,stimulusMIPA23_2IFCnew_2019_Jun_17_1450_315,stimulusMIPA23_2IFCnew_2019_Jun_17_1450_316,True,2019_Jun_17_1450,2IFCnew,2,MIPA23,
2IFCnew,8,0,8,0,0.300504899991,2,Yes,7.6,-1,Correct Rejection,0.500697400013,False,True,stimulusMIPA23_2IFCnew_2019_Jun_17_1450_317,stimulusMIPA23_2IFCnew_2019_Jun_17_1450_318,True,2019_Jun_17_1450,2IFCnew,2,MIPA23,
2IFCnew,9,0,9,0,0.433788100025,2,Yes,9.6,-1,Correct Rejection,0.53394980001,False,True,stimulusMIPA23_2IFCnew_2019_Jun_17_1450_319,stimulusMIPA23_2IFCnew_2019_Jun_17_1450_320,True,2019_Jun_17_1450,2IFCnew,2,MIPA23,
2IFCnew,10,0,10,0,0.467137400003,2,Yes,5.7,-1,Correct Rejection,0.467291500012,False,True,stimulusMIPA23_2IFCnew_2019_Jun_17_1450_321,stimulusMIPA23_2IFCnew_2019_Jun_17_1450_322,True,2019_Jun_17_1450,2IFCnew,2,MIPA23,
2IFCnew,11,0,11,0,0.267196599976,6,No,9.6,-1,Miss,0.467690899968,True,False,stimulusMIPA23_2IFCnew_2019_Jun_17_1450_323,stimulusMIPA23_2IFCnew_2019_Jun_17_1450_324,True,2019_Jun_17_1450,2IFCnew,2,MIPA23,
2IFCnew,12,0,12,0,0.200450200005,4,Yes,2.9,-1,Miss,0.499999099993,True,False,stimulusMIPA23_2IFCnew_2019_Jun_17_1450_325,stimulusMIPA23_2IFCnew_2019_Jun_17_1450_326,True,2019_Jun_17_1450,2IFCnew,2,MIPA23,
2IFCnew,13,0,13,0,0.266668700031,6,No,7.6,-1,Miss,0.600920700002,True,False,stimulusMIPA23_2IFCnew_2019_Jun_17_1450_327,stimulusMIPA23_2IFCnew_2019_Jun_17_1450_328,True,2019_Jun_17_1450,2IFCnew,2,MIPA23,
2IFCnew,14,0,14,0,-1,4,No,5.7,-1,Miss,0.467178799969,True,False,stimulusMIPA23_2IFCnew_2019_Jun_17_1450_329,stimulusMIPA23_2IFCnew_2019_Jun_17_1450_330,True,2019_Jun_17_1450,2IFCnew,2,MIPA23,
2IFCnew,15,0,15,0,0.467305600003,6,No,4.5,-1,Miss,0.667240299983,True,False,stimulusMIPA23_2IFCnew_2019_Jun_17_1450_331,stimulusMIPA23_2IFCnew_2019_Jun_17_1450_332,True,2019_Jun_17_1450,2IFCnew,2,MIPA23,
2IFCnew,16,0,16,0,0.46990690002,8,No,6.7,-1,Correct Rejection,0.600442000024,False,True,stimulusMIPA23_2IFCnew_2019_Jun_17_1450_333,stimulusMIPA23_2IFCnew_2019_Jun_17_1450_334,True,2019_Jun_17_1450,2IFCnew,2,MIPA23,
2IFCnew,17,0,17,0,0.401807999995,1,No,2.9,-1,Hit,0.801254299993,True,False,stimulusMIPA23_2IFCnew_2019_Jun_17_1450_335,stimulusMIPA23_2IFCnew_2019_Jun_17_1450_336,True,2019_Jun_17_1450,2IFCnew,2,MIPA23,
2IFCnew,18,0,18,0,0.40074870002,3,No,7.6,-1,False Alarm,0.702046199993,False,True,stimulusMIPA23_2IFCnew_2019_Jun_17_1450_337,stimulusMIPA23_2IFCnew_2019_Jun_17_1450_338,True,2019_Jun_17_1450,2IFCnew,2,MIPA23,
2IFCnew,19,0,19,0,0.399896899995,1,No,10.7,-1,Hit,0.734953099978,True,False,stimulusMIPA23_2IFCnew_2019_Jun_17_1450_339,stimulusMIPA23_2IFCnew_2019_Jun_17_1450_340,True,2019_Jun_17_1450,2IFCnew,2,MIPA23,
2IFCnew,20,0,20,0,0.467309000029,1,No,6.7,-1,Hit,0.733921499981,True,False,stimulusMIPA23_2IFCnew_2019_Jun_17_1450_341,stimulusMIPA23_2IFCnew_2019_Jun_17_1450_342,True,2019_Jun_17_1450,2IFCnew,2,MIPA23,
2IFCnew,21,0,21,0,0.233714000031,2,Yes,4.5,-1,Correct Rejection,0.700530599977,False,True,stimulusMIPA23_2IFCnew_2019_Jun_17_1450_343,stimulusMIPA23_2IFCnew_2019_Jun_17_1450_344,True,2019_Jun_17_1450,2IFCnew,2,MIPA23,
2IFCnew,22,0,22,0,0.233616399986,1,No,4.5,-1,Hit,0.734424400027,True,False,stimulusMIPA23_2IFCnew_2019_Jun_17_1450_345,stimulusMIPA23_2IFCnew_2019_Jun_17_1450_346,True,2019_Jun_17_1450,2IFCnew,2,MIPA23,
2IFCnew,23,0,23,0,0.1005764,2,Yes,6.7,-1,Correct Rejection,0.633721399994,False,True,stimulusMIPA23_2IFCnew_2019_Jun_17_1450_347,stimulusMIPA23_2IFCnew_2019_Jun_17_1450_348,True,2019_Jun_17_1450,2IFCnew,2,MIPA23,
2IFCnew,24,0,24,0,0.40055869997,8,No,5.7,-1,Correct Rejection,0.567142399959,False,True,stimulusMIPA23_2IFCnew_2019_Jun_17_1450_349,stimulusMIPA23_2IFCnew_2019_Jun_17_1450_350,True,2019_Jun_17_1450,2IFCnew,2,MIPA23,
2IFCnew,25,0,25,0,0.336653899984,1,No,10.7,-1,Hit,0.535337499983,True,False,stimulusMIPA23_2IFCnew_2019_Jun_17_1450_351,stimulusMIPA23_2IFCnew_2019_Jun_17_1450_352,True,2019_Jun_17_1450,2IFCnew,2,MIPA23,
2IFCnew,26,0,26,0,0.3008806,1,No,9.6,-1,Hit,0.734787299996,True,False,stimulusMIPA23_2IFCnew_2019_Jun_17_1450_353,stimulusMIPA23_2IFCnew_2019_Jun_17_1450_354,True,2019_Jun_17_1450,2IFCnew,2,MIPA23,
2IFCnew,27,0,27,0,0.100429100043,2,Yes,6.7,-1,Correct Rejection,0.633938500017,False,True,stimulusMIPA23_2IFCnew_2019_Jun_17_1450_355,stimulusMIPA23_2IFCnew_2019_Jun_17_1450_356,True,2019_Jun_17_1450,2IFCnew,2,MIPA23,
2IFCnew,28,0,28,0,0.300837100018,1,No,5.7,-1,Hit,0.767724899983,True,False,stimulusMIPA23_2IFCnew_2019_Jun_17_1450_357,stimulusMIPA23_2IFCnew_2019_Jun_17_1450_358,True,2019_Jun_17_1450,2IFCnew,2,MIPA23,
2IFCnew,29,0,29,0,0.300472400035,1,No,8.6,-1,Hit,0.834101799992,True,False,stimulusMIPA23_2IFCnew_2019_Jun_17_1450_359,stimulusMIPA23_2IFCnew_2019_Jun_17_1450_360,True,2019_Jun_17_1450,2IFCnew,2,MIPA23,
2IFCnew,30,0,30,0,0.133752299997,2,Yes,2.9,-1,Correct Rejection,0.567393500009,False,True,stimulusMIPA23_2IFCnew_2019_Jun_17_1450_361,stimulusMIPA23_2IFCnew_2019_Jun_17_1450_362,True,2019_Jun_17_1450,2IFCnew,2,MIPA23,
2IFCnew,31,0,31,0,0.300340699963,3,No,4.5,-1,False Alarm,0.668538900034,False,True,stimulusMIPA23_2IFCnew_2019_Jun_17_1450_363,stimulusMIPA23_2IFCnew_2019_Jun_17_1450_364,True,2019_Jun_17_1450,2IFCnew,2,MIPA23,
2IFCnew,32,0,32,0,0.200110900041,1,No,8.6,-1,Hit,0.666217499995,True,False,stimulusMIPA23_2IFCnew_2019_Jun_17_1450_365,stimulusMIPA23_2IFCnew_2019_Jun_17_1450_366,True,2019_Jun_17_1450,2IFCnew,2,MIPA23,
2IFCnew,33,0,33,0,0.435214199999,1,No,6.7,-1,Hit,0.602020299993,True,False,stimulusMIPA23_2IFCnew_2019_Jun_17_1450_367,stimulusMIPA23_2IFCnew_2019_Jun_17_1450_368,True,2019_Jun_17_1450,2IFCnew,2,MIPA23,
2IFCnew,34,0,34,0,-1,0,No,4.5,-1,No Answer,-1,False,True,stimulusMIPA23_2IFCnew_2019_Jun_17_1450_369,stimulusMIPA23_2IFCnew_2019_Jun_17_1450_370,True,2019_Jun_17_1450,2IFCnew,2,MIPA23,
2IFCnew,35,0,35,0,0.297746700002,2,Yes,4.5,-1,Correct Rejection,0.60248370003,False,True,stimulusMIPA23_2IFCnew_2019_Jun_17_1450_371,stimulusMIPA23_2IFCnew_2019_Jun_17_1450_372,True,2019_Jun_17_1450,2IFCnew,2,MIPA23,
2IFCnew,36,0,36,0,0.299878199992,2,Yes,9.6,-1,Correct Rejection,0.468085699948,False,True,stimulusMIPA23_2IFCnew_2019_Jun_17_1450_373,stimulusMIPA23_2IFCnew_2019_Jun_17_1450_374,True,2019_Jun_17_1450,2IFCnew,2,MIPA23,
2IFCnew,37,0,37,0,0.502234400017,1,No,4.5,-1,Hit,0.633918699983,True,False,stimulusMIPA23_2IFCnew_2019_Jun_17_1450_375,stimulusMIPA23_2IFCnew_2019_Jun_17_1450_376,True,2019_Jun_17_1450,2IFCnew,2,MIPA23,
2IFCnew,38,0,38,0,0.366922100016,3,No,7.6,-1,False Alarm,0.767563899979,False,True,stimulusMIPA23_2IFCnew_2019_Jun_17_1450_377,stimulusMIPA23_2IFCnew_2019_Jun_17_1450_378,True,2019_Jun_17_1450,2IFCnew,2,MIPA23,
2IFCnew,39,0,39,0,0.20036670001,2,Yes,9.6,-1,Correct Rejection,0.46572180005,False,True,stimulusMIPA23_2IFCnew_2019_Jun_17_1450_379,stimulusMIPA23_2IFCnew_2019_Jun_17_1450_380,True,2019_Jun_17_1450,2IFCnew,2,MIPA23,
2IFCnew,40,0,40,0,0.532505200012,4,Yes,4.5,-1,Miss,0.567546700011,True,False,stimulusMIPA23_2IFCnew_2019_Jun_17_1450_381,stimulusMIPA23_2IFCnew_2019_Jun_17_1450_382,True,2019_Jun_17_1450,2IFCnew,2,MIPA23,
2IFCnew,41,0,41,0,0.234049699968,6,No,10.7,-1,Miss,0.601547900005,True,False,stimulusMIPA23_2IFCnew_2019_Jun_17_1450_383,stimulusMIPA23_2IFCnew_2019_Jun_17_1450_384,True,2019_Jun_17_1450,2IFCnew,2,MIPA23,
2IFCnew,42,0,42,0,0.500725399994,6,No,4.5,-1,Miss,0.600407199992,True,False,stimulusMIPA23_2IFCnew_2019_Jun_17_1450_385,stimulusMIPA23_2IFCnew_2019_Jun_17_1450_386,True,2019_Jun_17_1450,2IFCnew,2,MIPA23,
2IFCnew,43,0,43,0,0.467419699999,2,Yes,5.7,-1,Correct Rejection,0.633939300023,False,True,stimulusMIPA23_2IFCnew_2019_Jun_17_1450_387,stimulusMIPA23_2IFCnew_2019_Jun_17_1450_388,True,2019_Jun_17_1450,2IFCnew,2,MIPA23,
2IFCnew,44,0,44,0,0.300894199987,6,No,4.5,-1,Miss,0.568270299991,True,False,stimulusMIPA23_2IFCnew_2019_Jun_17_1450_389,stimulusMIPA23_2IFCnew_2019_Jun_17_1450_390,True,2019_Jun_17_1450,2IFCnew,2,MIPA23,
2IFCnew,45,0,45,0,0.533825199993,4,Yes,4.5,-1,Miss,0.467137600004,True,False,stimulusMIPA23_2IFCnew_2019_Jun_17_1450_391,stimulusMIPA23_2IFCnew_2019_Jun_17_1450_392,True,2019_Jun_17_1450,2IFCnew,2,MIPA23,
2IFCnew,46,0,46,0,0.469014900038,6,No,5.7,-1,Miss,0.466725500009,True,False,stimulusMIPA23_2IFCnew_2019_Jun_17_1450_393,stimulusMIPA23_2IFCnew_2019_Jun_17_1450_394,True,2019_Jun_17_1450,2IFCnew,2,MIPA23,
2IFCnew,47,0,47,0,0.467920200026,8,No,4.5,-1,Correct Rejection,0.566960599972,False,True,stimulusMIPA23_2IFCnew_2019_Jun_17_1450_395,stimulusMIPA23_2IFCnew_2019_Jun_17_1450_396,True,2019_Jun_17_1450,2IFCnew,2,MIPA23,
2IFCnew,48,0,48,0,0.367564800021,8,No,8.6,-1,Correct Rejection,0.568285799993,False,True,stimulusMIPA23_2IFCnew_2019_Jun_17_1450_397,stimulusMIPA23_2IFCnew_2019_Jun_17_1450_398,True,2019_Jun_17_1450,2IFCnew,2,MIPA23,
2IFCnew,49,0,49,0,-1,3,No,8.6,-1,Correct Rejection,0.534036499972,False,True,stimulusMIPA23_2IFCnew_2019_Jun_17_1450_399,stimulusMIPA23_2IFCnew_2019_Jun_17_1450_400,True,2019_Jun_17_1450,2IFCnew,2,MIPA23,
2IFCnew,50,0,50,0,0.500345200009,6,No,8.6,-1,Miss,0.567191199982,True,False,stimulusMIPA23_2IFCnew_2019_Jun_17_1450_401,stimulusMIPA23_2IFCnew_2019_Jun_17_1450_402,True,2019_Jun_17_1450,2IFCnew,2,MIPA23,
2IFCnew,51,0,51,0,-1,0,No,2.9,-1,No Answer,-1,False,True,stimulusMIPA23_2IFCnew_2019_Jun_17_1450_403,stimulusMIPA23_2IFCnew_2019_Jun_17_1450_404,True,2019_Jun_17_1450,2IFCnew,2,MIPA23,
2IFCnew,52,0,52,0,0.30011099996,1,No,5.7,-1,Hit,0.634902100021,True,False,stimulusMIPA23_2IFCnew_2019_Jun_17_1450_405,stimulusMIPA23_2IFCnew_2019_Jun_17_1450_406,True,2019_Jun_17_1450,2IFCnew,2,MIPA23,
2IFCnew,53,0,53,0,0.100366599974,3,No,9.6,-1,False Alarm,0.634641300014,False,True,stimulusMIPA23_2IFCnew_2019_Jun_17_1450_407,stimulusMIPA23_2IFCnew_2019_Jun_17_1450_408,True,2019_Jun_17_1450,2IFCnew,2,MIPA23,
2IFCnew,54,0,54,0,0.233637900034,2,Yes,10.7,-1,Correct Rejection,0.666967900004,False,True,stimulusMIPA23_2IFCnew_2019_Jun_17_1450_409,stimulusMIPA23_2IFCnew_2019_Jun_17_1450_410,True,2019_Jun_17_1450,2IFCnew,2,MIPA23,
2IFCnew,55,0,55,0,0.133939299965,2,Yes,7.6,-1,Correct Rejection,0.633683099994,False,True,stimulusMIPA23_2IFCnew_2019_Jun_17_1450_411,stimulusMIPA23_2IFCnew_2019_Jun_17_1450_412,True,2019_Jun_17_1450,2IFCnew,2,MIPA23,
2IFCnew,56,0,56,0,0.232380100002,2,Yes,8.6,-1,Correct Rejection,0.467066599987,False,True,stimulusMIPA23_2IFCnew_2019_Jun_17_1450_413,stimulusMIPA23_2IFCnew_2019_Jun_17_1450_414,True,2019_Jun_17_1450,2IFCnew,2,MIPA23,
2IFCnew,57,0,57,0,0.133608200005,4,Yes,6.7,-1,Miss,0.334417400009,True,False,stimulusMIPA23_2IFCnew_2019_Jun_17_1450_415,stimulusMIPA23_2IFCnew_2019_Jun_17_1450_416,True,2019_Jun_17_1450,2IFCnew,2,MIPA23,
2IFCnew,58,0,58,0,0.433302899997,6,No,2.9,-1,Miss,0.299734900007,True,False,stimulusMIPA23_2IFCnew_2019_Jun_17_1450_417,stimulusMIPA23_2IFCnew_2019_Jun_17_1450_418,True,2019_Jun_17_1450,2IFCnew,2,MIPA23,
2IFCnew,59,0,59,0,0.700622099976,2,Yes,10.7,-1,Correct Rejection,0.633895099978,False,True,stimulusMIPA23_2IFCnew_2019_Jun_17_1450_419,stimulusMIPA23_2IFCnew_2019_Jun_17_1450_420,True,2019_Jun_17_1450,2IFCnew,2,MIPA23,
2IFCnew,60,0,60,0,0.433761599998,8,No,10.7,-1,Correct Rejection,0.634160999965,False,True,stimulusMIPA23_2IFCnew_2019_Jun_17_1450_421,stimulusMIPA23_2IFCnew_2019_Jun_17_1450_422,True,2019_Jun_17_1450,2IFCnew,2,MIPA23,
2IFCnew,61,0,61,0,0.767226100026,2,Yes,8.6,-1,Correct Rejection,0.633940400032,False,True,stimulusMIPA23_2IFCnew_2019_Jun_17_1450_423,stimulusMIPA23_2IFCnew_2019_Jun_17_1450_424,True,2019_Jun_17_1450,2IFCnew,2,MIPA23,
2IFCnew,62,0,62,0,0.667799300049,2,Yes,10.7,-1,Correct Rejection,0.700758199964,False,True,stimulusMIPA23_2IFCnew_2019_Jun_17_1450_425,stimulusMIPA23_2IFCnew_2019_Jun_17_1450_426,True,2019_Jun_17_1450,2IFCnew,2,MIPA23,
2IFCnew,63,0,63,0,0.368013500003,8,No,8.6,-1,Correct Rejection,0.500525600044,False,True,stimulusMIPA23_2IFCnew_2019_Jun_17_1450_427,stimulusMIPA23_2IFCnew_2019_Jun_17_1450_428,True,2019_Jun_17_1450,2IFCnew,2,MIPA23,
2IFCnew,64,0,64,0,0.333228500036,2,Yes,2.9,-1,Correct Rejection,0.602197700005,False,True,stimulusMIPA23_2IFCnew_2019_Jun_17_1450_429,stimulusMIPA23_2IFCnew_2019_Jun_17_1450_430,True,2019_Jun_17_1450,2IFCnew,2,MIPA23,
2IFCnew,65,0,65,0,0.367156699998,2,Yes,9.6,-1,Correct Rejection,0.500443800003,False,True,stimulusMIPA23_2IFCnew_2019_Jun_17_1450_431,stimulusMIPA23_2IFCnew_2019_Jun_17_1450_432,True,2019_Jun_17_1450,2IFCnew,2,MIPA23,
2IFCnew,66,0,66,0,0.433809600014,4,Yes,4.5,-1,Miss,0.500063299958,True,False,stimulusMIPA23_2IFCnew_2019_Jun_17_1450_433,stimulusMIPA23_2IFCnew_2019_Jun_17_1450_434,True,2019_Jun_17_1450,2IFCnew,2,MIPA23,
2IFCnew,67,0,67,0,0.467385700031,6,No,4.5,-1,Miss,0.433821399987,True,False,stimulusMIPA23_2IFCnew_2019_Jun_17_1450_435,stimulusMIPA23_2IFCnew_2019_Jun_17_1450_436,True,2019_Jun_17_1450,2IFCnew,2,MIPA23,
2IFCnew,68,0,68,0,0.56755789998,2,Yes,4.5,-1,Correct Rejection,0.567191199982,False,True,stimulusMIPA23_2IFCnew_2019_Jun_17_1450_437,stimulusMIPA23_2IFCnew_2019_Jun_17_1450_438,True,2019_Jun_17_1450,2IFCnew,2,MIPA23,
2IFCnew,69,0,69,0,-1,4,Yes,7.6,-1,Miss,0.501279100019,True,False,stimulusMIPA23_2IFCnew_2019_Jun_17_1450_439,stimulusMIPA23_2IFCnew_2019_Jun_17_1450_440,True,2019_Jun_17_1450,2IFCnew,2,MIPA23,
2IFCnew,70,0,70,0,0.433959599992,6,No,5.7,-1,Miss,0.435315600014,True,False,stimulusMIPA23_2IFCnew_2019_Jun_17_1450_441,stimulusMIPA23_2IFCnew_2019_Jun_17_1450_442,True,2019_Jun_17_1450,2IFCnew,2,MIPA23,
2IFCnew,71,0,71,0,0.599397000042,8,No,6.7,-1,Correct Rejection,0.601101299981,False,True,stimulusMIPA23_2IFCnew_2019_Jun_17_1450_443,stimulusMIPA23_2IFCnew_2019_Jun_17_1450_444,True,2019_Jun_17_1450,2IFCnew,2,MIPA23,
2IFCnew,72,0,72,0,0.733946299995,6,No,4.5,-1,Miss,0.834511799971,True,False,stimulusMIPA23_2IFCnew_2019_Jun_17_1450_445,stimulusMIPA23_2IFCnew_2019_Jun_17_1450_446,True,2019_Jun_17_1450,2IFCnew,2,MIPA23,
2IFCnew,73,0,73,0,-1,0,No,8.6,-1,No Answer,-1,False,True,stimulusMIPA23_2IFCnew_2019_Jun_17_1450_447,stimulusMIPA23_2IFCnew_2019_Jun_17_1450_448,True,2019_Jun_17_1450,2IFCnew,2,MIPA23,
2IFCnew,74,0,74,0,0.633456400014,4,Yes,9.6,-1,Miss,0.767476600013,True,False,stimulusMIPA23_2IFCnew_2019_Jun_17_1450_449,stimulusMIPA23_2IFCnew_2019_Jun_17_1450_450,True,2019_Jun_17_1450,2IFCnew,2,MIPA23,
2IFCnew,0,0,0,0,0.26726740005,4,Yes,4.5,-1,Miss,0.599559900002,True,False,stimulusMIPA23_2IFCnew_2019_Jun_17_1450_451,stimulusMIPA23_2IFCnew_2019_Jun_17_1450_452,True,2019_Jun_17_1450,2IFCnew,2,MIPA23,
2IFCnew,1,0,1,0,0.200690699974,1,No,10.7,-1,Hit,0.634662600001,True,False,stimulusMIPA23_2IFCnew_2019_Jun_17_1450_453,stimulusMIPA23_2IFCnew_2019_Jun_17_1450_454,True,2019_Jun_17_1450,2IFCnew,2,MIPA23,
2IFCnew,2,0,2,0,0.133733599971,4,Yes,2.9,-1,Miss,0.566342200036,True,False,stimulusMIPA23_2IFCnew_2019_Jun_17_1450_455,stimulusMIPA23_2IFCnew_2019_Jun_17_1450_456,True,2019_Jun_17_1450,2IFCnew,2,MIPA23,
2IFCnew,3,0,3,0,0.533353200008,2,Yes,8.6,-1,Correct Rejection,0.635122500011,False,True,stimulusMIPA23_2IFCnew_2019_Jun_17_1450_457,stimulusMIPA23_2IFCnew_2019_Jun_17_1450_458,True,2019_Jun_17_1450,2IFCnew,2,MIPA23,
2IFCnew,4,0,4,0,0.200323000026,1,No,10.7,-1,Hit,0.700853999995,True,False,stimulusMIPA23_2IFCnew_2019_Jun_17_1450_459,stimulusMIPA23_2IFCnew_2019_Jun_17_1450_460,True,2019_Jun_17_1450,2IFCnew,2,MIPA23,
2IFCnew,5,0,5,0,0.400419700018,8,No,2.9,-1,Correct Rejection,0.767382199992,False,True,stimulusMIPA23_2IFCnew_2019_Jun_17_1450_461,stimulusMIPA23_2IFCnew_2019_Jun_17_1450_462,True,2019_Jun_17_1450,2IFCnew,2,MIPA23,
2IFCnew,6,0,6,0,0.335242500005,2,Yes,9.6,-1,Correct Rejection,0.567535500042,False,True,stimulusMIPA23_2IFCnew_2019_Jun_17_1450_463,stimulusMIPA23_2IFCnew_2019_Jun_17_1450_464,True,2019_Jun_17_1450,2IFCnew,2,MIPA23,
2IFCnew,7,0,7,0,0.300772899995,1,No,2.9,-1,Hit,0.669100300001,True,False,stimulusMIPA23_2IFCnew_2019_Jun_17_1450_465,stimulusMIPA23_2IFCnew_2019_Jun_17_1450_466,True,2019_Jun_17_1450,2IFCnew,2,MIPA23,
2IFCnew,8,0,8,0,0.33391809999,6,No,4.5,-1,Miss,0.666663500015,True,False,stimulusMIPA23_2IFCnew_2019_Jun_17_1450_467,stimulusMIPA23_2IFCnew_2019_Jun_17_1450_468,True,2019_Jun_17_1450,2IFCnew,2,MIPA23,
2IFCnew,9,0,9,0,0.433765000023,1,No,9.6,-1,Hit,0.768122199981,True,False,stimulusMIPA23_2IFCnew_2019_Jun_17_1450_469,stimulusMIPA23_2IFCnew_2019_Jun_17_1450_470,True,2019_Jun_17_1450,2IFCnew,2,MIPA23,
2IFCnew,10,0,10,0,0.401668299979,6,No,2.9,-1,Miss,0.733955400006,True,False,stimulusMIPA23_2IFCnew_2019_Jun_17_1450_471,stimulusMIPA23_2IFCnew_2019_Jun_17_1450_472,True,2019_Jun_17_1450,2IFCnew,2,MIPA23,
2IFCnew,11,0,11,0,0.300469600013,1,No,2.9,-1,Hit,0.800627100049,True,False,stimulusMIPA23_2IFCnew_2019_Jun_17_1450_473,stimulusMIPA23_2IFCnew_2019_Jun_17_1450_474,True,2019_Jun_17_1450,2IFCnew,2,MIPA23,
2IFCnew,12,0,12,0,0.200654099986,1,No,6.7,-1,Hit,0.634231599979,True,False,stimulusMIPA23_2IFCnew_2019_Jun_17_1450_475,stimulusMIPA23_2IFCnew_2019_Jun_17_1450_476,True,2019_Jun_17_1450,2IFCnew,2,MIPA23,
2IFCnew,13,0,13,0,0.433398800029,2,Yes,2.9,-1,Correct Rejection,0.702040100005,False,True,stimulusMIPA23_2IFCnew_2019_Jun_17_1450_477,stimulusMIPA23_2IFCnew_2019_Jun_17_1450_478,True,2019_Jun_17_1450,2IFCnew,2,MIPA23,
2IFCnew,14,0,14,0,0.333751400001,6,No,4.5,-1,Miss,0.600567199988,True,False,stimulusMIPA23_2IFCnew_2019_Jun_17_1450_479,stimulusMIPA23_2IFCnew_2019_Jun_17_1450_480,True,2019_Jun_17_1450,2IFCnew,2,MIPA23,
2IFCnew,15,0,15,0,0.367420299968,2,Yes,6.7,-1,Correct Rejection,0.669130999944,False,True,stimulusMIPA23_2IFCnew_2019_Jun_17_1450_481,stimulusMIPA23_2IFCnew_2019_Jun_17_1450_482,True,2019_Jun_17_1450,2IFCnew,2,MIPA23,
2IFCnew,16,0,16,0,0.433719100023,6,No,2.9,-1,Miss,0.500620800012,True,False,stimulusMIPA23_2IFCnew_2019_Jun_17_1450_483,stimulusMIPA23_2IFCnew_2019_Jun_17_1450_484,True,2019_Jun_17_1450,2IFCnew,2,MIPA23,
2IFCnew,17,0,17,0,0.467294399976,2,Yes,7.6,-1,Correct Rejection,0.600544099987,False,True,stimulusMIPA23_2IFCnew_2019_Jun_17_1450_485,stimulusMIPA23_2IFCnew_2019_Jun_17_1450_486,True,2019_Jun_17_1450,2IFCnew,2,MIPA23,
2IFCnew,18,0,18,0,0.368115000019,8,No,9.6,-1,Correct Rejection,0.666570000001,False,True,stimulusMIPA23_2IFCnew_2019_Jun_17_1450_487,stimulusMIPA23_2IFCnew_2019_Jun_17_1450_488,True,2019_Jun_17_1450,2IFCnew,2,MIPA23,
2IFCnew,19,0,19,0,0.333421299991,1,No,9.6,-1,Hit,0.802311599953,True,False,stimulusMIPA23_2IFCnew_2019_Jun_17_1450_489,stimulusMIPA23_2IFCnew_2019_Jun_17_1450_490,True,2019_Jun_17_1450,2IFCnew,2,MIPA23,
2IFCnew,20,0,20,0,0.267253900005,3,No,7.6,-1,False Alarm,0.732938300003,False,True,stimulusMIPA23_2IFCnew_2019_Jun_17_1450_491,stimulusMIPA23_2IFCnew_2019_Jun_17_1450_492,True,2019_Jun_17_1450,2IFCnew,2,MIPA23,
2IFCnew,21,0,21,0,0.431511399976,8,No,9.6,-1,Correct Rejection,0.733797800029,False,True,stimulusMIPA23_2IFCnew_2019_Jun_17_1450_493,stimulusMIPA23_2IFCnew_2019_Jun_17_1450_494,True,2019_Jun_17_1450,2IFCnew,2,MIPA23,
2IFCnew,22,0,22,0,-1,0,No,9.6,-1,No Answer,-1,False,True,stimulusMIPA23_2IFCnew_2019_Jun_17_1450_495,stimulusMIPA23_2IFCnew_2019_Jun_17_1450_496,True,2019_Jun_17_1450,2IFCnew,2,MIPA23,
2IFCnew,23,0,23,0,-1,0,No,8.6,-1,No Answer,-1,False,True,stimulusMIPA23_2IFCnew_2019_Jun_17_1450_497,stimulusMIPA23_2IFCnew_2019_Jun_17_1450_498,True,2019_Jun_17_1450,2IFCnew,2,MIPA23,
2IFCnew,24,0,24,0,-1,0,No,9.6,-1,No Answer,-1,True,False,stimulusMIPA23_2IFCnew_2019_Jun_17_1450_499,stimulusMIPA23_2IFCnew_2019_Jun_17_1450_500,True,2019_Jun_17_1450,2IFCnew,2,MIPA23,
2IFCnew,25,0,25,0,0.233030700008,2,Yes,10.7,-1,Correct Rejection,0.602373100002,False,True,stimulusMIPA23_2IFCnew_2019_Jun_17_1450_501,stimulusMIPA23_2IFCnew_2019_Jun_17_1450_502,True,2019_Jun_17_1450,2IFCnew,2,MIPA23,
2IFCnew,26,0,26,0,0.267404099985,2,Yes,7.6,-1,Correct Rejection,0.529884900025,False,True,stimulusMIPA23_2IFCnew_2019_Jun_17_1450_503,stimulusMIPA23_2IFCnew_2019_Jun_17_1450_504,True,2019_Jun_17_1450,2IFCnew,2,MIPA23,
2IFCnew,27,0,27,0,0.266958100023,6,No,5.7,-1,Miss,0.667423299979,True,False,stimulusMIPA23_2IFCnew_2019_Jun_17_1450_505,stimulusMIPA23_2IFCnew_2019_Jun_17_1450_506,True,2019_Jun_17_1450,2IFCnew,2,MIPA23,
2IFCnew,28,0,28,0,-1,4,No,5.7,-1,Miss,0.667127499997,True,False,stimulusMIPA23_2IFCnew_2019_Jun_17_1450_507,stimulusMIPA23_2IFCnew_2019_Jun_17_1450_508,True,2019_Jun_17_1450,2IFCnew,2,MIPA23,
2IFCnew,29,0,29,0,0.36698640004,8,No,5.7,-1,Correct Rejection,0.600170900056,False,True,stimulusMIPA23_2IFCnew_2019_Jun_17_1450_509,stimulusMIPA23_2IFCnew_2019_Jun_17_1450_510,True,2019_Jun_17_1450,2IFCnew,2,MIPA23,
2IFCnew,30,0,30,0,0.33418060001,1,No,9.6,-1,Hit,0.667297499953,True,False,stimulusMIPA23_2IFCnew_2019_Jun_17_1450_511,stimulusMIPA23_2IFCnew_2019_Jun_17_1450_512,True,2019_Jun_17_1450,2IFCnew,2,MIPA23,
2IFCnew,31,0,31,0,0.13583829999,1,No,10.7,-1,Hit,0.566228199983,True,False,stimulusMIPA23_2IFCnew_2019_Jun_17_1450_513,stimulusMIPA23_2IFCnew_2019_Jun_17_1450_514,True,2019_Jun_17_1450,2IFCnew,2,MIPA23,
2IFCnew,32,0,32,0,0.100326400017,4,Yes,2.9,-1,Miss,0.532733700005,True,False,stimulusMIPA23_2IFCnew_2019_Jun_17_1450_515,stimulusMIPA23_2IFCnew_2019_Jun_17_1450_516,True,2019_Jun_17_1450,2IFCnew,2,MIPA23,
2IFCnew,33,0,33,0,0.369080400036,2,Yes,8.6,-1,Correct Rejection,0.624094400031,False,True,stimulusMIPA23_2IFCnew_2019_Jun_17_1450_517,stimulusMIPA23_2IFCnew_2019_Jun_17_1450_518,True,2019_Jun_17_1450,2IFCnew,2,MIPA23,
2IFCnew,34,0,34,0,0.233516099979,2,Yes,10.7,-1,Correct Rejection,0.499057800043,False,True,stimulusMIPA23_2IFCnew_2019_Jun_17_1450_519,stimulusMIPA23_2IFCnew_2019_Jun_17_1450_520,True,2019_Jun_17_1450,2IFCnew,2,MIPA23,
2IFCnew,35,0,35,0,0.33375390002,2,Yes,10.7,-1,Correct Rejection,0.467376300017,False,True,stimulusMIPA23_2IFCnew_2019_Jun_17_1450_521,stimulusMIPA23_2IFCnew_2019_Jun_17_1450_522,True,2019_Jun_17_1450,2IFCnew,2,MIPA23,
2IFCnew,36,0,36,0,0.234483499953,4,Yes,9.6,-1,Miss,0.567306299985,True,False,stimulusMIPA23_2IFCnew_2019_Jun_17_1450_523,stimulusMIPA23_2IFCnew_2019_Jun_17_1450_524,True,2019_Jun_17_1450,2IFCnew,2,MIPA23,
2IFCnew,37,0,37,0,0.50068529998,8,No,5.7,-1,Correct Rejection,0.468051499978,False,True,stimulusMIPA23_2IFCnew_2019_Jun_17_1450_525,stimulusMIPA23_2IFCnew_2019_Jun_17_1450_526,True,2019_Jun_17_1450,2IFCnew,2,MIPA23,
2IFCnew,38,0,38,0,0.401588400011,2,Yes,6.7,-1,Correct Rejection,0.534318100021,False,True,stimulusMIPA23_2IFCnew_2019_Jun_17_1450_527,stimulusMIPA23_2IFCnew_2019_Jun_17_1450_528,True,2019_Jun_17_1450,2IFCnew,2,MIPA23,
2IFCnew,39,0,39,0,0.401492700039,4,Yes,2.9,-1,Miss,0.567664600036,True,False,stimulusMIPA23_2IFCnew_2019_Jun_17_1450_529,stimulusMIPA23_2IFCnew_2019_Jun_17_1450_530,True,2019_Jun_17_1450,2IFCnew,2,MIPA23,
2IFCnew,40,0,40,0,0.23378879996,1,No,10.7,-1,Hit,0.734324200021,True,False,stimulusMIPA23_2IFCnew_2019_Jun_17_1450_531,stimulusMIPA23_2IFCnew_2019_Jun_17_1450_532,True,2019_Jun_17_1450,2IFCnew,2,MIPA23,
2IFCnew,41,0,41,0,0.500171699969,6,No,4.5,-1,Miss,0.834044299962,True,False,stimulusMIPA23_2IFCnew_2019_Jun_17_1450_533,stimulusMIPA23_2IFCnew_2019_Jun_17_1450_534,True,2019_Jun_17_1450,2IFCnew,2,MIPA23,
2IFCnew,42,0,42,0,0.26722899999,2,Yes,4.5,-1,Correct Rejection,0.734180299973,False,True,stimulusMIPA23_2IFCnew_2019_Jun_17_1450_535,stimulusMIPA23_2IFCnew_2019_Jun_17_1450_536,True,2019_Jun_17_1450,2IFCnew,2,MIPA23,
2IFCnew,43,0,43,0,0.167840900016,2,Yes,7.6,-1,Correct Rejection,0.567220899975,False,True,stimulusMIPA23_2IFCnew_2019_Jun_17_1450_537,stimulusMIPA23_2IFCnew_2019_Jun_17_1450_538,True,2019_Jun_17_1450,2IFCnew,2,MIPA23,
2IFCnew,44,0,44,0,0.333950700006,2,Yes,5.7,-1,Correct Rejection,0.534875100013,False,True,stimulusMIPA23_2IFCnew_2019_Jun_17_1450_539,stimulusMIPA23_2IFCnew_2019_Jun_17_1450_540,True,2019_Jun_17_1450,2IFCnew,2,MIPA23,
2IFCnew,45,0,45,0,0.470083600027,4,Yes,2.9,-1,Miss,0.700699699984,True,False,stimulusMIPA23_2IFCnew_2019_Jun_17_1450_541,stimulusMIPA23_2IFCnew_2019_Jun_17_1450_542,True,2019_Jun_17_1450,2IFCnew,2,MIPA23,
2IFCnew,46,0,46,0,0.534175499983,6,No,4.5,-1,Miss,0.698375799984,True,False,stimulusMIPA23_2IFCnew_2019_Jun_17_1450_543,stimulusMIPA23_2IFCnew_2019_Jun_17_1450_544,True,2019_Jun_17_1450,2IFCnew,2,MIPA23,
2IFCnew,47,0,47,0,0.167964599968,2,Yes,2.9,-1,Correct Rejection,0.567188000015,False,True,stimulusMIPA23_2IFCnew_2019_Jun_17_1450_545,stimulusMIPA23_2IFCnew_2019_Jun_17_1450_546,True,2019_Jun_17_1450,2IFCnew,2,MIPA23,
2IFCnew,48,0,48,0,0.467086699966,3,No,4.5,-1,False Alarm,0.86649059999,False,True,stimulusMIPA23_2IFCnew_2019_Jun_17_1450_547,stimulusMIPA23_2IFCnew_2019_Jun_17_1450_548,True,2019_Jun_17_1450,2IFCnew,2,MIPA23,
2IFCnew,49,0,49,0,0.234332600026,1,No,8.6,-1,Hit,0.700861799996,True,False,stimulusMIPA23_2IFCnew_2019_Jun_17_1450_549,stimulusMIPA23_2IFCnew_2019_Jun_17_1450_550,True,2019_Jun_17_1450,2IFCnew,2,MIPA23,
2IFCnew,50,0,50,0,0.467158499989,6,No,10.7,-1,Miss,0.766333799984,True,False,stimulusMIPA23_2IFCnew_2019_Jun_17_1450_551,stimulusMIPA23_2IFCnew_2019_Jun_17_1450_552,True,2019_Jun_17_1450,2IFCnew,2,MIPA23,
2IFCnew,51,0,51,0,0.200760099979,1,No,9.6,-1,Hit,0.667541500006,True,False,stimulusMIPA23_2IFCnew_2019_Jun_17_1450_553,stimulusMIPA23_2IFCnew_2019_Jun_17_1450_554,True,2019_Jun_17_1450,2IFCnew,2,MIPA23,
2IFCnew,52,0,52,0,-1,0,No,9.6,-1,No Answer,-1,False,True,stimulusMIPA23_2IFCnew_2019_Jun_17_1450_555,stimulusMIPA23_2IFCnew_2019_Jun_17_1450_556,True,2019_Jun_17_1450,2IFCnew,2,MIPA23,
2IFCnew,53,0,53,0,-1,0,No,7.6,-1,No Answer,-1,False,True,stimulusMIPA23_2IFCnew_2019_Jun_17_1450_557,stimulusMIPA23_2IFCnew_2019_Jun_17_1450_558,True,2019_Jun_17_1450,2IFCnew,2,MIPA23,
2IFCnew,54,0,54,0,0.434559000016,1,No,5.7,-1,Hit,0.767608699971,True,False,stimulusMIPA23_2IFCnew_2019_Jun_17_1450_559,stimulusMIPA23_2IFCnew_2019_Jun_17_1450_560,True,2019_Jun_17_1450,2IFCnew,2,MIPA23,
2IFCnew,55,0,55,0,0.100251400028,1,No,10.7,-1,Hit,0.600584,True,False,stimulusMIPA23_2IFCnew_2019_Jun_17_1450_561,stimulusMIPA23_2IFCnew_2019_Jun_17_1450_562,True,2019_Jun_17_1450,2IFCnew,2,MIPA23,
2IFCnew,56,0,56,0,0.400122299965,4,Yes,2.9,-1,Miss,0.700729099975,True,False,stimulusMIPA23_2IFCnew_2019_Jun_17_1450_563,stimulusMIPA23_2IFCnew_2019_Jun_17_1450_564,True,2019_Jun_17_1450,2IFCnew,2,MIPA23,
2IFCnew,57,0,57,0,0.634012299997,8,No,5.7,-1,Correct Rejection,0.833870299975,False,True,stimulusMIPA23_2IFCnew_2019_Jun_17_1450_565,stimulusMIPA23_2IFCnew_2019_Jun_17_1450_566,True,2019_Jun_17_1450,2IFCnew,2,MIPA23,
2IFCnew,58,0,58,0,0.466575299972,2,Yes,8.6,-1,Correct Rejection,0.668587599997,False,True,stimulusMIPA23_2IFCnew_2019_Jun_17_1450_567,stimulusMIPA23_2IFCnew_2019_Jun_17_1450_568,True,2019_Jun_17_1450,2IFCnew,2,MIPA23,
2IFCnew,59,0,59,0,0.333200599998,1,No,7.6,-1,Hit,0.800347699958,True,False,stimulusMIPA23_2IFCnew_2019_Jun_17_1450_569,stimulusMIPA23_2IFCnew_2019_Jun_17_1450_570,True,2019_Jun_17_1450,2IFCnew,2,MIPA23,
2IFCnew,60,0,60,0,0.367175999971,2,Yes,2.9,-1,Correct Rejection,0.533668599965,False,True,stimulusMIPA23_2IFCnew_2019_Jun_17_1450_571,stimulusMIPA23_2IFCnew_2019_Jun_17_1450_572,True,2019_Jun_17_1450,2IFCnew,2,MIPA23,
2IFCnew,61,0,61,0,0.400647700008,2,Yes,5.7,-1,Correct Rejection,0.534084099985,False,True,stimulusMIPA23_2IFCnew_2019_Jun_17_1450_573,stimulusMIPA23_2IFCnew_2019_Jun_17_1450_574,True,2019_Jun_17_1450,2IFCnew,2,MIPA23,
2IFCnew,62,0,62,0,0.533950000012,6,No,2.9,-1,Miss,0.465973199985,True,False,stimulusMIPA23_2IFCnew_2019_Jun_17_1450_575,stimulusMIPA23_2IFCnew_2019_Jun_17_1450_576,True,2019_Jun_17_1450,2IFCnew,2,MIPA23,
2IFCnew,63,0,63,0,0.334072600002,2,Yes,4.5,-1,Correct Rejection,0.533917299996,False,True,stimulusMIPA23_2IFCnew_2019_Jun_17_1450_577,stimulusMIPA23_2IFCnew_2019_Jun_17_1450_578,True,2019_Jun_17_1450,2IFCnew,2,MIPA23,
2IFCnew,64,0,64,0,0.167182900012,4,Yes,9.6,-1,Miss,0.434071999975,True,False,stimulusMIPA23_2IFCnew_2019_Jun_17_1450_579,stimulusMIPA23_2IFCnew_2019_Jun_17_1450_580,True,2019_Jun_17_1450,2IFCnew,2,MIPA23,
2IFCnew,65,0,65,0,0.366696599987,4,Yes,4.5,-1,Miss,0.535352999985,True,False,stimulusMIPA23_2IFCnew_2019_Jun_17_1450_581,stimulusMIPA23_2IFCnew_2019_Jun_17_1450_582,True,2019_Jun_17_1450,2IFCnew,2,MIPA23,
2IFCnew,66,0,66,0,0.166528099973,1,No,6.7,-1,Hit,0.400081900007,True,False,stimulusMIPA23_2IFCnew_2019_Jun_17_1450_583,stimulusMIPA23_2IFCnew_2019_Jun_17_1450_584,True,2019_Jun_17_1450,2IFCnew,2,MIPA23,
2IFCnew,67,0,67,0,0.333687300037,3,No,7.6,-1,False Alarm,0.566574800003,False,True,stimulusMIPA23_2IFCnew_2019_Jun_17_1450_585,stimulusMIPA23_2IFCnew_2019_Jun_17_1450_586,True,2019_Jun_17_1450,2IFCnew,2,MIPA23,
2IFCnew,68,0,68,0,0.499952400045,8,No,7.6,-1,Correct Rejection,0.734149900032,False,True,stimulusMIPA23_2IFCnew_2019_Jun_17_1450_587,stimulusMIPA23_2IFCnew_2019_Jun_17_1450_588,True,2019_Jun_17_1450,2IFCnew,2,MIPA23,
2IFCnew,69,0,69,0,0.500553700025,4,Yes,7.6,-1,Miss,0.80058510002,True,False,stimulusMIPA23_2IFCnew_2019_Jun_17_1450_589,stimulusMIPA23_2IFCnew_2019_Jun_17_1450_590,True,2019_Jun_17_1450,2IFCnew,2,MIPA23,
2IFCnew,70,0,70,0,0.400916099956,6,No,8.6,-1,Miss,0.732657500019,True,False,stimulusMIPA23_2IFCnew_2019_Jun_17_1450_591,stimulusMIPA23_2IFCnew_2019_Jun_17_1450_592,True,2019_Jun_17_1450,2IFCnew,2,MIPA23,
2IFCnew,71,0,71,0,0.335219000001,3,No,10.7,-1,False Alarm,0.867606399988,False,True,stimulusMIPA23_2IFCnew_2019_Jun_17_1450_593,stimulusMIPA23_2IFCnew_2019_Jun_17_1450_594,True,2019_Jun_17_1450,2IFCnew,2,MIPA23,
2IFCnew,72,0,72,0,0.633898400003,2,Yes,9.6,-1,Correct Rejection,0.80304660002,False,True,stimulusMIPA23_2IFCnew_2019_Jun_17_1450_595,stimulusMIPA23_2IFCnew_2019_Jun_17_1450_596,True,2019_Jun_17_1450,2IFCnew,2,MIPA23,
2IFCnew,73,0,73,0,0.667882399983,2,Yes,6.7,-1,Correct Rejection,0.666291899979,False,True,stimulusMIPA23_2IFCnew_2019_Jun_17_1450_597,stimulusMIPA23_2IFCnew_2019_Jun_17_1450_598,True,2019_Jun_17_1450,2IFCnew,2,MIPA23,
2IFCnew,74,0,74,0,0.500479999988,4,Yes,6.7,-1,Miss,0.566511500045,True,False,stimulusMIPA23_2IFCnew_2019_Jun_17_1450_599,stimulusMIPA23_2IFCnew_2019_Jun_17_1450_600,True,2019_Jun_17_1450,2IFCnew,2,MIPA23,
2IFCnew,0,0,0,0,0.266239999968,2,Yes,5.7,-1,Correct Rejection,0.568888499984,False,True,stimulusMIPA23_2IFCnew_2019_Jun_17_1450_601,stimulusMIPA23_2IFCnew_2019_Jun_17_1450_602,True,2019_Jun_17_1450,2IFCnew,2,MIPA23,
2IFCnew,1,0,1,0,0.2671538,1,No,8.6,-1,Hit,0.533974299964,True,False,stimulusMIPA23_2IFCnew_2019_Jun_17_1450_603,stimulusMIPA23_2IFCnew_2019_Jun_17_1450_604,True,2019_Jun_17_1450,2IFCnew,2,MIPA23,
2IFCnew,2,0,2,0,0.267194200016,2,Yes,6.7,-1,Correct Rejection,0.532769199985,False,True,stimulusMIPA23_2IFCnew_2019_Jun_17_1450_605,stimulusMIPA23_2IFCnew_2019_Jun_17_1450_606,True,2019_Jun_17_1450,2IFCnew,2,MIPA23,
2IFCnew,3,0,3,0,0.333149999962,8,No,4.5,-1,Correct Rejection,0.567357399967,False,True,stimulusMIPA23_2IFCnew_2019_Jun_17_1450_607,stimulusMIPA23_2IFCnew_2019_Jun_17_1450_608,True,2019_Jun_17_1450,2IFCnew,2,MIPA23,
2IFCnew,4,0,4,0,0.30055689998,2,Yes,2.9,-1,Correct Rejection,0.53365420003,False,True,stimulusMIPA23_2IFCnew_2019_Jun_17_1450_609,stimulusMIPA23_2IFCnew_2019_Jun_17_1450_610,True,2019_Jun_17_1450,2IFCnew,2,MIPA23,
2IFCnew,5,0,5,0,0.367166900018,2,Yes,10.7,-1,Correct Rejection,0.600593099953,False,True,stimulusMIPA23_2IFCnew_2019_Jun_17_1450_611,stimulusMIPA23_2IFCnew_2019_Jun_17_1450_612,True,2019_Jun_17_1450,2IFCnew,2,MIPA23,
2IFCnew,6,0,6,0,0.499949700024,5,Yes,10.7,-1,False Alarm,0.699871000019,False,True,stimulusMIPA23_2IFCnew_2019_Jun_17_1450_613,stimulusMIPA23_2IFCnew_2019_Jun_17_1450_614,True,2019_Jun_17_1450,2IFCnew,2,MIPA23,
2IFCnew,7,0,7,0,0.433357300004,1,No,10.7,-1,Hit,0.567772699986,True,False,stimulusMIPA23_2IFCnew_2019_Jun_17_1450_615,stimulusMIPA23_2IFCnew_2019_Jun_17_1450_616,True,2019_Jun_17_1450,2IFCnew,2,MIPA23,
2IFCnew,8,0,8,0,0.267136500042,1,No,5.7,-1,Hit,0.533709599986,True,False,stimulusMIPA23_2IFCnew_2019_Jun_17_1450_617,stimulusMIPA23_2IFCnew_2019_Jun_17_1450_618,True,2019_Jun_17_1450,2IFCnew,2,MIPA23,
2IFCnew,9,0,9,0,0.333749399986,5,Yes,7.6,-1,False Alarm,0.500808299985,False,True,stimulusMIPA23_2IFCnew_2019_Jun_17_1450_619,stimulusMIPA23_2IFCnew_2019_Jun_17_1450_620,True,2019_Jun_17_1450,2IFCnew,2,MIPA23,
2IFCnew,10,0,10,0,0.433924600016,3,No,6.7,-1,False Alarm,0.534053300042,False,True,stimulusMIPA23_2IFCnew_2019_Jun_17_1450_621,stimulusMIPA23_2IFCnew_2019_Jun_17_1450_622,True,2019_Jun_17_1450,2IFCnew,2,MIPA23,
2IFCnew,11,0,11,0,0.667233699991,5,Yes,2.9,-1,False Alarm,0.800917000044,False,True,stimulusMIPA23_2IFCnew_2019_Jun_17_1450_623,stimulusMIPA23_2IFCnew_2019_Jun_17_1450_624,True,2019_Jun_17_1450,2IFCnew,2,MIPA23,
2IFCnew,12,0,12,0,0.300562099961,3,No,10.7,-1,False Alarm,0.600218500011,False,True,stimulusMIPA23_2IFCnew_2019_Jun_17_1450_625,stimulusMIPA23_2IFCnew_2019_Jun_17_1450_626,True,2019_Jun_17_1450,2IFCnew,2,MIPA23,
2IFCnew,13,0,13,0,-1,0,No,9.6,-1,No Answer,-1,True,False,stimulusMIPA23_2IFCnew_2019_Jun_17_1450_627,stimulusMIPA23_2IFCnew_2019_Jun_17_1450_628,True,2019_Jun_17_1450,2IFCnew,2,MIPA23,
2IFCnew,14,0,14,0,0.33387849998,1,No,4.5,-1,Hit,0.533993499994,True,False,stimulusMIPA23_2IFCnew_2019_Jun_17_1450_629,stimulusMIPA23_2IFCnew_2019_Jun_17_1450_630,True,2019_Jun_17_1450,2IFCnew,2,MIPA23,
2IFCnew,15,0,15,0,0.367660700053,1,No,8.6,-1,Hit,0.533992199984,True,False,stimulusMIPA23_2IFCnew_2019_Jun_17_1450_631,stimulusMIPA23_2IFCnew_2019_Jun_17_1450_632,True,2019_Jun_17_1450,2IFCnew,2,MIPA23,
2IFCnew,16,0,16,0,0.33380979998,1,No,6.7,-1,Hit,0.533116700011,True,False,stimulusMIPA23_2IFCnew_2019_Jun_17_1450_633,stimulusMIPA23_2IFCnew_2019_Jun_17_1450_634,True,2019_Jun_17_1450,2IFCnew,2,MIPA23,
2IFCnew,17,0,17,0,0.534084200044,5,Yes,7.6,-1,False Alarm,0.53399669996,False,True,stimulusMIPA23_2IFCnew_2019_Jun_17_1450_635,stimulusMIPA23_2IFCnew_2019_Jun_17_1450_636,True,2019_Jun_17_1450,2IFCnew,2,MIPA23,
2IFCnew,18,0,18,0,0.300314599997,2,Yes,5.7,-1,Correct Rejection,0.667858100031,False,True,stimulusMIPA23_2IFCnew_2019_Jun_17_1450_637,stimulusMIPA23_2IFCnew_2019_Jun_17_1450_638,True,2019_Jun_17_1450,2IFCnew,2,MIPA23,
2IFCnew,19,0,19,0,0.500293900026,3,No,6.7,-1,False Alarm,0.834239499993,False,True,stimulusMIPA23_2IFCnew_2019_Jun_17_1450_639,stimulusMIPA23_2IFCnew_2019_Jun_17_1450_640,True,2019_Jun_17_1450,2IFCnew,2,MIPA23,
2IFCnew,20,0,20,0,0.33366210002,3,No,9.6,-1,False Alarm,0.768074699969,False,True,stimulusMIPA23_2IFCnew_2019_Jun_17_1450_641,stimulusMIPA23_2IFCnew_2019_Jun_17_1450_642,True,2019_Jun_17_1450,2IFCnew,2,MIPA23,
2IFCnew,21,0,21,0,0.367209599994,2,Yes,10.7,-1,Correct Rejection,0.634047100029,False,True,stimulusMIPA23_2IFCnew_2019_Jun_17_1450_643,stimulusMIPA23_2IFCnew_2019_Jun_17_1450_644,True,2019_Jun_17_1450,2IFCnew,2,MIPA23,
2IFCnew,22,0,22,0,0.500289499993,2,Yes,10.7,-1,Correct Rejection,0.632821100007,False,True,stimulusMIPA23_2IFCnew_2019_Jun_17_1450_645,stimulusMIPA23_2IFCnew_2019_Jun_17_1450_646,True,2019_Jun_17_1450,2IFCnew,2,MIPA23,
2IFCnew,23,0,23,0,0.534190999984,2,Yes,5.7,-1,Correct Rejection,0.732755000005,False,True,stimulusMIPA23_2IFCnew_2019_Jun_17_1450_647,stimulusMIPA23_2IFCnew_2019_Jun_17_1450_648,True,2019_Jun_17_1450,2IFCnew,2,MIPA23,
2IFCnew,24,0,24,0,0.199985100015,2,Yes,5.7,-1,Correct Rejection,0.6340967,False,True,stimulusMIPA23_2IFCnew_2019_Jun_17_1450_649,stimulusMIPA23_2IFCnew_2019_Jun_17_1450_650,True,2019_Jun_17_1450,2IFCnew,2,MIPA23,
2IFCnew,25,0,25,0,0.401704100019,2,Yes,8.6,-1,Correct Rejection,0.734717899992,False,True,stimulusMIPA23_2IFCnew_2019_Jun_17_1450_651,stimulusMIPA23_2IFCnew_2019_Jun_17_1450_652,True,2019_Jun_17_1450,2IFCnew,2,MIPA23,
2IFCnew,26,0,26,0,0.402241700038,2,Yes,2.9,-1,Correct Rejection,0.734112199978,False,True,stimulusMIPA23_2IFCnew_2019_Jun_17_1450_653,stimulusMIPA23_2IFCnew_2019_Jun_17_1450_654,True,2019_Jun_17_1450,2IFCnew,2,MIPA23,
2IFCnew,27,0,27,0,0.300401100016,1,No,10.7,-1,Hit,0.599501000019,True,False,stimulusMIPA23_2IFCnew_2019_Jun_17_1450_655,stimulusMIPA23_2IFCnew_2019_Jun_17_1450_656,True,2019_Jun_17_1450,2IFCnew,2,MIPA23,
2IFCnew,28,0,28,0,0.367239199986,1,No,7.6,-1,Hit,0.76781390002,True,False,stimulusMIPA23_2IFCnew_2019_Jun_17_1450_657,stimulusMIPA23_2IFCnew_2019_Jun_17_1450_658,True,2019_Jun_17_1450,2IFCnew,2,MIPA23,
2IFCnew,29,0,29,0,0.667494499998,8,No,4.5,-1,Correct Rejection,0.800342200033,False,True,stimulusMIPA23_2IFCnew_2019_Jun_17_1450_659,stimulusMIPA23_2IFCnew_2019_Jun_17_1450_660,True,2019_Jun_17_1450,2IFCnew,2,MIPA23,
2IFCnew,30,0,30,0,0.56738969998,5,Yes,2.9,-1,False Alarm,0.667620700027,False,True,stimulusMIPA23_2IFCnew_2019_Jun_17_1450_661,stimulusMIPA23_2IFCnew_2019_Jun_17_1450_662,True,2019_Jun_17_1450,2IFCnew,2,MIPA23,
2IFCnew,31,0,31,0,0.333741399983,1,No,8.6,-1,Hit,0.500305699999,True,False,stimulusMIPA23_2IFCnew_2019_Jun_17_1450_663,stimulusMIPA23_2IFCnew_2019_Jun_17_1450_664,True,2019_Jun_17_1450,2IFCnew,2,MIPA23,
2IFCnew,32,0,32,0,0.667543900025,6,No,2.9,-1,Miss,0.801867300004,True,False,stimulusMIPA23_2IFCnew_2019_Jun_17_1450_665,stimulusMIPA23_2IFCnew_2019_Jun_17_1450_666,True,2019_Jun_17_1450,2IFCnew,2,MIPA23,
2IFCnew,33,0,33,0,0.269068400026,1,No,6.7,-1,Hit,0.602058399993,True,False,stimulusMIPA23_2IFCnew_2019_Jun_17_1450_667,stimulusMIPA23_2IFCnew_2019_Jun_17_1450_668,True,2019_Jun_17_1450,2IFCnew,2,MIPA23,
2IFCnew,34,0,34,0,0.266987800016,1,No,9.6,-1,Hit,0.500393000024,True,False,stimulusMIPA23_2IFCnew_2019_Jun_17_1450_669,stimulusMIPA23_2IFCnew_2019_Jun_17_1450_670,True,2019_Jun_17_1450,2IFCnew,2,MIPA23,
2IFCnew,35,0,35,0,0.300327400037,1,No,6.7,-1,Hit,0.567298900045,True,False,stimulusMIPA23_2IFCnew_2019_Jun_17_1450_671,stimulusMIPA23_2IFCnew_2019_Jun_17_1450_672,True,2019_Jun_17_1450,2IFCnew,2,MIPA23,
2IFCnew,36,0,36,0,0.634033100039,2,Yes,9.6,-1,Correct Rejection,0.801101499994,False,True,stimulusMIPA23_2IFCnew_2019_Jun_17_1450_673,stimulusMIPA23_2IFCnew_2019_Jun_17_1450_674,True,2019_Jun_17_1450,2IFCnew,2,MIPA23,
2IFCnew,37,0,37,0,0.500464199984,1,No,6.7,-1,Hit,0.634065299993,True,False,stimulusMIPA23_2IFCnew_2019_Jun_17_1450_675,stimulusMIPA23_2IFCnew_2019_Jun_17_1450_676,True,2019_Jun_17_1450,2IFCnew,2,MIPA23,
2IFCnew,38,0,38,0,0.366704499989,1,No,4.5,-1,Hit,0.53389890003,True,False,stimulusMIPA23_2IFCnew_2019_Jun_17_1450_677,stimulusMIPA23_2IFCnew_2019_Jun_17_1450_678,True,2019_Jun_17_1450,2IFCnew,2,MIPA23,
2IFCnew,39,0,39,0,0.233308099967,2,Yes,2.9,-1,Correct Rejection,0.601000799972,False,True,stimulusMIPA23_2IFCnew_2019_Jun_17_1450_679,stimulusMIPA23_2IFCnew_2019_Jun_17_1450_680,True,2019_Jun_17_1450,2IFCnew,2,MIPA23,
2IFCnew,40,0,40,0,0.366149000009,2,Yes,5.7,-1,Correct Rejection,0.66774340003,False,True,stimulusMIPA23_2IFCnew_2019_Jun_17_1450_681,stimulusMIPA23_2IFCnew_2019_Jun_17_1450_682,True,2019_Jun_17_1450,2IFCnew,2,MIPA23,
2IFCnew,41,0,41,0,0.266851200024,1,No,4.5,-1,Hit,0.701135599986,True,False,stimulusMIPA23_2IFCnew_2019_Jun_17_1450_683,stimulusMIPA23_2IFCnew_2019_Jun_17_1450_684,True,2019_Jun_17_1450,2IFCnew,2,MIPA23,
2IFCnew,42,0,42,0,0.300217699958,1,No,8.6,-1,Hit,0.567322999996,True,False,stimulusMIPA23_2IFCnew_2019_Jun_17_1450_685,stimulusMIPA23_2IFCnew_2019_Jun_17_1450_686,True,2019_Jun_17_1450,2IFCnew,2,MIPA23,
2IFCnew,43,0,43,0,0.234046600002,1,No,9.6,-1,Hit,0.431218300015,True,False,stimulusMIPA23_2IFCnew_2019_Jun_17_1450_687,stimulusMIPA23_2IFCnew_2019_Jun_17_1450_688,True,2019_Jun_17_1450,2IFCnew,2,MIPA23,
2IFCnew,44,0,44,0,0.467357099988,6,No,6.7,-1,Miss,0.632885399973,True,False,stimulusMIPA23_2IFCnew_2019_Jun_17_1450_689,stimulusMIPA23_2IFCnew_2019_Jun_17_1450_690,True,2019_Jun_17_1450,2IFCnew,2,MIPA23,
2IFCnew,45,0,45,0,0.36753519997,5,Yes,2.9,-1,False Alarm,0.53405040002,False,True,stimulusMIPA23_2IFCnew_2019_Jun_17_1450_691,stimulusMIPA23_2IFCnew_2019_Jun_17_1450_692,True,2019_Jun_17_1450,2IFCnew,2,MIPA23,
2IFCnew,46,0,46,0,0.466188799997,3,No,8.6,-1,False Alarm,0.600271300005,False,True,stimulusMIPA23_2IFCnew_2019_Jun_17_1450_693,stimulusMIPA23_2IFCnew_2019_Jun_17_1450_694,True,2019_Jun_17_1450,2IFCnew,2,MIPA23,
2IFCnew,47,0,47,0,0.467137900006,2,Yes,5.7,-1,Correct Rejection,0.598884500039,False,True,stimulusMIPA23_2IFCnew_2019_Jun_17_1450_695,stimulusMIPA23_2IFCnew_2019_Jun_17_1450_696,True,2019_Jun_17_1450,2IFCnew,2,MIPA23,
2IFCnew,48,0,48,0,0.367230499978,2,Yes,4.5,-1,Correct Rejection,0.700629199971,False,True,stimulusMIPA23_2IFCnew_2019_Jun_17_1450_697,stimulusMIPA23_2IFCnew_2019_Jun_17_1450_698,True,2019_Jun_17_1450,2IFCnew,2,MIPA23,
2IFCnew,49,0,49,0,0.300859400013,1,No,6.7,-1,Hit,0.702500900021,True,False,stimulusMIPA23_2IFCnew_2019_Jun_17_1450_699,stimulusMIPA23_2IFCnew_2019_Jun_17_1450_700,True,2019_Jun_17_1450,2IFCnew,2,MIPA23,
2IFCnew,50,0,50,0,0.302117099985,1,No,9.6,-1,Hit,0.601707900001,True,False,stimulusMIPA23_2IFCnew_2019_Jun_17_1450_701,stimulusMIPA23_2IFCnew_2019_Jun_17_1450_702,True,2019_Jun_17_1450,2IFCnew,2,MIPA23,
2IFCnew,51,0,51,0,0.267059399979,1,No,7.6,-1,Hit,0.634204399947,True,False,stimulusMIPA23_2IFCnew_2019_Jun_17_1450_703,stimulusMIPA23_2IFCnew_2019_Jun_17_1450_704,True,2019_Jun_17_1450,2IFCnew,2,MIPA23,
2IFCnew,52,0,52,0,0.167036800005,1,No,10.7,-1,Hit,0.535058400012,True,False,stimulusMIPA23_2IFCnew_2019_Jun_17_1450_705,stimulusMIPA23_2IFCnew_2019_Jun_17_1450_706,True,2019_Jun_17_1450,2IFCnew,2,MIPA23,
2IFCnew,53,0,53,0,0.168013899995,4,Yes,2.9,-1,Miss,0.734207300004,True,False,stimulusMIPA23_2IFCnew_2019_Jun_17_1450_707,stimulusMIPA23_2IFCnew_2019_Jun_17_1450_708,True,2019_Jun_17_1450,2IFCnew,2,MIPA23,
2IFCnew,54,0,54,0,0.40146600001,3,No,6.7,-1,False Alarm,0.467355200031,False,True,stimulusMIPA23_2IFCnew_2019_Jun_17_1450_709,stimulusMIPA23_2IFCnew_2019_Jun_17_1450_710,True,2019_Jun_17_1450,2IFCnew,2,MIPA23,
2IFCnew,55,0,55,0,0.46663879999,3,No,2.9,-1,False Alarm,0.63406110002,False,True,stimulusMIPA23_2IFCnew_2019_Jun_17_1450_711,stimulusMIPA23_2IFCnew_2019_Jun_17_1450_712,True,2019_Jun_17_1450,2IFCnew,2,MIPA23,
2IFCnew,56,0,56,0,0.3675315,1,No,8.6,-1,Hit,0.567013000022,True,False,stimulusMIPA23_2IFCnew_2019_Jun_17_1450_713,stimulusMIPA23_2IFCnew_2019_Jun_17_1450_714,True,2019_Jun_17_1450,2IFCnew,2,MIPA23,
2IFCnew,57,0,57,0,0.23284750001,1,No,8.6,-1,Hit,0.567458799982,True,False,stimulusMIPA23_2IFCnew_2019_Jun_17_1450_715,stimulusMIPA23_2IFCnew_2019_Jun_17_1450_716,True,2019_Jun_17_1450,2IFCnew,2,MIPA23,
2IFCnew,58,0,58,0,0.333629700006,2,Yes,7.6,-1,Correct Rejection,0.66740179999,False,True,stimulusMIPA23_2IFCnew_2019_Jun_17_1450_717,stimulusMIPA23_2IFCnew_2019_Jun_17_1450_718,True,2019_Jun_17_1450,2IFCnew,2,MIPA23,
2IFCnew,59,0,59,0,0.300241300021,2,Yes,6.7,-1,Correct Rejection,0.600890300004,False,True,stimulusMIPA23_2IFCnew_2019_Jun_17_1450_719,stimulusMIPA23_2IFCnew_2019_Jun_17_1450_720,True,2019_Jun_17_1450,2IFCnew,2,MIPA23,
2IFCnew,60,0,60,0,0.30244270002,4,Yes,6.7,-1,Miss,0.600810599979,True,False,stimulusMIPA23_2IFCnew_2019_Jun_17_1450_721,stimulusMIPA23_2IFCnew_2019_Jun_17_1450_722,True,2019_Jun_17_1450,2IFCnew,2,MIPA23,
2IFCnew,61,0,61,0,0.767702699988,5,Yes,7.6,-1,False Alarm,0.700187399983,False,True,stimulusMIPA23_2IFCnew_2019_Jun_17_1450_723,stimulusMIPA23_2IFCnew_2019_Jun_17_1450_724,True,2019_Jun_17_1450,2IFCnew,2,MIPA23,
2IFCnew,62,0,62,0,0.267376099946,1,No,9.6,-1,Hit,0.601359899971,True,False,stimulusMIPA23_2IFCnew_2019_Jun_17_1450_725,stimulusMIPA23_2IFCnew_2019_Jun_17_1450_726,True,2019_Jun_17_1450,2IFCnew,2,MIPA23,
2IFCnew,63,0,63,0,0.333607999957,2,Yes,6.7,-1,Correct Rejection,0.701807399979,False,True,stimulusMIPA23_2IFCnew_2019_Jun_17_1450_727,stimulusMIPA23_2IFCnew_2019_Jun_17_1450_728,True,2019_Jun_17_1450,2IFCnew,2,MIPA23,
2IFCnew,64,0,64,0,0.300291799998,2,Yes,9.6,-1,Correct Rejection,0.534061599988,False,True,stimulusMIPA23_2IFCnew_2019_Jun_17_1450_729,stimulusMIPA23_2IFCnew_2019_Jun_17_1450_730,True,2019_Jun_17_1450,2IFCnew,2,MIPA23,
2IFCnew,65,0,65,0,0.233706000028,1,No,8.6,-1,Hit,0.568126500002,True,False,stimulusMIPA23_2IFCnew_2019_Jun_17_1450_731,stimulusMIPA23_2IFCnew_2019_Jun_17_1450_732,True,2019_Jun_17_1450,2IFCnew,2,MIPA23,
2IFCnew,66,0,66,0,0.133395600016,2,Yes,10.7,-1,Correct Rejection,0.533173800039,False,True,stimulusMIPA23_2IFCnew_2019_Jun_17_1450_733,stimulusMIPA23_2IFCnew_2019_Jun_17_1450_734,True,2019_Jun_17_1450,2IFCnew,2,MIPA23,
2IFCnew,67,0,67,0,0.435372499982,6,No,7.6,-1,Miss,0.566257199971,True,False,stimulusMIPA23_2IFCnew_2019_Jun_17_1450_735,stimulusMIPA23_2IFCnew_2019_Jun_17_1450_736,True,2019_Jun_17_1450,2IFCnew,2,MIPA23,
2IFCnew,68,0,68,0,0.500804800016,3,No,6.7,-1,False Alarm,0.599514000001,False,True,stimulusMIPA23_2IFCnew_2019_Jun_17_1450_737,stimulusMIPA23_2IFCnew_2019_Jun_17_1450_738,True,2019_Jun_17_1450,2IFCnew,2,MIPA23,
2IFCnew,69,0,69,0,0.267732999986,2,Yes,9.6,-1,Correct Rejection,0.567746299959,False,True,stimulusMIPA23_2IFCnew_2019_Jun_17_1450_739,stimulusMIPA23_2IFCnew_2019_Jun_17_1450_740,True,2019_Jun_17_1450,2IFCnew,2,MIPA23,
2IFCnew,70,0,70,0,0.400414400036,2,Yes,8.6,-1,Correct Rejection,0.566049400019,False,True,stimulusMIPA23_2IFCnew_2019_Jun_17_1450_741,stimulusMIPA23_2IFCnew_2019_Jun_17_1450_742,True,2019_Jun_17_1450,2IFCnew,2,MIPA23,
2IFCnew,71,0,71,0,0.302533200011,1,No,10.7,-1,Hit,0.633908400021,True,False,stimulusMIPA23_2IFCnew_2019_Jun_17_1450_743,stimulusMIPA23_2IFCnew_2019_Jun_17_1450_744,True,2019_Jun_17_1450,2IFCnew,2,MIPA23,
2IFCnew,72,0,72,0,0.333875500015,1,No,4.5,-1,Hit,0.734452200006,True,False,stimulusMIPA23_2IFCnew_2019_Jun_17_1450_745,stimulusMIPA23_2IFCnew_2019_Jun_17_1450_746,True,2019_Jun_17_1450,2IFCnew,2,MIPA23,
2IFCnew,73,0,73,0,0.166978600028,1,No,10.7,-1,Hit,0.5337573,True,False,stimulusMIPA23_2IFCnew_2019_Jun_17_1450_747,stimulusMIPA23_2IFCnew_2019_Jun_17_1450_748,True,2019_Jun_17_1450,2IFCnew,2,MIPA23,
2IFCnew,74,0,74,0,0.234415600018,2,Yes,9.6,-1,Correct Rejection,0.601551699976,False,True,stimulusMIPA23_2IFCnew_2019_Jun_17_1450_749,stimulusMIPA23_2IFCnew_2019_Jun_17_1450_750,True,2019_Jun_17_1450,2IFCnew,2,MIPA23,
2IFCnew,0,0,0,0,0.33393230004,2,Yes,9.6,-1,Correct Rejection,0.567326199962,False,True,stimulusMIPA23_2IFCnew_2019_Jun_17_1450_751,stimulusMIPA23_2IFCnew_2019_Jun_17_1450_752,True,2019_Jun_17_1450,2IFCnew,2,MIPA23,
2IFCnew,1,0,1,0,0.299831199984,2,Yes,4.5,-1,Correct Rejection,0.567325399956,False,True,stimulusMIPA23_2IFCnew_2019_Jun_17_1450_753,stimulusMIPA23_2IFCnew_2019_Jun_17_1450_754,True,2019_Jun_17_1450,2IFCnew,2,MIPA23,
2IFCnew,2,0,2,0,0.267127400031,4,Yes,4.5,-1,Miss,0.567222599988,True,False,stimulusMIPA23_2IFCnew_2019_Jun_17_1450_755,stimulusMIPA23_2IFCnew_2019_Jun_17_1450_756,True,2019_Jun_17_1450,2IFCnew,2,MIPA23,
2IFCnew,3,0,3,0,0.133618600026,6,No,8.6,-1,Miss,0.533395200036,True,False,stimulusMIPA23_2IFCnew_2019_Jun_17_1450_757,stimulusMIPA23_2IFCnew_2019_Jun_17_1450_758,True,2019_Jun_17_1450,2IFCnew,2,MIPA23,
2IFCnew,4,0,4,0,0.433735199971,1,No,8.6,-1,Hit,0.700567300024,True,False,stimulusMIPA23_2IFCnew_2019_Jun_17_1450_759,stimulusMIPA23_2IFCnew_2019_Jun_17_1450_760,True,2019_Jun_17_1450,2IFCnew,2,MIPA23,
2IFCnew,5,0,5,0,-1,4,No,2.9,-1,Miss,0.534008999995,True,False,stimulusMIPA23_2IFCnew_2019_Jun_17_1450_761,stimulusMIPA23_2IFCnew_2019_Jun_17_1450_762,True,2019_Jun_17_1450,2IFCnew,2,MIPA23,
2IFCnew,6,0,6,0,0.267127900035,1,No,9.6,-1,Hit,0.700079800037,True,False,stimulusMIPA23_2IFCnew_2019_Jun_17_1450_763,stimulusMIPA23_2IFCnew_2019_Jun_17_1450_764,True,2019_Jun_17_1450,2IFCnew,2,MIPA23,
2IFCnew,7,0,7,0,-1,0,No,10.7,-1,No Answer,-1,True,False,stimulusMIPA23_2IFCnew_2019_Jun_17_1450_765,stimulusMIPA23_2IFCnew_2019_Jun_17_1450_766,True,2019_Jun_17_1450,2IFCnew,2,MIPA23,
2IFCnew,8,0,8,0,0.201001000009,6,No,5.7,-1,Miss,0.567387299961,True,False,stimulusMIPA23_2IFCnew_2019_Jun_17_1450_767,stimulusMIPA23_2IFCnew_2019_Jun_17_1450_768,True,2019_Jun_17_1450,2IFCnew,2,MIPA23,
2IFCnew,9,0,9,0,0.267061400053,1,No,2.9,-1,Hit,0.600926500047,True,False,stimulusMIPA23_2IFCnew_2019_Jun_17_1450_769,stimulusMIPA23_2IFCnew_2019_Jun_17_1450_770,True,2019_Jun_17_1450,2IFCnew,2,MIPA23,
2IFCnew,10,0,10,0,0.200392400031,2,Yes,2.9,-1,Correct Rejection,0.700563999999,False,True,stimulusMIPA23_2IFCnew_2019_Jun_17_1450_771,stimulusMIPA23_2IFCnew_2019_Jun_17_1450_772,True,2019_Jun_17_1450,2IFCnew,2,MIPA23,
2IFCnew,11,0,11,0,0.500311399985,6,No,7.6,-1,Miss,0.53364769998,True,False,stimulusMIPA23_2IFCnew_2019_Jun_17_1450_773,stimulusMIPA23_2IFCnew_2019_Jun_17_1450_774,True,2019_Jun_17_1450,2IFCnew,2,MIPA23,
2IFCnew,12,0,12,0,0.367108599981,3,No,9.6,-1,False Alarm,0.601582499978,False,True,stimulusMIPA23_2IFCnew_2019_Jun_17_1450_775,stimulusMIPA23_2IFCnew_2019_Jun_17_1450_776,True,2019_Jun_17_1450,2IFCnew,2,MIPA23,
2IFCnew,13,0,13,0,0.300409499963,2,Yes,5.7,-1,Correct Rejection,0.56664710003,False,True,stimulusMIPA23_2IFCnew_2019_Jun_17_1450_777,stimulusMIPA23_2IFCnew_2019_Jun_17_1450_778,True,2019_Jun_17_1450,2IFCnew,2,MIPA23,
2IFCnew,14,0,14,0,0.167824100005,1,No,10.7,-1,Hit,0.600865999993,True,False,stimulusMIPA23_2IFCnew_2019_Jun_17_1450_779,stimulusMIPA23_2IFCnew_2019_Jun_17_1450_780,True,2019_Jun_17_1450,2IFCnew,2,MIPA23,
2IFCnew,15,0,15,0,0.26820240001,4,Yes,2.9,-1,Miss,0.566819800006,True,False,stimulusMIPA23_2IFCnew_2019_Jun_17_1450_781,stimulusMIPA23_2IFCnew_2019_Jun_17_1450_782,True,2019_Jun_17_1450,2IFCnew,2,MIPA23,
2IFCnew,16,0,16,0,0.100330299989,1,No,9.6,-1,Hit,0.534921299957,True,False,stimulusMIPA23_2IFCnew_2019_Jun_17_1450_783,stimulusMIPA23_2IFCnew_2019_Jun_17_1450_784,True,2019_Jun_17_1450,2IFCnew,2,MIPA23,
2IFCnew,17,0,17,0,0.333599000005,1,No,6.7,-1,Hit,0.701480399992,True,False,stimulusMIPA23_2IFCnew_2019_Jun_17_1450_785,stimulusMIPA23_2IFCnew_2019_Jun_17_1450_786,True,2019_Jun_17_1450,2IFCnew,2,MIPA23,
2IFCnew,18,0,18,0,0.267453000008,1,No,8.6,-1,Hit,0.734420299996,True,False,stimulusMIPA23_2IFCnew_2019_Jun_17_1450_787,stimulusMIPA23_2IFCnew_2019_Jun_17_1450_788,True,2019_Jun_17_1450,2IFCnew,2,MIPA23,
2IFCnew,19,0,19,0,0.266306499951,2,Yes,7.6,-1,Correct Rejection,0.63413630001,False,True,stimulusMIPA23_2IFCnew_2019_Jun_17_1450_789,stimulusMIPA23_2IFCnew_2019_Jun_17_1450_790,True,2019_Jun_17_1450,2IFCnew,2,MIPA23,
2IFCnew,20,0,20,0,0.100138599984,1,No,4.5,-1,Hit,0.667350300006,True,False,stimulusMIPA23_2IFCnew_2019_Jun_17_1450_791,stimulusMIPA23_2IFCnew_2019_Jun_17_1450_792,True,2019_Jun_17_1450,2IFCnew,2,MIPA23,
2IFCnew,21,0,21,0,0.200642600015,2,Yes,7.6,-1,Correct Rejection,0.600291399984,False,True,stimulusMIPA23_2IFCnew_2019_Jun_17_1450_793,stimulusMIPA23_2IFCnew_2019_Jun_17_1450_794,True,2019_Jun_17_1450,2IFCnew,2,MIPA23,
2IFCnew,22,0,22,0,0.700708299992,2,Yes,7.6,-1,Correct Rejection,0.500588999945,False,True,stimulusMIPA23_2IFCnew_2019_Jun_17_1450_795,stimulusMIPA23_2IFCnew_2019_Jun_17_1450_796,True,2019_Jun_17_1450,2IFCnew,2,MIPA23,
2IFCnew,23,0,23,0,0.332099899999,2,Yes,10.7,-1,Correct Rejection,0.668133600033,False,True,stimulusMIPA23_2IFCnew_2019_Jun_17_1450_797,stimulusMIPA23_2IFCnew_2019_Jun_17_1450_798,True,2019_Jun_17_1450,2IFCnew,2,MIPA23,
2IFCnew,24,0,24,0,0.500450699998,2,Yes,4.5,-1,Correct Rejection,0.667526799953,False,True,stimulusMIPA23_2IFCnew_2019_Jun_17_1450_799,stimulusMIPA23_2IFCnew_2019_Jun_17_1450_800,True,2019_Jun_17_1450,2IFCnew,2,MIPA23,
2IFCnew,25,0,25,0,0.634411400009,5,Yes,9.6,-1,False Alarm,0.601695200021,False,True,stimulusMIPA23_2IFCnew_2019_Jun_17_1450_801,stimulusMIPA23_2IFCnew_2019_Jun_17_1450_802,True,2019_Jun_17_1450,2IFCnew,2,MIPA23,
2IFCnew,26,0,26,0,0.434479299991,6,No,7.6,-1,Miss,0.633262599993,True,False,stimulusMIPA23_2IFCnew_2019_Jun_17_1450_803,stimulusMIPA23_2IFCnew_2019_Jun_17_1450_804,True,2019_Jun_17_1450,2IFCnew,2,MIPA23,
2IFCnew,27,0,27,0,0.667351600016,2,Yes,7.6,-1,Correct Rejection,0.500566100003,False,True,stimulusMIPA23_2IFCnew_2019_Jun_17_1450_805,stimulusMIPA23_2IFCnew_2019_Jun_17_1450_806,True,2019_Jun_17_1450,2IFCnew,2,MIPA23,
2IFCnew,28,0,28,0,0.433680200018,1,No,8.6,-1,Hit,0.600522399996,True,False,stimulusMIPA23_2IFCnew_2019_Jun_17_1450_807,stimulusMIPA23_2IFCnew_2019_Jun_17_1450_808,True,2019_Jun_17_1450,2IFCnew,2,MIPA23,
2IFCnew,29,0,29,0,0.199780099967,2,Yes,10.7,-1,Correct Rejection,0.769215700042,False,True,stimulusMIPA23_2IFCnew_2019_Jun_17_1450_809,stimulusMIPA23_2IFCnew_2019_Jun_17_1450_810,True,2019_Jun_17_1450,2IFCnew,2,MIPA23,
2IFCnew,30,0,30,0,0.0667795999907,1,No,8.6,-1,Hit,0.532313100004,True,False,stimulusMIPA23_2IFCnew_2019_Jun_17_1450_811,stimulusMIPA23_2IFCnew_2019_Jun_17_1450_812,True,2019_Jun_17_1450,2IFCnew,2,MIPA23,
2IFCnew,31,0,31,0,0.167221799958,2,Yes,2.9,-1,Correct Rejection,0.500749900006,False,True,stimulusMIPA23_2IFCnew_2019_Jun_17_1450_813,stimulusMIPA23_2IFCnew_2019_Jun_17_1450_814,True,2019_Jun_17_1450,2IFCnew,2,MIPA23,
2IFCnew,32,0,32,0,0.200553999981,2,Yes,4.5,-1,Correct Rejection,0.601571900013,False,True,stimulusMIPA23_2IFCnew_2019_Jun_17_1450_815,stimulusMIPA23_2IFCnew_2019_Jun_17_1450_816,True,2019_Jun_17_1450,2IFCnew,2,MIPA23,
2IFCnew,33,0,33,0,0.233718400006,6,No,10.7,-1,Miss,0.567275800044,True,False,stimulusMIPA23_2IFCnew_2019_Jun_17_1450_817,stimulusMIPA23_2IFCnew_2019_Jun_17_1450_818,True,2019_Jun_17_1450,2IFCnew,2,MIPA23,
2IFCnew,34,0,34,0,0.33425710001,7,Yes,4.5,-1,Hit,0.534048000001,True,False,stimulusMIPA23_2IFCnew_2019_Jun_17_1450_819,stimulusMIPA23_2IFCnew_2019_Jun_17_1450_820,True,2019_Jun_17_1450,2IFCnew,2,MIPA23,
2IFCnew,35,0,35,0,0.333864199987,2,Yes,6.7,-1,Correct Rejection,0.633327700023,False,True,stimulusMIPA23_2IFCnew_2019_Jun_17_1450_821,stimulusMIPA23_2IFCnew_2019_Jun_17_1450_822,True,2019_Jun_17_1450,2IFCnew,2,MIPA23,
2IFCnew,36,0,36,0,0.266987200011,2,Yes,4.5,-1,Correct Rejection,0.700557200005,False,True,stimulusMIPA23_2IFCnew_2019_Jun_17_1450_823,stimulusMIPA23_2IFCnew_2019_Jun_17_1450_824,True,2019_Jun_17_1450,2IFCnew,2,MIPA23,
2IFCnew,37,0,37,0,0.233835600025,2,Yes,9.6,-1,Correct Rejection,0.535385900002,False,True,stimulusMIPA23_2IFCnew_2019_Jun_17_1450_825,stimulusMIPA23_2IFCnew_2019_Jun_17_1450_826,True,2019_Jun_17_1450,2IFCnew,2,MIPA23,
2IFCnew,38,0,38,0,0.0664194999845,4,Yes,6.7,-1,Miss,0.433943799988,True,False,stimulusMIPA23_2IFCnew_2019_Jun_17_1450_827,stimulusMIPA23_2IFCnew_2019_Jun_17_1450_828,True,2019_Jun_17_1450,2IFCnew,2,MIPA23,
2IFCnew,39,0,39,0,0.500608999981,8,No,7.6,-1,Correct Rejection,0.867435600027,False,True,stimulusMIPA23_2IFCnew_2019_Jun_17_1450_829,stimulusMIPA23_2IFCnew_2019_Jun_17_1450_830,True,2019_Jun_17_1450,2IFCnew,2,MIPA23,
2IFCnew,40,0,40,0,0.534580700041,4,Yes,4.5,-1,Miss,0.568757600035,True,False,stimulusMIPA23_2IFCnew_2019_Jun_17_1450_831,stimulusMIPA23_2IFCnew_2019_Jun_17_1450_832,True,2019_Jun_17_1450,2IFCnew,2,MIPA23,
2IFCnew,41,0,41,0,-1,0,Yes,7.6,-1,No Answer,-1,False,True,stimulusMIPA23_2IFCnew_2019_Jun_17_1450_833,stimulusMIPA23_2IFCnew_2019_Jun_17_1450_834,True,2019_Jun_17_1450,2IFCnew,2,MIPA23,
2IFCnew,42,0,42,0,-1,0,Yes,5.7,-1,No Answer,-1,True,False,stimulusMIPA23_2IFCnew_2019_Jun_17_1450_835,stimulusMIPA23_2IFCnew_2019_Jun_17_1450_836,True,2019_Jun_17_1450,2IFCnew,2,MIPA23,
2IFCnew,43,0,43,0,0.267278200015,1,No,9.6,-1,Hit,0.701016100007,True,False,stimulusMIPA23_2IFCnew_2019_Jun_17_1450_837,stimulusMIPA23_2IFCnew_2019_Jun_17_1450_838,True,2019_Jun_17_1450,2IFCnew,2,MIPA23,
2IFCnew,44,0,44,0,0.233813099971,6,No,7.6,-1,Miss,0.668085399957,True,False,stimulusMIPA23_2IFCnew_2019_Jun_17_1450_839,stimulusMIPA23_2IFCnew_2019_Jun_17_1450_840,True,2019_Jun_17_1450,2IFCnew,2,MIPA23,
2IFCnew,45,0,45,0,0.167293099978,2,Yes,4.5,-1,Correct Rejection,0.533672799997,False,True,stimulusMIPA23_2IFCnew_2019_Jun_17_1450_841,stimulusMIPA23_2IFCnew_2019_Jun_17_1450_842,True,2019_Jun_17_1450,2IFCnew,2,MIPA23,
2IFCnew,46,0,46,0,0.133352199977,1,No,10.7,-1,Hit,0.533486500033,True,False,stimulusMIPA23_2IFCnew_2019_Jun_17_1450_843,stimulusMIPA23_2IFCnew_2019_Jun_17_1450_844,True,2019_Jun_17_1450,2IFCnew,2,MIPA23,
2IFCnew,47,0,47,0,0.133499399992,1,No,10.7,-1,Hit,0.633981599996,True,False,stimulusMIPA23_2IFCnew_2019_Jun_17_1450_845,stimulusMIPA23_2IFCnew_2019_Jun_17_1450_846,True,2019_Jun_17_1450,2IFCnew,2,MIPA23,
2IFCnew,48,0,48,0,0.166485499998,2,Yes,8.6,-1,Correct Rejection,0.567252800043,False,True,stimulusMIPA23_2IFCnew_2019_Jun_17_1450_847,stimulusMIPA23_2IFCnew_2019_Jun_17_1450_848,True,2019_Jun_17_1450,2IFCnew,2,MIPA23,
2IFCnew,49,0,49,0,0.200201000029,4,Yes,2.9,-1,Miss,0.567318999965,True,False,stimulusMIPA23_2IFCnew_2019_Jun_17_1450_849,stimulusMIPA23_2IFCnew_2019_Jun_17_1450_850,True,2019_Jun_17_1450,2IFCnew,2,MIPA23,
2IFCnew,50,0,50,0,0.46737540001,4,Yes,2.9,-1,Miss,0.632766099996,True,False,stimulusMIPA23_2IFCnew_2019_Jun_17_1450_851,stimulusMIPA23_2IFCnew_2019_Jun_17_1450_852,True,2019_Jun_17_1450,2IFCnew,2,MIPA23,
2IFCnew,51,0,51,0,0.367238700041,6,No,2.9,-1,Miss,0.532707600039,True,False,stimulusMIPA23_2IFCnew_2019_Jun_17_1450_853,stimulusMIPA23_2IFCnew_2019_Jun_17_1450_854,True,2019_Jun_17_1450,2IFCnew,2,MIPA23,
2IFCnew,52,0,52,0,0.600646699953,1,No,4.5,-1,Hit,0.633926899987,True,False,stimulusMIPA23_2IFCnew_2019_Jun_17_1450_855,stimulusMIPA23_2IFCnew_2019_Jun_17_1450_856,True,2019_Jun_17_1450,2IFCnew,2,MIPA23,
2IFCnew,53,0,53,0,0.233633299998,1,No,10.7,-1,Hit,0.567430099996,True,False,stimulusMIPA23_2IFCnew_2019_Jun_17_1450_857,stimulusMIPA23_2IFCnew_2019_Jun_17_1450_858,True,2019_Jun_17_1450,2IFCnew,2,MIPA23,
2IFCnew,54,0,54,0,0.167202100041,1,No,6.7,-1,Hit,0.501200600003,True,False,stimulusMIPA23_2IFCnew_2019_Jun_17_1450_859,stimulusMIPA23_2IFCnew_2019_Jun_17_1450_860,True,2019_Jun_17_1450,2IFCnew,2,MIPA23,
2IFCnew,55,0,55,0,0.466995300027,1,No,4.5,-1,Hit,0.899487500021,True,False,stimulusMIPA23_2IFCnew_2019_Jun_17_1450_861,stimulusMIPA23_2IFCnew_2019_Jun_17_1450_862,True,2019_Jun_17_1450,2IFCnew,2,MIPA23,
2IFCnew,56,0,56,0,0.133698499994,2,Yes,5.7,-1,Correct Rejection,0.601733800024,False,True,stimulusMIPA23_2IFCnew_2019_Jun_17_1450_863,stimulusMIPA23_2IFCnew_2019_Jun_17_1450_864,True,2019_Jun_17_1450,2IFCnew,2,MIPA23,
2IFCnew,57,0,57,0,0.469392600004,1,No,10.7,-1,Hit,0.568099100026,True,False,stimulusMIPA23_2IFCnew_2019_Jun_17_1450_865,stimulusMIPA23_2IFCnew_2019_Jun_17_1450_866,True,2019_Jun_17_1450,2IFCnew,2,MIPA23,
2IFCnew,58,0,58,0,0.233964699961,2,Yes,2.9,-1,Correct Rejection,0.703181499965,False,True,stimulusMIPA23_2IFCnew_2019_Jun_17_1450_867,stimulusMIPA23_2IFCnew_2019_Jun_17_1450_868,True,2019_Jun_17_1450,2IFCnew,2,MIPA23,
2IFCnew,59,0,59,0,0.234661700029,2,Yes,5.7,-1,Correct Rejection,0.599402000022,False,True,stimulusMIPA23_2IFCnew_2019_Jun_17_1450_869,stimulusMIPA23_2IFCnew_2019_Jun_17_1450_870,True,2019_Jun_17_1450,2IFCnew,2,MIPA23,
2IFCnew,60,0,60,0,0.267630799965,2,Yes,4.5,-1,Correct Rejection,0.533006099984,False,True,stimulusMIPA23_2IFCnew_2019_Jun_17_1450_871,stimulusMIPA23_2IFCnew_2019_Jun_17_1450_872,True,2019_Jun_17_1450,2IFCnew,2,MIPA23,
2IFCnew,61,0,61,0,0.333686699974,2,Yes,8.6,-1,Correct Rejection,0.500546300027,False,True,stimulusMIPA23_2IFCnew_2019_Jun_17_1450_873,stimulusMIPA23_2IFCnew_2019_Jun_17_1450_874,True,2019_Jun_17_1450,2IFCnew,2,MIPA23,
2IFCnew,62,0,62,0,0.333887899993,2,Yes,6.7,-1,Correct Rejection,0.566798799962,False,True,stimulusMIPA23_2IFCnew_2019_Jun_17_1450_875,stimulusMIPA23_2IFCnew_2019_Jun_17_1450_876,True,2019_Jun_17_1450,2IFCnew,2,MIPA23,
2IFCnew,63,0,63,0,0.267533299979,2,Yes,5.7,-1,Correct Rejection,0.599231299944,False,True,stimulusMIPA23_2IFCnew_2019_Jun_17_1450_877,stimulusMIPA23_2IFCnew_2019_Jun_17_1450_878,True,2019_Jun_17_1450,2IFCnew,2,MIPA23,
2IFCnew,64,0,64,0,0.2340616,6,No,6.7,-1,Miss,0.69885310001,True,False,stimulusMIPA23_2IFCnew_2019_Jun_17_1450_879,stimulusMIPA23_2IFCnew_2019_Jun_17_1450_880,True,2019_Jun_17_1450,2IFCnew,2,MIPA23,
2IFCnew,65,0,65,0,0.167224099976,4,Yes,7.6,-1,Miss,0.566346600011,True,False,stimulusMIPA23_2IFCnew_2019_Jun_17_1450_881,stimulusMIPA23_2IFCnew_2019_Jun_17_1450_882,True,2019_Jun_17_1450,2IFCnew,2,MIPA23,
2IFCnew,66,0,66,0,0.266405200004,1,No,6.7,-1,Hit,0.467312400055,True,False,stimulusMIPA23_2IFCnew_2019_Jun_17_1450_883,stimulusMIPA23_2IFCnew_2019_Jun_17_1450_884,True,2019_Jun_17_1450,2IFCnew,2,MIPA23,
2IFCnew,67,0,67,0,0.19943540002,1,No,8.6,-1,Hit,0.66752409999,True,False,stimulusMIPA23_2IFCnew_2019_Jun_17_1450_885,stimulusMIPA23_2IFCnew_2019_Jun_17_1450_886,True,2019_Jun_17_1450,2IFCnew,2,MIPA23,
2IFCnew,68,0,68,0,0.267078100005,3,No,6.7,-1,False Alarm,0.70016800001,False,True,stimulusMIPA23_2IFCnew_2019_Jun_17_1450_887,stimulusMIPA23_2IFCnew_2019_Jun_17_1450_888,True,2019_Jun_17_1450,2IFCnew,2,MIPA23,
2IFCnew,69,0,69,0,0.200069999963,2,Yes,2.9,-1,Correct Rejection,0.600549000024,False,True,stimulusMIPA23_2IFCnew_2019_Jun_17_1450_889,stimulusMIPA23_2IFCnew_2019_Jun_17_1450_890,True,2019_Jun_17_1450,2IFCnew,2,MIPA23,
2IFCnew,70,0,70,0,0.0330912999925,4,Yes,5.7,-1,Miss,0.467227899993,True,False,stimulusMIPA23_2IFCnew_2019_Jun_17_1450_891,stimulusMIPA23_2IFCnew_2019_Jun_17_1450_892,True,2019_Jun_17_1450,2IFCnew,2,MIPA23,
2IFCnew,71,0,71,0,0.366255699948,4,Yes,7.6,-1,Miss,0.266852100031,True,False,stimulusMIPA23_2IFCnew_2019_Jun_17_1450_893,stimulusMIPA23_2IFCnew_2019_Jun_17_1450_894,True,2019_Jun_17_1450,2IFCnew,2,MIPA23,
2IFCnew,72,0,72,0,0.333316600008,6,No,5.7,-1,Miss,0.300413899997,True,False,stimulusMIPA23_2IFCnew_2019_Jun_17_1450_895,stimulusMIPA23_2IFCnew_2019_Jun_17_1450_896,True,2019_Jun_17_1450,2IFCnew,2,MIPA23,
2IFCnew,73,0,73,0,-1,3,No,9.6,-1,Correct Rejection,0.600648799969,False,True,stimulusMIPA23_2IFCnew_2019_Jun_17_1450_897,stimulusMIPA23_2IFCnew_2019_Jun_17_1450_898,True,2019_Jun_17_1450,2IFCnew,2,MIPA23,
2IFCnew,74,0,74,0,-1,3,No,4.5,-1,Correct Rejection,0.500437700015,False,True,stimulusMIPA23_2IFCnew_2019_Jun_17_1450_899,stimulusMIPA23_2IFCnew_2019_Jun_17_1450_900,True,2019_Jun_17_1450,2IFCnew,2,MIPA23,
2IFCnew,0,0,0,0,0.167024799972,2,Yes,4.5,-1,Correct Rejection,0.600684600009,False,True,stimulusMIPA23_2IFCnew_2019_Jun_17_1450_901,stimulusMIPA23_2IFCnew_2019_Jun_17_1450_902,True,2019_Jun_17_1450,2IFCnew,2,MIPA23,
2IFCnew,1,0,1,0,0.200791499985,1,No,7.6,-1,Hit,0.633996499993,True,False,stimulusMIPA23_2IFCnew_2019_Jun_17_1450_903,stimulusMIPA23_2IFCnew_2019_Jun_17_1450_904,True,2019_Jun_17_1450,2IFCnew,2,MIPA23,
2IFCnew,2,0,2,0,0.10102240002,2,Yes,6.7,-1,Correct Rejection,0.634492100042,False,True,stimulusMIPA23_2IFCnew_2019_Jun_17_1450_905,stimulusMIPA23_2IFCnew_2019_Jun_17_1450_906,True,2019_Jun_17_1450,2IFCnew,2,MIPA23,
2IFCnew,3,0,3,0,0.134927899984,2,Yes,6.7,-1,Correct Rejection,0.499769599992,False,True,stimulusMIPA23_2IFCnew_2019_Jun_17_1450_907,stimulusMIPA23_2IFCnew_2019_Jun_17_1450_908,True,2019_Jun_17_1450,2IFCnew,2,MIPA23,
2IFCnew,4,0,4,0,0.433832400013,2,Yes,9.6,-1,Correct Rejection,0.500752700027,False,True,stimulusMIPA23_2IFCnew_2019_Jun_17_1450_909,stimulusMIPA23_2IFCnew_2019_Jun_17_1450_910,True,2019_Jun_17_1450,2IFCnew,2,MIPA23,
2IFCnew,5,0,5,0,0.167528299964,4,Yes,9.6,-1,Miss,0.433456800005,True,False,stimulusMIPA23_2IFCnew_2019_Jun_17_1450_911,stimulusMIPA23_2IFCnew_2019_Jun_17_1450_912,True,2019_Jun_17_1450,2IFCnew,2,MIPA23,
2IFCnew,6,0,6,0,0.433619700023,1,No,4.5,-1,Hit,0.500048100017,True,False,stimulusMIPA23_2IFCnew_2019_Jun_17_1450_913,stimulusMIPA23_2IFCnew_2019_Jun_17_1450_914,True,2019_Jun_17_1450,2IFCnew,2,MIPA23,
2IFCnew,7,0,7,0,0.100959100004,6,No,6.7,-1,Miss,0.400812799984,True,False,stimulusMIPA23_2IFCnew_2019_Jun_17_1450_915,stimulusMIPA23_2IFCnew_2019_Jun_17_1450_916,True,2019_Jun_17_1450,2IFCnew,2,MIPA23,
2IFCnew,8,0,8,0,0.2003043,1,No,8.6,-1,Hit,0.53501990001,True,False,stimulusMIPA23_2IFCnew_2019_Jun_17_1450_917,stimulusMIPA23_2IFCnew_2019_Jun_17_1450_918,True,2019_Jun_17_1450,2IFCnew,2,MIPA23,
2IFCnew,9,0,9,0,0.334498100041,8,No,10.7,-1,Correct Rejection,0.534442499978,False,True,stimulusMIPA23_2IFCnew_2019_Jun_17_1450_919,stimulusMIPA23_2IFCnew_2019_Jun_17_1450_920,True,2019_Jun_17_1450,2IFCnew,2,MIPA23,
2IFCnew,10,0,10,0,0.233776399982,2,Yes,7.6,-1,Correct Rejection,0.56717699999,False,True,stimulusMIPA23_2IFCnew_2019_Jun_17_1450_921,stimulusMIPA23_2IFCnew_2019_Jun_17_1450_922,True,2019_Jun_17_1450,2IFCnew,2,MIPA23,
2IFCnew,11,0,11,0,0.267380299978,4,Yes,2.9,-1,Miss,0.567460899998,True,False,stimulusMIPA23_2IFCnew_2019_Jun_17_1450_923,stimulusMIPA23_2IFCnew_2019_Jun_17_1450_924,True,2019_Jun_17_1450,2IFCnew,2,MIPA23,
2IFCnew,12,0,12,0,0.266909500002,2,Yes,7.6,-1,Correct Rejection,0.40069150005,False,True,stimulusMIPA23_2IFCnew_2019_Jun_17_1450_925,stimulusMIPA23_2IFCnew_2019_Jun_17_1450_926,True,2019_Jun_17_1450,2IFCnew,2,MIPA23,
2IFCnew,13,0,13,0,0.133990200004,1,No,6.7,-1,Hit,0.567448099959,True,False,stimulusMIPA23_2IFCnew_2019_Jun_17_1450_927,stimulusMIPA23_2IFCnew_2019_Jun_17_1450_928,True,2019_Jun_17_1450,2IFCnew,2,MIPA23,
2IFCnew,14,0,14,0,0.333082299971,2,Yes,10.7,-1,Correct Rejection,0.633675999998,False,True,stimulusMIPA23_2IFCnew_2019_Jun_17_1450_929,stimulusMIPA23_2IFCnew_2019_Jun_17_1450_930,True,2019_Jun_17_1450,2IFCnew,2,MIPA23,
2IFCnew,15,0,15,0,0.333683100005,2,Yes,6.7,-1,Correct Rejection,0.433442700014,False,True,stimulusMIPA23_2IFCnew_2019_Jun_17_1450_931,stimulusMIPA23_2IFCnew_2019_Jun_17_1450_932,True,2019_Jun_17_1450,2IFCnew,2,MIPA23,
2IFCnew,16,0,16,0,0.366626400035,6,No,4.5,-1,Miss,0.502039899991,True,False,stimulusMIPA23_2IFCnew_2019_Jun_17_1450_933,stimulusMIPA23_2IFCnew_2019_Jun_17_1450_934,True,2019_Jun_17_1450,2IFCnew,2,MIPA23,
2IFCnew,17,0,17,0,0.634077100025,2,Yes,9.6,-1,Correct Rejection,0.667439099983,False,True,stimulusMIPA23_2IFCnew_2019_Jun_17_1450_935,stimulusMIPA23_2IFCnew_2019_Jun_17_1450_936,True,2019_Jun_17_1450,2IFCnew,2,MIPA23,
2IFCnew,18,0,18,0,0.30037740001,2,Yes,7.6,-1,Correct Rejection,0.534363700019,False,True,stimulusMIPA23_2IFCnew_2019_Jun_17_1450_937,stimulusMIPA23_2IFCnew_2019_Jun_17_1450_938,True,2019_Jun_17_1450,2IFCnew,2,MIPA23,
2IFCnew,19,0,19,0,0.300440200022,4,Yes,5.7,-1,Miss,0.465759100043,True,False,stimulusMIPA23_2IFCnew_2019_Jun_17_1450_939,stimulusMIPA23_2IFCnew_2019_Jun_17_1450_940,True,2019_Jun_17_1450,2IFCnew,2,MIPA23,
2IFCnew,20,0,20,0,0.367135100008,8,No,2.9,-1,Correct Rejection,0.533762599982,False,True,stimulusMIPA23_2IFCnew_2019_Jun_17_1450_941,stimulusMIPA23_2IFCnew_2019_Jun_17_1450_942,True,2019_Jun_17_1450,2IFCnew,2,MIPA23,
2IFCnew,21,0,21,0,0.433902500023,2,Yes,7.6,-1,Correct Rejection,0.53451540001,False,True,stimulusMIPA23_2IFCnew_2019_Jun_17_1450_943,stimulusMIPA23_2IFCnew_2019_Jun_17_1450_944,True,2019_Jun_17_1450,2IFCnew,2,MIPA23,
2IFCnew,22,0,22,0,0.501919700007,8,No,5.7,-1,Correct Rejection,0.601000299968,False,True,stimulusMIPA23_2IFCnew_2019_Jun_17_1450_945,stimulusMIPA23_2IFCnew_2019_Jun_17_1450_946,True,2019_Jun_17_1450,2IFCnew,2,MIPA23,
2IFCnew,23,0,23,0,0.30009199999,2,Yes,5.7,-1,Correct Rejection,0.700691199978,False,True,stimulusMIPA23_2IFCnew_2019_Jun_17_1450_947,stimulusMIPA23_2IFCnew_2019_Jun_17_1450_948,True,2019_Jun_17_1450,2IFCnew,2,MIPA23,
2IFCnew,24,0,24,0,0.265827800031,2,Yes,9.6,-1,Correct Rejection,0.499994600017,False,True,stimulusMIPA23_2IFCnew_2019_Jun_17_1450_949,stimulusMIPA23_2IFCnew_2019_Jun_17_1450_950,True,2019_Jun_17_1450,2IFCnew,2,MIPA23,
2IFCnew,25,0,25,0,-1,4,Yes,4.5,-1,Miss,0.533941600006,True,False,stimulusMIPA23_2IFCnew_2019_Jun_17_1450_951,stimulusMIPA23_2IFCnew_2019_Jun_17_1450_952,True,2019_Jun_17_1450,2IFCnew,2,MIPA23,
2IFCnew,26,0,26,0,0.133700100007,6,No,5.7,-1,Miss,0.30046540004,True,False,stimulusMIPA23_2IFCnew_2019_Jun_17_1450_953,stimulusMIPA23_2IFCnew_2019_Jun_17_1450_954,True,2019_Jun_17_1450,2IFCnew,2,MIPA23,
