Task,trials.thisRepN,trials.thisTrialN,trials.thisN,trials.thisIndex,signal_intensity,constant Value,response,time_response,signal_on_stimuluspos1,signal_on_stimuluspos2,stimulus_name_pos1,stimulus_name_pos2,random_intensity,date,expName,session,participant,
2IFC,0,0,0,0,9.7,-1,correct answer,0.567311000079,True,False,stimulusRAMA04_2IFC_2019_Jun_12_1228_1,stimulusRAMA04_2IFC_2019_Jun_12_1228_2,True,2019_Jun_12_1228,2IFC,3,RAMA04,
2IFC,1,0,1,0,6,-1,correct answer,0.36738760001,True,False,stimulusRAMA04_2IFC_2019_Jun_12_1228_3,stimulusRAMA04_2IFC_2019_Jun_12_1228_4,True,2019_Jun_12_1228,2IFC,3,RAMA04,
2IFC,2,0,2,0,2.6,-1,wrong answer,0.467721499968,True,False,stimulusRAMA04_2IFC_2019_Jun_12_1228_5,stimulusRAMA04_2IFC_2019_Jun_12_1228_6,True,2019_Jun_12_1228,2IFC,3,RAMA04,
2IFC,3,0,3,0,5,-1,wrong answer,0.434119099984,True,False,stimulusRAMA04_2IFC_2019_Jun_12_1228_7,stimulusRAMA04_2IFC_2019_Jun_12_1228_8,True,2019_Jun_12_1228,2IFC,3,RAMA04,
2IFC,4,0,4,0,7,-1,correct answer,0.46736320015,False,True,stimulusRAMA04_2IFC_2019_Jun_12_1228_9,stimulusRAMA04_2IFC_2019_Jun_12_1228_10,True,2019_Jun_12_1228,2IFC,3,RAMA04,
2IFC,5,0,5,0,7,-1,correct answer,0.500885999994,False,True,stimulusRAMA04_2IFC_2019_Jun_12_1228_11,stimulusRAMA04_2IFC_2019_Jun_12_1228_12,True,2019_Jun_12_1228,2IFC,3,RAMA04,
2IFC,6,0,6,0,2.6,-1,correct answer,0.469070099993,False,True,stimulusRAMA04_2IFC_2019_Jun_12_1228_13,stimulusRAMA04_2IFC_2019_Jun_12_1228_14,True,2019_Jun_12_1228,2IFC,3,RAMA04,
2IFC,7,0,7,0,9.7,-1,correct answer,0.367463399889,True,False,stimulusRAMA04_2IFC_2019_Jun_12_1228_15,stimulusRAMA04_2IFC_2019_Jun_12_1228_16,True,2019_Jun_12_1228,2IFC,3,RAMA04,
2IFC,8,0,8,0,2.6,-1,correct answer,0.434171299916,False,True,stimulusRAMA04_2IFC_2019_Jun_12_1228_17,stimulusRAMA04_2IFC_2019_Jun_12_1228_18,True,2019_Jun_12_1228,2IFC,3,RAMA04,
2IFC,9,0,9,0,5,-1,correct answer,0.367254600162,False,True,stimulusRAMA04_2IFC_2019_Jun_12_1228_19,stimulusRAMA04_2IFC_2019_Jun_12_1228_20,True,2019_Jun_12_1228,2IFC,3,RAMA04,
2IFC,10,0,10,0,7,-1,correct answer,0.33432559995,True,False,stimulusRAMA04_2IFC_2019_Jun_12_1228_21,stimulusRAMA04_2IFC_2019_Jun_12_1228_22,True,2019_Jun_12_1228,2IFC,3,RAMA04,
2IFC,11,0,11,0,9.7,-1,correct answer,0.434146200074,True,False,stimulusRAMA04_2IFC_2019_Jun_12_1228_23,stimulusRAMA04_2IFC_2019_Jun_12_1228_24,True,2019_Jun_12_1228,2IFC,3,RAMA04,
2IFC,12,0,12,0,5,-1,correct answer,0.397423000075,False,True,stimulusRAMA04_2IFC_2019_Jun_12_1228_25,stimulusRAMA04_2IFC_2019_Jun_12_1228_26,True,2019_Jun_12_1228,2IFC,3,RAMA04,
2IFC,13,0,13,0,3.8,-1,correct answer,0.400138899917,False,True,stimulusRAMA04_2IFC_2019_Jun_12_1228_27,stimulusRAMA04_2IFC_2019_Jun_12_1228_28,True,2019_Jun_12_1228,2IFC,3,RAMA04,
2IFC,14,0,14,0,5,-1,correct answer,0.367148600053,False,True,stimulusRAMA04_2IFC_2019_Jun_12_1228_29,stimulusRAMA04_2IFC_2019_Jun_12_1228_30,True,2019_Jun_12_1228,2IFC,3,RAMA04,
2IFC,15,0,15,0,2.6,-1,wrong answer,0.333574699936,True,False,stimulusRAMA04_2IFC_2019_Jun_12_1228_31,stimulusRAMA04_2IFC_2019_Jun_12_1228_32,True,2019_Jun_12_1228,2IFC,3,RAMA04,
2IFC,16,0,16,0,2.5,-1,correct answer,0.400105299894,False,True,stimulusRAMA04_2IFC_2019_Jun_12_1228_33,stimulusRAMA04_2IFC_2019_Jun_12_1228_34,True,2019_Jun_12_1228,2IFC,3,RAMA04,
2IFC,17,0,17,0,2.6,-1,wrong answer,0.435014200164,True,False,stimulusRAMA04_2IFC_2019_Jun_12_1228_35,stimulusRAMA04_2IFC_2019_Jun_12_1228_36,True,2019_Jun_12_1228,2IFC,3,RAMA04,
2IFC,18,0,18,0,9.7,-1,correct answer,0.36787889991,True,False,stimulusRAMA04_2IFC_2019_Jun_12_1228_37,stimulusRAMA04_2IFC_2019_Jun_12_1228_38,True,2019_Jun_12_1228,2IFC,3,RAMA04,
2IFC,19,0,19,0,7,-1,correct answer,0.603321000002,True,False,stimulusRAMA04_2IFC_2019_Jun_12_1228_39,stimulusRAMA04_2IFC_2019_Jun_12_1228_40,True,2019_Jun_12_1228,2IFC,3,RAMA04,
2IFC,20,0,20,0,5,-1,wrong answer,0.434007100062,True,False,stimulusRAMA04_2IFC_2019_Jun_12_1228_41,stimulusRAMA04_2IFC_2019_Jun_12_1228_42,True,2019_Jun_12_1228,2IFC,3,RAMA04,
2IFC,21,0,21,0,5,-1,correct answer,0.366063500056,True,False,stimulusRAMA04_2IFC_2019_Jun_12_1228_43,stimulusRAMA04_2IFC_2019_Jun_12_1228_44,True,2019_Jun_12_1228,2IFC,3,RAMA04,
2IFC,22,0,22,0,7,-1,correct answer,0.434122800129,True,False,stimulusRAMA04_2IFC_2019_Jun_12_1228_45,stimulusRAMA04_2IFC_2019_Jun_12_1228_46,True,2019_Jun_12_1228,2IFC,3,RAMA04,
2IFC,23,0,23,0,2.5,-1,correct answer,0.433735300088,False,True,stimulusRAMA04_2IFC_2019_Jun_12_1228_47,stimulusRAMA04_2IFC_2019_Jun_12_1228_48,True,2019_Jun_12_1228,2IFC,3,RAMA04,
2IFC,24,0,24,0,3.8,-1,wrong answer,0.46722989995,True,False,stimulusRAMA04_2IFC_2019_Jun_12_1228_49,stimulusRAMA04_2IFC_2019_Jun_12_1228_50,True,2019_Jun_12_1228,2IFC,3,RAMA04,
2IFC,25,0,25,0,3.8,-1,wrong answer,0.366258500144,True,False,stimulusRAMA04_2IFC_2019_Jun_12_1228_51,stimulusRAMA04_2IFC_2019_Jun_12_1228_52,True,2019_Jun_12_1228,2IFC,3,RAMA04,
2IFC,26,0,26,0,2.6,-1,wrong answer,0.43389840005,True,False,stimulusRAMA04_2IFC_2019_Jun_12_1228_53,stimulusRAMA04_2IFC_2019_Jun_12_1228_54,True,2019_Jun_12_1228,2IFC,3,RAMA04,
2IFC,27,0,27,0,7,-1,correct answer,0.568439000053,False,True,stimulusRAMA04_2IFC_2019_Jun_12_1228_55,stimulusRAMA04_2IFC_2019_Jun_12_1228_56,True,2019_Jun_12_1228,2IFC,3,RAMA04,
2IFC,28,0,28,0,6,-1,correct answer,0.530635199975,True,False,stimulusRAMA04_2IFC_2019_Jun_12_1228_57,stimulusRAMA04_2IFC_2019_Jun_12_1228_58,True,2019_Jun_12_1228,2IFC,3,RAMA04,
2IFC,29,0,29,0,8.2,-1,correct answer,0.434178299969,False,True,stimulusRAMA04_2IFC_2019_Jun_12_1228_59,stimulusRAMA04_2IFC_2019_Jun_12_1228_60,True,2019_Jun_12_1228,2IFC,3,RAMA04,
2IFC,30,0,30,0,6,-1,correct answer,0.500881499844,False,True,stimulusRAMA04_2IFC_2019_Jun_12_1228_61,stimulusRAMA04_2IFC_2019_Jun_12_1228_62,True,2019_Jun_12_1228,2IFC,3,RAMA04,
2IFC,31,0,31,0,2.6,-1,correct answer,0.433940300019,False,True,stimulusRAMA04_2IFC_2019_Jun_12_1228_63,stimulusRAMA04_2IFC_2019_Jun_12_1228_64,True,2019_Jun_12_1228,2IFC,3,RAMA04,
2IFC,32,0,32,0,8.2,-1,correct answer,0.404123199871,False,True,stimulusRAMA04_2IFC_2019_Jun_12_1228_65,stimulusRAMA04_2IFC_2019_Jun_12_1228_66,True,2019_Jun_12_1228,2IFC,3,RAMA04,
2IFC,33,0,33,0,8.2,-1,correct answer,0.367473399965,False,True,stimulusRAMA04_2IFC_2019_Jun_12_1228_67,stimulusRAMA04_2IFC_2019_Jun_12_1228_68,True,2019_Jun_12_1228,2IFC,3,RAMA04,
2IFC,34,0,34,0,6,-1,wrong answer,0.467439600034,True,False,stimulusRAMA04_2IFC_2019_Jun_12_1228_69,stimulusRAMA04_2IFC_2019_Jun_12_1228_70,True,2019_Jun_12_1228,2IFC,3,RAMA04,
2IFC,35,0,35,0,5,-1,correct answer,0.467650600011,False,True,stimulusRAMA04_2IFC_2019_Jun_12_1228_71,stimulusRAMA04_2IFC_2019_Jun_12_1228_72,True,2019_Jun_12_1228,2IFC,3,RAMA04,
2IFC,36,0,36,0,7,-1,correct answer,0.466417499818,False,True,stimulusRAMA04_2IFC_2019_Jun_12_1228_73,stimulusRAMA04_2IFC_2019_Jun_12_1228_74,True,2019_Jun_12_1228,2IFC,3,RAMA04,
2IFC,37,0,37,0,3.8,-1,wrong answer,0.399388399906,True,False,stimulusRAMA04_2IFC_2019_Jun_12_1228_75,stimulusRAMA04_2IFC_2019_Jun_12_1228_76,True,2019_Jun_12_1228,2IFC,3,RAMA04,
2IFC,38,0,38,0,5,-1,wrong answer,0.534221800044,True,False,stimulusRAMA04_2IFC_2019_Jun_12_1228_77,stimulusRAMA04_2IFC_2019_Jun_12_1228_78,True,2019_Jun_12_1228,2IFC,3,RAMA04,
2IFC,39,0,39,0,2.6,-1,wrong answer,0.431174800033,True,False,stimulusRAMA04_2IFC_2019_Jun_12_1228_79,stimulusRAMA04_2IFC_2019_Jun_12_1228_80,True,2019_Jun_12_1228,2IFC,3,RAMA04,
2IFC,40,0,40,0,7,-1,correct answer,0.300684400136,True,False,stimulusRAMA04_2IFC_2019_Jun_12_1228_81,stimulusRAMA04_2IFC_2019_Jun_12_1228_82,True,2019_Jun_12_1228,2IFC,3,RAMA04,
2IFC,41,0,41,0,7,-1,correct answer,0.300185999833,True,False,stimulusRAMA04_2IFC_2019_Jun_12_1228_83,stimulusRAMA04_2IFC_2019_Jun_12_1228_84,True,2019_Jun_12_1228,2IFC,3,RAMA04,
2IFC,42,0,42,0,7,-1,correct answer,0.400610100012,False,True,stimulusRAMA04_2IFC_2019_Jun_12_1228_85,stimulusRAMA04_2IFC_2019_Jun_12_1228_86,True,2019_Jun_12_1228,2IFC,3,RAMA04,
2IFC,43,0,43,0,7,-1,correct answer,0.267064900137,True,False,stimulusRAMA04_2IFC_2019_Jun_12_1228_87,stimulusRAMA04_2IFC_2019_Jun_12_1228_88,True,2019_Jun_12_1228,2IFC,3,RAMA04,
2IFC,44,0,44,0,9.7,-1,correct answer,0.300558899995,True,False,stimulusRAMA04_2IFC_2019_Jun_12_1228_89,stimulusRAMA04_2IFC_2019_Jun_12_1228_90,True,2019_Jun_12_1228,2IFC,3,RAMA04,
2IFC,45,0,45,0,6,-1,correct answer,0.567246099934,True,False,stimulusRAMA04_2IFC_2019_Jun_12_1228_91,stimulusRAMA04_2IFC_2019_Jun_12_1228_92,True,2019_Jun_12_1228,2IFC,3,RAMA04,
2IFC,46,0,46,0,5,-1,correct answer,0.600963700097,True,False,stimulusRAMA04_2IFC_2019_Jun_12_1228_93,stimulusRAMA04_2IFC_2019_Jun_12_1228_94,True,2019_Jun_12_1228,2IFC,3,RAMA04,
2IFC,47,0,47,0,9.7,-1,correct answer,0.400705100037,False,True,stimulusRAMA04_2IFC_2019_Jun_12_1228_95,stimulusRAMA04_2IFC_2019_Jun_12_1228_96,True,2019_Jun_12_1228,2IFC,3,RAMA04,
2IFC,48,0,48,0,5,-1,correct answer,0.667180199875,True,False,stimulusRAMA04_2IFC_2019_Jun_12_1228_97,stimulusRAMA04_2IFC_2019_Jun_12_1228_98,True,2019_Jun_12_1228,2IFC,3,RAMA04,
2IFC,49,0,49,0,2.6,-1,wrong answer,0.334212899907,True,False,stimulusRAMA04_2IFC_2019_Jun_12_1228_99,stimulusRAMA04_2IFC_2019_Jun_12_1228_100,True,2019_Jun_12_1228,2IFC,3,RAMA04,
2IFC,50,0,50,0,2.5,-1,correct answer,0.500630999915,False,True,stimulusRAMA04_2IFC_2019_Jun_12_1228_101,stimulusRAMA04_2IFC_2019_Jun_12_1228_102,True,2019_Jun_12_1228,2IFC,3,RAMA04,
2IFC,51,0,51,0,7,-1,correct answer,0.36715950002,False,True,stimulusRAMA04_2IFC_2019_Jun_12_1228_103,stimulusRAMA04_2IFC_2019_Jun_12_1228_104,True,2019_Jun_12_1228,2IFC,3,RAMA04,
2IFC,52,0,52,0,7,-1,correct answer,0.701146899955,True,False,stimulusRAMA04_2IFC_2019_Jun_12_1228_105,stimulusRAMA04_2IFC_2019_Jun_12_1228_106,True,2019_Jun_12_1228,2IFC,3,RAMA04,
2IFC,53,0,53,0,8.2,-1,correct answer,0.368076500017,False,True,stimulusRAMA04_2IFC_2019_Jun_12_1228_107,stimulusRAMA04_2IFC_2019_Jun_12_1228_108,True,2019_Jun_12_1228,2IFC,3,RAMA04,
2IFC,54,0,54,0,7,-1,correct answer,0.300113399979,False,True,stimulusRAMA04_2IFC_2019_Jun_12_1228_109,stimulusRAMA04_2IFC_2019_Jun_12_1228_110,True,2019_Jun_12_1228,2IFC,3,RAMA04,
2IFC,55,0,55,0,6,-1,wrong answer,0.300725499867,True,False,stimulusRAMA04_2IFC_2019_Jun_12_1228_111,stimulusRAMA04_2IFC_2019_Jun_12_1228_112,True,2019_Jun_12_1228,2IFC,3,RAMA04,
2IFC,56,0,56,0,6,-1,correct answer,0.367456400068,False,True,stimulusRAMA04_2IFC_2019_Jun_12_1228_113,stimulusRAMA04_2IFC_2019_Jun_12_1228_114,True,2019_Jun_12_1228,2IFC,3,RAMA04,
2IFC,57,0,57,0,2.6,-1,correct answer,0.50091549987,False,True,stimulusRAMA04_2IFC_2019_Jun_12_1228_115,stimulusRAMA04_2IFC_2019_Jun_12_1228_116,True,2019_Jun_12_1228,2IFC,3,RAMA04,
2IFC,58,0,58,0,5,-1,correct answer,0.367139600217,False,True,stimulusRAMA04_2IFC_2019_Jun_12_1228_117,stimulusRAMA04_2IFC_2019_Jun_12_1228_118,True,2019_Jun_12_1228,2IFC,3,RAMA04,
2IFC,59,0,59,0,6,-1,correct answer,0.334408799885,False,True,stimulusRAMA04_2IFC_2019_Jun_12_1228_119,stimulusRAMA04_2IFC_2019_Jun_12_1228_120,True,2019_Jun_12_1228,2IFC,3,RAMA04,
2IFC,60,0,60,0,3.8,-1,correct answer,0.63604410016,True,False,stimulusRAMA04_2IFC_2019_Jun_12_1228_121,stimulusRAMA04_2IFC_2019_Jun_12_1228_122,True,2019_Jun_12_1228,2IFC,3,RAMA04,
2IFC,61,0,61,0,8.2,-1,correct answer,0.300623799907,False,True,stimulusRAMA04_2IFC_2019_Jun_12_1228_123,stimulusRAMA04_2IFC_2019_Jun_12_1228_124,True,2019_Jun_12_1228,2IFC,3,RAMA04,
2IFC,62,0,62,0,2.5,-1,wrong answer,0.668322700076,False,True,stimulusRAMA04_2IFC_2019_Jun_12_1228_125,stimulusRAMA04_2IFC_2019_Jun_12_1228_126,True,2019_Jun_12_1228,2IFC,3,RAMA04,
2IFC,63,0,63,0,7,-1,correct answer,0.36673759995,False,True,stimulusRAMA04_2IFC_2019_Jun_12_1228_127,stimulusRAMA04_2IFC_2019_Jun_12_1228_128,True,2019_Jun_12_1228,2IFC,3,RAMA04,
2IFC,64,0,64,0,8.2,-1,correct answer,0.400811600033,False,True,stimulusRAMA04_2IFC_2019_Jun_12_1228_129,stimulusRAMA04_2IFC_2019_Jun_12_1228_130,True,2019_Jun_12_1228,2IFC,3,RAMA04,
2IFC,65,0,65,0,7,-1,wrong answer,0.601014400134,True,False,stimulusRAMA04_2IFC_2019_Jun_12_1228_131,stimulusRAMA04_2IFC_2019_Jun_12_1228_132,True,2019_Jun_12_1228,2IFC,3,RAMA04,
2IFC,66,0,66,0,6,-1,correct answer,0.329646900063,True,False,stimulusRAMA04_2IFC_2019_Jun_12_1228_133,stimulusRAMA04_2IFC_2019_Jun_12_1228_134,True,2019_Jun_12_1228,2IFC,3,RAMA04,
2IFC,67,0,67,0,2.6,-1,correct answer,0.600722400006,True,False,stimulusRAMA04_2IFC_2019_Jun_12_1228_135,stimulusRAMA04_2IFC_2019_Jun_12_1228_136,True,2019_Jun_12_1228,2IFC,3,RAMA04,
2IFC,68,0,68,0,7,-1,correct answer,0.43437020015,False,True,stimulusRAMA04_2IFC_2019_Jun_12_1228_137,stimulusRAMA04_2IFC_2019_Jun_12_1228_138,True,2019_Jun_12_1228,2IFC,3,RAMA04,
2IFC,69,0,69,0,8.2,-1,correct answer,0.534998500021,True,False,stimulusRAMA04_2IFC_2019_Jun_12_1228_139,stimulusRAMA04_2IFC_2019_Jun_12_1228_140,True,2019_Jun_12_1228,2IFC,3,RAMA04,
2IFC,70,0,70,0,2.5,-1,wrong answer,0.867455300177,False,True,stimulusRAMA04_2IFC_2019_Jun_12_1228_141,stimulusRAMA04_2IFC_2019_Jun_12_1228_142,True,2019_Jun_12_1228,2IFC,3,RAMA04,
2IFC,71,0,71,0,3.8,-1,correct answer,0.468210200081,False,True,stimulusRAMA04_2IFC_2019_Jun_12_1228_143,stimulusRAMA04_2IFC_2019_Jun_12_1228_144,True,2019_Jun_12_1228,2IFC,3,RAMA04,
2IFC,72,0,72,0,2.5,-1,correct answer,0.800255000126,True,False,stimulusRAMA04_2IFC_2019_Jun_12_1228_145,stimulusRAMA04_2IFC_2019_Jun_12_1228_146,True,2019_Jun_12_1228,2IFC,3,RAMA04,
2IFC,73,0,73,0,7,-1,correct answer,0.501033399953,True,False,stimulusRAMA04_2IFC_2019_Jun_12_1228_147,stimulusRAMA04_2IFC_2019_Jun_12_1228_148,True,2019_Jun_12_1228,2IFC,3,RAMA04,
2IFC,74,0,74,0,3.8,-1,correct answer,0.467145700008,True,False,stimulusRAMA04_2IFC_2019_Jun_12_1228_149,stimulusRAMA04_2IFC_2019_Jun_12_1228_150,True,2019_Jun_12_1228,2IFC,3,RAMA04,
2IFC,0,0,0,0,7,-1,correct answer,0.433962499956,True,False,stimulusRAMA04_2IFC_2019_Jun_12_1228_151,stimulusRAMA04_2IFC_2019_Jun_12_1228_152,True,2019_Jun_12_1228,2IFC,3,RAMA04,
2IFC,1,0,1,0,2.5,-1,correct answer,0.50077919988,False,True,stimulusRAMA04_2IFC_2019_Jun_12_1228_153,stimulusRAMA04_2IFC_2019_Jun_12_1228_154,True,2019_Jun_12_1228,2IFC,3,RAMA04,
2IFC,2,0,2,0,3.8,-1,wrong answer,0.400851699989,True,False,stimulusRAMA04_2IFC_2019_Jun_12_1228_155,stimulusRAMA04_2IFC_2019_Jun_12_1228_156,True,2019_Jun_12_1228,2IFC,3,RAMA04,
2IFC,3,0,3,0,8.2,-1,correct answer,0.433673900086,False,True,stimulusRAMA04_2IFC_2019_Jun_12_1228_157,stimulusRAMA04_2IFC_2019_Jun_12_1228_158,True,2019_Jun_12_1228,2IFC,3,RAMA04,
2IFC,4,0,4,0,2.6,-1,correct answer,0.567576600006,False,True,stimulusRAMA04_2IFC_2019_Jun_12_1228_159,stimulusRAMA04_2IFC_2019_Jun_12_1228_160,True,2019_Jun_12_1228,2IFC,3,RAMA04,
2IFC,5,0,5,0,9.7,-1,correct answer,0.500503599877,False,True,stimulusRAMA04_2IFC_2019_Jun_12_1228_161,stimulusRAMA04_2IFC_2019_Jun_12_1228_162,True,2019_Jun_12_1228,2IFC,3,RAMA04,
2IFC,6,0,6,0,3.8,-1,correct answer,0.433784699999,False,True,stimulusRAMA04_2IFC_2019_Jun_12_1228_163,stimulusRAMA04_2IFC_2019_Jun_12_1228_164,True,2019_Jun_12_1228,2IFC,3,RAMA04,
2IFC,7,0,7,0,8.2,-1,correct answer,0.433935199864,False,True,stimulusRAMA04_2IFC_2019_Jun_12_1228_165,stimulusRAMA04_2IFC_2019_Jun_12_1228_166,True,2019_Jun_12_1228,2IFC,3,RAMA04,
2IFC,8,0,8,0,7,-1,correct answer,0.535207000095,True,False,stimulusRAMA04_2IFC_2019_Jun_12_1228_167,stimulusRAMA04_2IFC_2019_Jun_12_1228_168,True,2019_Jun_12_1228,2IFC,3,RAMA04,
2IFC,9,0,9,0,6,-1,correct answer,0.334054499865,True,False,stimulusRAMA04_2IFC_2019_Jun_12_1228_169,stimulusRAMA04_2IFC_2019_Jun_12_1228_170,True,2019_Jun_12_1228,2IFC,3,RAMA04,
2IFC,10,0,10,0,9.7,-1,correct answer,0.567490899935,False,True,stimulusRAMA04_2IFC_2019_Jun_12_1228_171,stimulusRAMA04_2IFC_2019_Jun_12_1228_172,True,2019_Jun_12_1228,2IFC,3,RAMA04,
2IFC,11,0,11,0,8.2,-1,correct answer,0.367904700106,False,True,stimulusRAMA04_2IFC_2019_Jun_12_1228_173,stimulusRAMA04_2IFC_2019_Jun_12_1228_174,True,2019_Jun_12_1228,2IFC,3,RAMA04,
2IFC,12,0,12,0,7,-1,correct answer,0.300482099876,True,False,stimulusRAMA04_2IFC_2019_Jun_12_1228_175,stimulusRAMA04_2IFC_2019_Jun_12_1228_176,True,2019_Jun_12_1228,2IFC,3,RAMA04,
2IFC,13,0,13,0,2.5,-1,correct answer,0.533950499957,True,False,stimulusRAMA04_2IFC_2019_Jun_12_1228_177,stimulusRAMA04_2IFC_2019_Jun_12_1228_178,True,2019_Jun_12_1228,2IFC,3,RAMA04,
2IFC,14,0,14,0,6,-1,correct answer,0.400502300123,True,False,stimulusRAMA04_2IFC_2019_Jun_12_1228_179,stimulusRAMA04_2IFC_2019_Jun_12_1228_180,True,2019_Jun_12_1228,2IFC,3,RAMA04,
2IFC,15,0,15,0,6,-1,correct answer,0.367174200015,True,False,stimulusRAMA04_2IFC_2019_Jun_12_1228_181,stimulusRAMA04_2IFC_2019_Jun_12_1228_182,True,2019_Jun_12_1228,2IFC,3,RAMA04,
2IFC,16,0,16,0,2.6,-1,wrong answer,0.666892299894,False,True,stimulusRAMA04_2IFC_2019_Jun_12_1228_183,stimulusRAMA04_2IFC_2019_Jun_12_1228_184,True,2019_Jun_12_1228,2IFC,3,RAMA04,
2IFC,17,0,17,0,6,-1,correct answer,0.367010799935,False,True,stimulusRAMA04_2IFC_2019_Jun_12_1228_185,stimulusRAMA04_2IFC_2019_Jun_12_1228_186,True,2019_Jun_12_1228,2IFC,3,RAMA04,
2IFC,18,0,18,0,2.6,-1,wrong answer,0.301746800076,True,False,stimulusRAMA04_2IFC_2019_Jun_12_1228_187,stimulusRAMA04_2IFC_2019_Jun_12_1228_188,True,2019_Jun_12_1228,2IFC,3,RAMA04,
2IFC,19,0,19,0,6,-1,correct answer,0.40086439997,False,True,stimulusRAMA04_2IFC_2019_Jun_12_1228_189,stimulusRAMA04_2IFC_2019_Jun_12_1228_190,True,2019_Jun_12_1228,2IFC,3,RAMA04,
2IFC,20,0,20,0,7,-1,correct answer,0.467776699923,False,True,stimulusRAMA04_2IFC_2019_Jun_12_1228_191,stimulusRAMA04_2IFC_2019_Jun_12_1228_192,True,2019_Jun_12_1228,2IFC,3,RAMA04,
2IFC,21,0,21,0,5,-1,correct answer,0.300243100151,False,True,stimulusRAMA04_2IFC_2019_Jun_12_1228_193,stimulusRAMA04_2IFC_2019_Jun_12_1228_194,True,2019_Jun_12_1228,2IFC,3,RAMA04,
2IFC,22,0,22,0,3.8,-1,correct answer,0.334910500096,False,True,stimulusRAMA04_2IFC_2019_Jun_12_1228_195,stimulusRAMA04_2IFC_2019_Jun_12_1228_196,True,2019_Jun_12_1228,2IFC,3,RAMA04,
2IFC,23,0,23,0,7,-1,correct answer,0.0668424998876,True,False,stimulusRAMA04_2IFC_2019_Jun_12_1228_197,stimulusRAMA04_2IFC_2019_Jun_12_1228_198,True,2019_Jun_12_1228,2IFC,3,RAMA04,
2IFC,24,0,24,0,7,-1,correct answer,0.333397199865,False,True,stimulusRAMA04_2IFC_2019_Jun_12_1228_199,stimulusRAMA04_2IFC_2019_Jun_12_1228_200,True,2019_Jun_12_1228,2IFC,3,RAMA04,
2IFC,25,0,25,0,3.8,-1,correct answer,0.50080420007,False,True,stimulusRAMA04_2IFC_2019_Jun_12_1228_201,stimulusRAMA04_2IFC_2019_Jun_12_1228_202,True,2019_Jun_12_1228,2IFC,3,RAMA04,
2IFC,26,0,26,0,5,-1,correct answer,0.333924799925,False,True,stimulusRAMA04_2IFC_2019_Jun_12_1228_203,stimulusRAMA04_2IFC_2019_Jun_12_1228_204,True,2019_Jun_12_1228,2IFC,3,RAMA04,
2IFC,27,0,27,0,2.5,-1,correct answer,0.433895300142,False,True,stimulusRAMA04_2IFC_2019_Jun_12_1228_205,stimulusRAMA04_2IFC_2019_Jun_12_1228_206,True,2019_Jun_12_1228,2IFC,3,RAMA04,
2IFC,28,0,28,0,7,-1,correct answer,0.433984600008,False,True,stimulusRAMA04_2IFC_2019_Jun_12_1228_207,stimulusRAMA04_2IFC_2019_Jun_12_1228_208,True,2019_Jun_12_1228,2IFC,3,RAMA04,
2IFC,29,0,29,0,3.8,-1,correct answer,0.499949799851,True,False,stimulusRAMA04_2IFC_2019_Jun_12_1228_209,stimulusRAMA04_2IFC_2019_Jun_12_1228_210,True,2019_Jun_12_1228,2IFC,3,RAMA04,
2IFC,30,0,30,0,2.6,-1,wrong answer,0.433728799922,False,True,stimulusRAMA04_2IFC_2019_Jun_12_1228_211,stimulusRAMA04_2IFC_2019_Jun_12_1228_212,True,2019_Jun_12_1228,2IFC,3,RAMA04,
2IFC,31,0,31,0,2.5,-1,correct answer,0.300270500127,False,True,stimulusRAMA04_2IFC_2019_Jun_12_1228_213,stimulusRAMA04_2IFC_2019_Jun_12_1228_214,True,2019_Jun_12_1228,2IFC,3,RAMA04,
2IFC,32,0,32,0,8.2,-1,correct answer,0.33339130017,True,False,stimulusRAMA04_2IFC_2019_Jun_12_1228_215,stimulusRAMA04_2IFC_2019_Jun_12_1228_216,True,2019_Jun_12_1228,2IFC,3,RAMA04,
2IFC,33,0,33,0,9.7,-1,correct answer,0.300505000167,True,False,stimulusRAMA04_2IFC_2019_Jun_12_1228_217,stimulusRAMA04_2IFC_2019_Jun_12_1228_218,True,2019_Jun_12_1228,2IFC,3,RAMA04,
2IFC,34,0,34,0,9.7,-1,correct answer,0.367687900085,False,True,stimulusRAMA04_2IFC_2019_Jun_12_1228_219,stimulusRAMA04_2IFC_2019_Jun_12_1228_220,True,2019_Jun_12_1228,2IFC,3,RAMA04,
2IFC,35,0,35,0,6,-1,correct answer,0.601123700151,True,False,stimulusRAMA04_2IFC_2019_Jun_12_1228_221,stimulusRAMA04_2IFC_2019_Jun_12_1228_222,True,2019_Jun_12_1228,2IFC,3,RAMA04,
2IFC,36,0,36,0,9.7,-1,correct answer,0.265569699928,True,False,stimulusRAMA04_2IFC_2019_Jun_12_1228_223,stimulusRAMA04_2IFC_2019_Jun_12_1228_224,True,2019_Jun_12_1228,2IFC,3,RAMA04,
2IFC,37,0,37,0,6,-1,correct answer,0.500469799852,True,False,stimulusRAMA04_2IFC_2019_Jun_12_1228_225,stimulusRAMA04_2IFC_2019_Jun_12_1228_226,True,2019_Jun_12_1228,2IFC,3,RAMA04,
2IFC,38,0,38,0,8.2,-1,correct answer,0.233748400118,True,False,stimulusRAMA04_2IFC_2019_Jun_12_1228_227,stimulusRAMA04_2IFC_2019_Jun_12_1228_228,True,2019_Jun_12_1228,2IFC,3,RAMA04,
2IFC,39,0,39,0,8.2,-1,correct answer,0.166751499986,True,False,stimulusRAMA04_2IFC_2019_Jun_12_1228_229,stimulusRAMA04_2IFC_2019_Jun_12_1228_230,True,2019_Jun_12_1228,2IFC,3,RAMA04,
2IFC,40,0,40,0,8.2,-1,wrong answer,0.400573599851,True,False,stimulusRAMA04_2IFC_2019_Jun_12_1228_231,stimulusRAMA04_2IFC_2019_Jun_12_1228_232,True,2019_Jun_12_1228,2IFC,3,RAMA04,
2IFC,41,0,41,0,3.8,-1,correct answer,0.433693200117,False,True,stimulusRAMA04_2IFC_2019_Jun_12_1228_233,stimulusRAMA04_2IFC_2019_Jun_12_1228_234,True,2019_Jun_12_1228,2IFC,3,RAMA04,
2IFC,42,0,42,0,7,-1,correct answer,0.100418399787,True,False,stimulusRAMA04_2IFC_2019_Jun_12_1228_235,stimulusRAMA04_2IFC_2019_Jun_12_1228_236,True,2019_Jun_12_1228,2IFC,3,RAMA04,
2IFC,43,0,43,0,8.2,-1,correct answer,0.300489099929,False,True,stimulusRAMA04_2IFC_2019_Jun_12_1228_237,stimulusRAMA04_2IFC_2019_Jun_12_1228_238,True,2019_Jun_12_1228,2IFC,3,RAMA04,
2IFC,44,0,44,0,2.6,-1,wrong answer,0.267330999952,True,False,stimulusRAMA04_2IFC_2019_Jun_12_1228_239,stimulusRAMA04_2IFC_2019_Jun_12_1228_240,True,2019_Jun_12_1228,2IFC,3,RAMA04,
2IFC,45,0,45,0,9.7,-1,no answer,-1,True,False,stimulusRAMA04_2IFC_2019_Jun_12_1228_241,stimulusRAMA04_2IFC_2019_Jun_12_1228_242,True,2019_Jun_12_1228,2IFC,3,RAMA04,
2IFC,46,0,46,0,2.6,-1,wrong answer,0.701127000153,True,False,stimulusRAMA04_2IFC_2019_Jun_12_1228_243,stimulusRAMA04_2IFC_2019_Jun_12_1228_244,True,2019_Jun_12_1228,2IFC,3,RAMA04,
2IFC,47,0,47,0,3.8,-1,correct answer,0.533639099915,True,False,stimulusRAMA04_2IFC_2019_Jun_12_1228_245,stimulusRAMA04_2IFC_2019_Jun_12_1228_246,True,2019_Jun_12_1228,2IFC,3,RAMA04,
2IFC,48,0,48,0,5,-1,correct answer,0.602532199817,True,False,stimulusRAMA04_2IFC_2019_Jun_12_1228_247,stimulusRAMA04_2IFC_2019_Jun_12_1228_248,True,2019_Jun_12_1228,2IFC,3,RAMA04,
2IFC,49,0,49,0,2.6,-1,wrong answer,0.5351311001,True,False,stimulusRAMA04_2IFC_2019_Jun_12_1228_249,stimulusRAMA04_2IFC_2019_Jun_12_1228_250,True,2019_Jun_12_1228,2IFC,3,RAMA04,
2IFC,50,0,50,0,3.8,-1,correct answer,0.50071019982,False,True,stimulusRAMA04_2IFC_2019_Jun_12_1228_251,stimulusRAMA04_2IFC_2019_Jun_12_1228_252,True,2019_Jun_12_1228,2IFC,3,RAMA04,
2IFC,51,0,51,0,2.5,-1,correct answer,0.533774199896,True,False,stimulusRAMA04_2IFC_2019_Jun_12_1228_253,stimulusRAMA04_2IFC_2019_Jun_12_1228_254,True,2019_Jun_12_1228,2IFC,3,RAMA04,
2IFC,52,0,52,0,6,-1,correct answer,0.438158300007,False,True,stimulusRAMA04_2IFC_2019_Jun_12_1228_255,stimulusRAMA04_2IFC_2019_Jun_12_1228_256,True,2019_Jun_12_1228,2IFC,3,RAMA04,
2IFC,53,0,53,0,2.6,-1,correct answer,0.567596399924,True,False,stimulusRAMA04_2IFC_2019_Jun_12_1228_257,stimulusRAMA04_2IFC_2019_Jun_12_1228_258,True,2019_Jun_12_1228,2IFC,3,RAMA04,
2IFC,54,0,54,0,5,-1,correct answer,0.36719580018,True,False,stimulusRAMA04_2IFC_2019_Jun_12_1228_259,stimulusRAMA04_2IFC_2019_Jun_12_1228_260,True,2019_Jun_12_1228,2IFC,3,RAMA04,
2IFC,55,0,55,0,7,-1,correct answer,0.333827299997,False,True,stimulusRAMA04_2IFC_2019_Jun_12_1228_261,stimulusRAMA04_2IFC_2019_Jun_12_1228_262,True,2019_Jun_12_1228,2IFC,3,RAMA04,
2IFC,56,0,56,0,8.2,-1,wrong answer,0.400532700121,False,True,stimulusRAMA04_2IFC_2019_Jun_12_1228_263,stimulusRAMA04_2IFC_2019_Jun_12_1228_264,True,2019_Jun_12_1228,2IFC,3,RAMA04,
2IFC,57,0,57,0,7,-1,correct answer,0.433334199945,True,False,stimulusRAMA04_2IFC_2019_Jun_12_1228_265,stimulusRAMA04_2IFC_2019_Jun_12_1228_266,True,2019_Jun_12_1228,2IFC,3,RAMA04,
2IFC,58,0,58,0,2.5,-1,correct answer,0.500698100077,False,True,stimulusRAMA04_2IFC_2019_Jun_12_1228_267,stimulusRAMA04_2IFC_2019_Jun_12_1228_268,True,2019_Jun_12_1228,2IFC,3,RAMA04,
2IFC,59,0,59,0,8.2,-1,correct answer,0.400878400076,True,False,stimulusRAMA04_2IFC_2019_Jun_12_1228_269,stimulusRAMA04_2IFC_2019_Jun_12_1228_270,True,2019_Jun_12_1228,2IFC,3,RAMA04,
2IFC,60,0,60,0,7,-1,correct answer,0.265626900131,True,False,stimulusRAMA04_2IFC_2019_Jun_12_1228_271,stimulusRAMA04_2IFC_2019_Jun_12_1228_272,True,2019_Jun_12_1228,2IFC,3,RAMA04,
2IFC,61,0,61,0,6,-1,wrong answer,0.367840700084,True,False,stimulusRAMA04_2IFC_2019_Jun_12_1228_273,stimulusRAMA04_2IFC_2019_Jun_12_1228_274,True,2019_Jun_12_1228,2IFC,3,RAMA04,
2IFC,62,0,62,0,3.8,-1,correct answer,0.534147499828,True,False,stimulusRAMA04_2IFC_2019_Jun_12_1228_275,stimulusRAMA04_2IFC_2019_Jun_12_1228_276,True,2019_Jun_12_1228,2IFC,3,RAMA04,
2IFC,63,0,63,0,3.8,-1,correct answer,0.400053900201,True,False,stimulusRAMA04_2IFC_2019_Jun_12_1228_277,stimulusRAMA04_2IFC_2019_Jun_12_1228_278,True,2019_Jun_12_1228,2IFC,3,RAMA04,
2IFC,64,0,64,0,3.8,-1,correct answer,0.467836700147,False,True,stimulusRAMA04_2IFC_2019_Jun_12_1228_279,stimulusRAMA04_2IFC_2019_Jun_12_1228_280,True,2019_Jun_12_1228,2IFC,3,RAMA04,
2IFC,65,0,65,0,2.5,-1,wrong answer,0.534981400007,True,False,stimulusRAMA04_2IFC_2019_Jun_12_1228_281,stimulusRAMA04_2IFC_2019_Jun_12_1228_282,True,2019_Jun_12_1228,2IFC,3,RAMA04,
2IFC,66,0,66,0,7,-1,correct answer,0.500774999848,True,False,stimulusRAMA04_2IFC_2019_Jun_12_1228_283,stimulusRAMA04_2IFC_2019_Jun_12_1228_284,True,2019_Jun_12_1228,2IFC,3,RAMA04,
2IFC,67,0,67,0,3.8,-1,correct answer,0.433498499915,False,True,stimulusRAMA04_2IFC_2019_Jun_12_1228_285,stimulusRAMA04_2IFC_2019_Jun_12_1228_286,True,2019_Jun_12_1228,2IFC,3,RAMA04,
2IFC,68,0,68,0,9.7,-1,correct answer,0.533956900006,False,True,stimulusRAMA04_2IFC_2019_Jun_12_1228_287,stimulusRAMA04_2IFC_2019_Jun_12_1228_288,True,2019_Jun_12_1228,2IFC,3,RAMA04,
2IFC,69,0,69,0,6,-1,correct answer,0.534587200033,False,True,stimulusRAMA04_2IFC_2019_Jun_12_1228_289,stimulusRAMA04_2IFC_2019_Jun_12_1228_290,True,2019_Jun_12_1228,2IFC,3,RAMA04,
2IFC,70,0,70,0,6,-1,correct answer,0.76716440008,True,False,stimulusRAMA04_2IFC_2019_Jun_12_1228_291,stimulusRAMA04_2IFC_2019_Jun_12_1228_292,True,2019_Jun_12_1228,2IFC,3,RAMA04,
2IFC,71,0,71,0,2.5,-1,correct answer,0.634187899996,True,False,stimulusRAMA04_2IFC_2019_Jun_12_1228_293,stimulusRAMA04_2IFC_2019_Jun_12_1228_294,True,2019_Jun_12_1228,2IFC,3,RAMA04,
2IFC,72,0,72,0,5,-1,correct answer,0.667316599982,True,False,stimulusRAMA04_2IFC_2019_Jun_12_1228_295,stimulusRAMA04_2IFC_2019_Jun_12_1228_296,True,2019_Jun_12_1228,2IFC,3,RAMA04,
2IFC,73,0,73,0,2.5,-1,correct answer,0.434750700137,True,False,stimulusRAMA04_2IFC_2019_Jun_12_1228_297,stimulusRAMA04_2IFC_2019_Jun_12_1228_298,True,2019_Jun_12_1228,2IFC,3,RAMA04,
2IFC,74,0,74,0,3.8,-1,correct answer,0.567380000139,True,False,stimulusRAMA04_2IFC_2019_Jun_12_1228_299,stimulusRAMA04_2IFC_2019_Jun_12_1228_300,True,2019_Jun_12_1228,2IFC,3,RAMA04,
2IFC,0,0,0,0,9.7,-1,correct answer,0.466376100201,False,True,stimulusRAMA04_2IFC_2019_Jun_12_1228_301,stimulusRAMA04_2IFC_2019_Jun_12_1228_302,True,2019_Jun_12_1228,2IFC,3,RAMA04,
2IFC,1,0,1,0,5,-1,correct answer,0.43316409993,False,True,stimulusRAMA04_2IFC_2019_Jun_12_1228_303,stimulusRAMA04_2IFC_2019_Jun_12_1228_304,True,2019_Jun_12_1228,2IFC,3,RAMA04,
2IFC,2,0,2,0,9.7,-1,correct answer,0.233197499998,True,False,stimulusRAMA04_2IFC_2019_Jun_12_1228_305,stimulusRAMA04_2IFC_2019_Jun_12_1228_306,True,2019_Jun_12_1228,2IFC,3,RAMA04,
2IFC,3,0,3,0,2.5,-1,correct answer,0.267847000156,False,True,stimulusRAMA04_2IFC_2019_Jun_12_1228_307,stimulusRAMA04_2IFC_2019_Jun_12_1228_308,True,2019_Jun_12_1228,2IFC,3,RAMA04,
2IFC,4,0,4,0,2.6,-1,wrong answer,0.400601600064,True,False,stimulusRAMA04_2IFC_2019_Jun_12_1228_309,stimulusRAMA04_2IFC_2019_Jun_12_1228_310,True,2019_Jun_12_1228,2IFC,3,RAMA04,
2IFC,5,0,5,0,7,-1,correct answer,0.600990599953,True,False,stimulusRAMA04_2IFC_2019_Jun_12_1228_311,stimulusRAMA04_2IFC_2019_Jun_12_1228_312,True,2019_Jun_12_1228,2IFC,3,RAMA04,
2IFC,6,0,6,0,8.2,-1,correct answer,0.436390199931,True,False,stimulusRAMA04_2IFC_2019_Jun_12_1228_313,stimulusRAMA04_2IFC_2019_Jun_12_1228_314,True,2019_Jun_12_1228,2IFC,3,RAMA04,
2IFC,7,0,7,0,2.5,-1,wrong answer,0.400684599997,True,False,stimulusRAMA04_2IFC_2019_Jun_12_1228_315,stimulusRAMA04_2IFC_2019_Jun_12_1228_316,True,2019_Jun_12_1228,2IFC,3,RAMA04,
2IFC,8,0,8,0,7,-1,correct answer,0.300437200116,True,False,stimulusRAMA04_2IFC_2019_Jun_12_1228_317,stimulusRAMA04_2IFC_2019_Jun_12_1228_318,True,2019_Jun_12_1228,2IFC,3,RAMA04,
2IFC,9,0,9,0,2.6,-1,wrong answer,0.367129200138,True,False,stimulusRAMA04_2IFC_2019_Jun_12_1228_319,stimulusRAMA04_2IFC_2019_Jun_12_1228_320,True,2019_Jun_12_1228,2IFC,3,RAMA04,
2IFC,10,0,10,0,6,-1,correct answer,0.433879699791,False,True,stimulusRAMA04_2IFC_2019_Jun_12_1228_321,stimulusRAMA04_2IFC_2019_Jun_12_1228_322,True,2019_Jun_12_1228,2IFC,3,RAMA04,
2IFC,11,0,11,0,8.2,-1,correct answer,0.400146699976,False,True,stimulusRAMA04_2IFC_2019_Jun_12_1228_323,stimulusRAMA04_2IFC_2019_Jun_12_1228_324,True,2019_Jun_12_1228,2IFC,3,RAMA04,
2IFC,12,0,12,0,9.7,-1,correct answer,0.533813499846,False,True,stimulusRAMA04_2IFC_2019_Jun_12_1228_325,stimulusRAMA04_2IFC_2019_Jun_12_1228_326,True,2019_Jun_12_1228,2IFC,3,RAMA04,
2IFC,13,0,13,0,2.6,-1,wrong answer,0.395946200006,True,False,stimulusRAMA04_2IFC_2019_Jun_12_1228_327,stimulusRAMA04_2IFC_2019_Jun_12_1228_328,True,2019_Jun_12_1228,2IFC,3,RAMA04,
2IFC,14,0,14,0,2.6,-1,wrong answer,0.400560999988,True,False,stimulusRAMA04_2IFC_2019_Jun_12_1228_329,stimulusRAMA04_2IFC_2019_Jun_12_1228_330,True,2019_Jun_12_1228,2IFC,3,RAMA04,
2IFC,15,0,15,0,8.2,-1,correct answer,0.567497999873,True,False,stimulusRAMA04_2IFC_2019_Jun_12_1228_331,stimulusRAMA04_2IFC_2019_Jun_12_1228_332,True,2019_Jun_12_1228,2IFC,3,RAMA04,
2IFC,16,0,16,0,3.8,-1,correct answer,0.434326700168,False,True,stimulusRAMA04_2IFC_2019_Jun_12_1228_333,stimulusRAMA04_2IFC_2019_Jun_12_1228_334,True,2019_Jun_12_1228,2IFC,3,RAMA04,
2IFC,17,0,17,0,5,-1,correct answer,0.633853399893,False,True,stimulusRAMA04_2IFC_2019_Jun_12_1228_335,stimulusRAMA04_2IFC_2019_Jun_12_1228_336,True,2019_Jun_12_1228,2IFC,3,RAMA04,
2IFC,18,0,18,0,2.6,-1,correct answer,0.468249200145,True,False,stimulusRAMA04_2IFC_2019_Jun_12_1228_337,stimulusRAMA04_2IFC_2019_Jun_12_1228_338,True,2019_Jun_12_1228,2IFC,3,RAMA04,
2IFC,19,0,19,0,9.7,-1,correct answer,0.401034600101,True,False,stimulusRAMA04_2IFC_2019_Jun_12_1228_339,stimulusRAMA04_2IFC_2019_Jun_12_1228_340,True,2019_Jun_12_1228,2IFC,3,RAMA04,
2IFC,20,0,20,0,7,-1,correct answer,0.567138199927,False,True,stimulusRAMA04_2IFC_2019_Jun_12_1228_341,stimulusRAMA04_2IFC_2019_Jun_12_1228_342,True,2019_Jun_12_1228,2IFC,3,RAMA04,
2IFC,21,0,21,0,3.8,-1,wrong answer,0.433712000027,False,True,stimulusRAMA04_2IFC_2019_Jun_12_1228_343,stimulusRAMA04_2IFC_2019_Jun_12_1228_344,True,2019_Jun_12_1228,2IFC,3,RAMA04,
2IFC,22,0,22,0,2.5,-1,correct answer,0.734011000022,True,False,stimulusRAMA04_2IFC_2019_Jun_12_1228_345,stimulusRAMA04_2IFC_2019_Jun_12_1228_346,True,2019_Jun_12_1228,2IFC,3,RAMA04,
2IFC,23,0,23,0,7,-1,correct answer,0.567768499954,False,True,stimulusRAMA04_2IFC_2019_Jun_12_1228_347,stimulusRAMA04_2IFC_2019_Jun_12_1228_348,True,2019_Jun_12_1228,2IFC,3,RAMA04,
2IFC,24,0,24,0,3.8,-1,correct answer,0.667736100033,True,False,stimulusRAMA04_2IFC_2019_Jun_12_1228_349,stimulusRAMA04_2IFC_2019_Jun_12_1228_350,True,2019_Jun_12_1228,2IFC,3,RAMA04,
2IFC,25,0,25,0,7,-1,correct answer,0.800610099919,False,True,stimulusRAMA04_2IFC_2019_Jun_12_1228_351,stimulusRAMA04_2IFC_2019_Jun_12_1228_352,True,2019_Jun_12_1228,2IFC,3,RAMA04,
2IFC,26,0,26,0,2.5,-1,correct answer,0.467191499891,True,False,stimulusRAMA04_2IFC_2019_Jun_12_1228_353,stimulusRAMA04_2IFC_2019_Jun_12_1228_354,True,2019_Jun_12_1228,2IFC,3,RAMA04,
2IFC,27,0,27,0,2.5,-1,correct answer,0.667344199959,True,False,stimulusRAMA04_2IFC_2019_Jun_12_1228_355,stimulusRAMA04_2IFC_2019_Jun_12_1228_356,True,2019_Jun_12_1228,2IFC,3,RAMA04,
2IFC,28,0,28,0,5,-1,wrong answer,0.633711399976,False,True,stimulusRAMA04_2IFC_2019_Jun_12_1228_357,stimulusRAMA04_2IFC_2019_Jun_12_1228_358,True,2019_Jun_12_1228,2IFC,3,RAMA04,
2IFC,29,0,29,0,2.5,-1,correct answer,0.800737899961,False,True,stimulusRAMA04_2IFC_2019_Jun_12_1228_359,stimulusRAMA04_2IFC_2019_Jun_12_1228_360,True,2019_Jun_12_1228,2IFC,3,RAMA04,
2IFC,30,0,30,0,8.2,-1,correct answer,0.566914599854,True,False,stimulusRAMA04_2IFC_2019_Jun_12_1228_361,stimulusRAMA04_2IFC_2019_Jun_12_1228_362,True,2019_Jun_12_1228,2IFC,3,RAMA04,
2IFC,31,0,31,0,9.7,-1,correct answer,0.601155400043,False,True,stimulusRAMA04_2IFC_2019_Jun_12_1228_363,stimulusRAMA04_2IFC_2019_Jun_12_1228_364,True,2019_Jun_12_1228,2IFC,3,RAMA04,
2IFC,32,0,32,0,7,-1,correct answer,0.466450500069,True,False,stimulusRAMA04_2IFC_2019_Jun_12_1228_365,stimulusRAMA04_2IFC_2019_Jun_12_1228_366,True,2019_Jun_12_1228,2IFC,3,RAMA04,
2IFC,33,0,33,0,6,-1,correct answer,0.400559300091,True,False,stimulusRAMA04_2IFC_2019_Jun_12_1228_367,stimulusRAMA04_2IFC_2019_Jun_12_1228_368,True,2019_Jun_12_1228,2IFC,3,RAMA04,
2IFC,34,0,34,0,5,-1,correct answer,0.40046090004,True,False,stimulusRAMA04_2IFC_2019_Jun_12_1228_369,stimulusRAMA04_2IFC_2019_Jun_12_1228_370,True,2019_Jun_12_1228,2IFC,3,RAMA04,
2IFC,35,0,35,0,8.2,-1,correct answer,0.467235899996,True,False,stimulusRAMA04_2IFC_2019_Jun_12_1228_371,stimulusRAMA04_2IFC_2019_Jun_12_1228_372,True,2019_Jun_12_1228,2IFC,3,RAMA04,
2IFC,36,0,36,0,5,-1,wrong answer,0.600776999956,False,True,stimulusRAMA04_2IFC_2019_Jun_12_1228_373,stimulusRAMA04_2IFC_2019_Jun_12_1228_374,True,2019_Jun_12_1228,2IFC,3,RAMA04,
2IFC,37,0,37,0,8.2,-1,correct answer,0.433709200006,False,True,stimulusRAMA04_2IFC_2019_Jun_12_1228_375,stimulusRAMA04_2IFC_2019_Jun_12_1228_376,True,2019_Jun_12_1228,2IFC,3,RAMA04,
2IFC,38,0,38,0,5,-1,correct answer,0.267228099983,True,False,stimulusRAMA04_2IFC_2019_Jun_12_1228_377,stimulusRAMA04_2IFC_2019_Jun_12_1228_378,True,2019_Jun_12_1228,2IFC,3,RAMA04,
2IFC,39,0,39,0,6,-1,wrong answer,0.70090250019,False,True,stimulusRAMA04_2IFC_2019_Jun_12_1228_379,stimulusRAMA04_2IFC_2019_Jun_12_1228_380,True,2019_Jun_12_1228,2IFC,3,RAMA04,
2IFC,40,0,40,0,2.5,-1,wrong answer,0.666354700224,False,True,stimulusRAMA04_2IFC_2019_Jun_12_1228_381,stimulusRAMA04_2IFC_2019_Jun_12_1228_382,True,2019_Jun_12_1228,2IFC,3,RAMA04,
2IFC,41,0,41,0,6,-1,correct answer,0.300775500014,True,False,stimulusRAMA04_2IFC_2019_Jun_12_1228_383,stimulusRAMA04_2IFC_2019_Jun_12_1228_384,True,2019_Jun_12_1228,2IFC,3,RAMA04,
2IFC,42,0,42,0,9.7,-1,correct answer,0.401301499922,False,True,stimulusRAMA04_2IFC_2019_Jun_12_1228_385,stimulusRAMA04_2IFC_2019_Jun_12_1228_386,True,2019_Jun_12_1228,2IFC,3,RAMA04,
2IFC,43,0,43,0,2.5,-1,correct answer,0.467354499968,False,True,stimulusRAMA04_2IFC_2019_Jun_12_1228_387,stimulusRAMA04_2IFC_2019_Jun_12_1228_388,True,2019_Jun_12_1228,2IFC,3,RAMA04,
2IFC,44,0,44,0,5,-1,correct answer,0.267143400153,True,False,stimulusRAMA04_2IFC_2019_Jun_12_1228_389,stimulusRAMA04_2IFC_2019_Jun_12_1228_390,True,2019_Jun_12_1228,2IFC,3,RAMA04,
2IFC,45,0,45,0,2.6,-1,wrong answer,0.767576999962,False,True,stimulusRAMA04_2IFC_2019_Jun_12_1228_391,stimulusRAMA04_2IFC_2019_Jun_12_1228_392,True,2019_Jun_12_1228,2IFC,3,RAMA04,
2IFC,46,0,46,0,9.7,-1,correct answer,0.0338386998046,True,False,stimulusRAMA04_2IFC_2019_Jun_12_1228_393,stimulusRAMA04_2IFC_2019_Jun_12_1228_394,True,2019_Jun_12_1228,2IFC,3,RAMA04,
2IFC,47,0,47,0,2.6,-1,correct answer,0.500564200105,True,False,stimulusRAMA04_2IFC_2019_Jun_12_1228_395,stimulusRAMA04_2IFC_2019_Jun_12_1228_396,True,2019_Jun_12_1228,2IFC,3,RAMA04,
2IFC,48,0,48,0,9.7,-1,correct answer,0.533851799788,False,True,stimulusRAMA04_2IFC_2019_Jun_12_1228_397,stimulusRAMA04_2IFC_2019_Jun_12_1228_398,True,2019_Jun_12_1228,2IFC,3,RAMA04,
2IFC,49,0,49,0,3.8,-1,correct answer,0.634252100019,False,True,stimulusRAMA04_2IFC_2019_Jun_12_1228_399,stimulusRAMA04_2IFC_2019_Jun_12_1228_400,True,2019_Jun_12_1228,2IFC,3,RAMA04,
2IFC,50,0,50,0,2.5,-1,wrong answer,0.500936800148,False,True,stimulusRAMA04_2IFC_2019_Jun_12_1228_401,stimulusRAMA04_2IFC_2019_Jun_12_1228_402,True,2019_Jun_12_1228,2IFC,3,RAMA04,
2IFC,51,0,51,0,5,-1,correct answer,0.600005000131,False,True,stimulusRAMA04_2IFC_2019_Jun_12_1228_403,stimulusRAMA04_2IFC_2019_Jun_12_1228_404,True,2019_Jun_12_1228,2IFC,3,RAMA04,
2IFC,52,0,52,0,6,-1,correct answer,0.400180000113,True,False,stimulusRAMA04_2IFC_2019_Jun_12_1228_405,stimulusRAMA04_2IFC_2019_Jun_12_1228_406,True,2019_Jun_12_1228,2IFC,3,RAMA04,
2IFC,53,0,53,0,3.8,-1,correct answer,0.334181299899,True,False,stimulusRAMA04_2IFC_2019_Jun_12_1228_407,stimulusRAMA04_2IFC_2019_Jun_12_1228_408,True,2019_Jun_12_1228,2IFC,3,RAMA04,
2IFC,54,0,54,0,5,-1,correct answer,0.400059600128,True,False,stimulusRAMA04_2IFC_2019_Jun_12_1228_409,stimulusRAMA04_2IFC_2019_Jun_12_1228_410,True,2019_Jun_12_1228,2IFC,3,RAMA04,
2IFC,55,0,55,0,2.5,-1,wrong answer,0.600841199979,True,False,stimulusRAMA04_2IFC_2019_Jun_12_1228_411,stimulusRAMA04_2IFC_2019_Jun_12_1228_412,True,2019_Jun_12_1228,2IFC,3,RAMA04,
2IFC,56,0,56,0,9.7,-1,correct answer,0.501389699988,False,True,stimulusRAMA04_2IFC_2019_Jun_12_1228_413,stimulusRAMA04_2IFC_2019_Jun_12_1228_414,True,2019_Jun_12_1228,2IFC,3,RAMA04,
2IFC,57,0,57,0,7,-1,correct answer,0.500533299986,False,True,stimulusRAMA04_2IFC_2019_Jun_12_1228_415,stimulusRAMA04_2IFC_2019_Jun_12_1228_416,True,2019_Jun_12_1228,2IFC,3,RAMA04,
2IFC,58,0,58,0,5,-1,wrong answer,0.233991099987,False,True,stimulusRAMA04_2IFC_2019_Jun_12_1228_417,stimulusRAMA04_2IFC_2019_Jun_12_1228_418,True,2019_Jun_12_1228,2IFC,3,RAMA04,
2IFC,59,0,59,0,7,-1,correct answer,0.300394800026,True,False,stimulusRAMA04_2IFC_2019_Jun_12_1228_419,stimulusRAMA04_2IFC_2019_Jun_12_1228_420,True,2019_Jun_12_1228,2IFC,3,RAMA04,
2IFC,60,0,60,0,8.2,-1,correct answer,0.299084200058,True,False,stimulusRAMA04_2IFC_2019_Jun_12_1228_421,stimulusRAMA04_2IFC_2019_Jun_12_1228_422,True,2019_Jun_12_1228,2IFC,3,RAMA04,
2IFC,61,0,61,0,2.5,-1,correct answer,0.400413000025,False,True,stimulusRAMA04_2IFC_2019_Jun_12_1228_423,stimulusRAMA04_2IFC_2019_Jun_12_1228_424,True,2019_Jun_12_1228,2IFC,3,RAMA04,
2IFC,62,0,62,0,9.7,-1,correct answer,0.433552599978,False,True,stimulusRAMA04_2IFC_2019_Jun_12_1228_425,stimulusRAMA04_2IFC_2019_Jun_12_1228_426,True,2019_Jun_12_1228,2IFC,3,RAMA04,
2IFC,63,0,63,0,6,-1,correct answer,0.266956300009,True,False,stimulusRAMA04_2IFC_2019_Jun_12_1228_427,stimulusRAMA04_2IFC_2019_Jun_12_1228_428,True,2019_Jun_12_1228,2IFC,3,RAMA04,
2IFC,64,0,64,0,7,-1,correct answer,0.367205000017,True,False,stimulusRAMA04_2IFC_2019_Jun_12_1228_429,stimulusRAMA04_2IFC_2019_Jun_12_1228_430,True,2019_Jun_12_1228,2IFC,3,RAMA04,
2IFC,65,0,65,0,2.6,-1,correct answer,0.535648500081,False,True,stimulusRAMA04_2IFC_2019_Jun_12_1228_431,stimulusRAMA04_2IFC_2019_Jun_12_1228_432,True,2019_Jun_12_1228,2IFC,3,RAMA04,
2IFC,66,0,66,0,2.6,-1,wrong answer,0.667173300171,True,False,stimulusRAMA04_2IFC_2019_Jun_12_1228_433,stimulusRAMA04_2IFC_2019_Jun_12_1228_434,True,2019_Jun_12_1228,2IFC,3,RAMA04,
2IFC,67,0,67,0,7,-1,correct answer,0.534088199958,False,True,stimulusRAMA04_2IFC_2019_Jun_12_1228_435,stimulusRAMA04_2IFC_2019_Jun_12_1228_436,True,2019_Jun_12_1228,2IFC,3,RAMA04,
2IFC,68,0,68,0,2.5,-1,correct answer,0.299535500119,True,False,stimulusRAMA04_2IFC_2019_Jun_12_1228_437,stimulusRAMA04_2IFC_2019_Jun_12_1228_438,True,2019_Jun_12_1228,2IFC,3,RAMA04,
2IFC,69,0,69,0,2.6,-1,correct answer,0.400775700109,False,True,stimulusRAMA04_2IFC_2019_Jun_12_1228_439,stimulusRAMA04_2IFC_2019_Jun_12_1228_440,True,2019_Jun_12_1228,2IFC,3,RAMA04,
2IFC,70,0,70,0,3.8,-1,wrong answer,0.467112499988,True,False,stimulusRAMA04_2IFC_2019_Jun_12_1228_441,stimulusRAMA04_2IFC_2019_Jun_12_1228_442,True,2019_Jun_12_1228,2IFC,3,RAMA04,
2IFC,71,0,71,0,6,-1,correct answer,0.0668077000882,True,False,stimulusRAMA04_2IFC_2019_Jun_12_1228_443,stimulusRAMA04_2IFC_2019_Jun_12_1228_444,True,2019_Jun_12_1228,2IFC,3,RAMA04,
2IFC,72,0,72,0,7,-1,correct answer,0.499638200039,False,True,stimulusRAMA04_2IFC_2019_Jun_12_1228_445,stimulusRAMA04_2IFC_2019_Jun_12_1228_446,True,2019_Jun_12_1228,2IFC,3,RAMA04,
2IFC,73,0,73,0,3.8,-1,correct answer,0.434236600064,False,True,stimulusRAMA04_2IFC_2019_Jun_12_1228_447,stimulusRAMA04_2IFC_2019_Jun_12_1228_448,True,2019_Jun_12_1228,2IFC,3,RAMA04,
2IFC,74,0,74,0,8.2,-1,correct answer,0.100288799964,True,False,stimulusRAMA04_2IFC_2019_Jun_12_1228_449,stimulusRAMA04_2IFC_2019_Jun_12_1228_450,True,2019_Jun_12_1228,2IFC,3,RAMA04,
2IFC,0,0,0,0,7,-1,correct answer,0.234119900037,True,False,stimulusRAMA04_2IFC_2019_Jun_12_1228_451,stimulusRAMA04_2IFC_2019_Jun_12_1228_452,True,2019_Jun_12_1228,2IFC,3,RAMA04,
2IFC,1,0,1,0,2.6,-1,wrong answer,0.63358699996,False,True,stimulusRAMA04_2IFC_2019_Jun_12_1228_453,stimulusRAMA04_2IFC_2019_Jun_12_1228_454,True,2019_Jun_12_1228,2IFC,3,RAMA04,
2IFC,2,0,2,0,8.2,-1,correct answer,0.467387899989,False,True,stimulusRAMA04_2IFC_2019_Jun_12_1228_455,stimulusRAMA04_2IFC_2019_Jun_12_1228_456,True,2019_Jun_12_1228,2IFC,3,RAMA04,
2IFC,3,0,3,0,2.6,-1,correct answer,0.66851839982,True,False,stimulusRAMA04_2IFC_2019_Jun_12_1228_457,stimulusRAMA04_2IFC_2019_Jun_12_1228_458,True,2019_Jun_12_1228,2IFC,3,RAMA04,
2IFC,4,0,4,0,2.5,-1,wrong answer,0.532617999939,False,True,stimulusRAMA04_2IFC_2019_Jun_12_1228_459,stimulusRAMA04_2IFC_2019_Jun_12_1228_460,True,2019_Jun_12_1228,2IFC,3,RAMA04,
2IFC,5,0,5,0,9.7,-1,correct answer,0.536077399971,False,True,stimulusRAMA04_2IFC_2019_Jun_12_1228_461,stimulusRAMA04_2IFC_2019_Jun_12_1228_462,True,2019_Jun_12_1228,2IFC,3,RAMA04,
2IFC,6,0,6,0,5,-1,wrong answer,0.600709500024,False,True,stimulusRAMA04_2IFC_2019_Jun_12_1228_463,stimulusRAMA04_2IFC_2019_Jun_12_1228_464,True,2019_Jun_12_1228,2IFC,3,RAMA04,
2IFC,7,0,7,0,6,-1,correct answer,0.366802300094,True,False,stimulusRAMA04_2IFC_2019_Jun_12_1228_465,stimulusRAMA04_2IFC_2019_Jun_12_1228_466,True,2019_Jun_12_1228,2IFC,3,RAMA04,
2IFC,8,0,8,0,2.5,-1,wrong answer,0.535724699963,True,False,stimulusRAMA04_2IFC_2019_Jun_12_1228_467,stimulusRAMA04_2IFC_2019_Jun_12_1228_468,True,2019_Jun_12_1228,2IFC,3,RAMA04,
2IFC,9,0,9,0,7,-1,correct answer,0.269207200035,True,False,stimulusRAMA04_2IFC_2019_Jun_12_1228_469,stimulusRAMA04_2IFC_2019_Jun_12_1228_470,True,2019_Jun_12_1228,2IFC,3,RAMA04,
2IFC,10,0,10,0,2.6,-1,correct answer,0.501037599985,True,False,stimulusRAMA04_2IFC_2019_Jun_12_1228_471,stimulusRAMA04_2IFC_2019_Jun_12_1228_472,True,2019_Jun_12_1228,2IFC,3,RAMA04,
2IFC,11,0,11,0,7,-1,correct answer,0.467310899869,False,True,stimulusRAMA04_2IFC_2019_Jun_12_1228_473,stimulusRAMA04_2IFC_2019_Jun_12_1228_474,True,2019_Jun_12_1228,2IFC,3,RAMA04,
2IFC,12,0,12,0,3.8,-1,correct answer,0.500450100051,False,True,stimulusRAMA04_2IFC_2019_Jun_12_1228_475,stimulusRAMA04_2IFC_2019_Jun_12_1228_476,True,2019_Jun_12_1228,2IFC,3,RAMA04,
2IFC,13,0,13,0,5,-1,correct answer,0.434270900209,True,False,stimulusRAMA04_2IFC_2019_Jun_12_1228_477,stimulusRAMA04_2IFC_2019_Jun_12_1228_478,True,2019_Jun_12_1228,2IFC,3,RAMA04,
2IFC,14,0,14,0,2.6,-1,wrong answer,0.634058199823,False,True,stimulusRAMA04_2IFC_2019_Jun_12_1228_479,stimulusRAMA04_2IFC_2019_Jun_12_1228_480,True,2019_Jun_12_1228,2IFC,3,RAMA04,
2IFC,15,0,15,0,2.5,-1,wrong answer,0.534933499992,True,False,stimulusRAMA04_2IFC_2019_Jun_12_1228_481,stimulusRAMA04_2IFC_2019_Jun_12_1228_482,True,2019_Jun_12_1228,2IFC,3,RAMA04,
2IFC,16,0,16,0,2.6,-1,wrong answer,0.500508799916,True,False,stimulusRAMA04_2IFC_2019_Jun_12_1228_483,stimulusRAMA04_2IFC_2019_Jun_12_1228_484,True,2019_Jun_12_1228,2IFC,3,RAMA04,
2IFC,17,0,17,0,8.2,-1,correct answer,0.467535000062,False,True,stimulusRAMA04_2IFC_2019_Jun_12_1228_485,stimulusRAMA04_2IFC_2019_Jun_12_1228_486,True,2019_Jun_12_1228,2IFC,3,RAMA04,
2IFC,18,0,18,0,2.5,-1,correct answer,0.667788199848,False,True,stimulusRAMA04_2IFC_2019_Jun_12_1228_487,stimulusRAMA04_2IFC_2019_Jun_12_1228_488,True,2019_Jun_12_1228,2IFC,3,RAMA04,
2IFC,19,0,19,0,2.5,-1,correct answer,0.500878199935,False,True,stimulusRAMA04_2IFC_2019_Jun_12_1228_489,stimulusRAMA04_2IFC_2019_Jun_12_1228_490,True,2019_Jun_12_1228,2IFC,3,RAMA04,
2IFC,20,0,20,0,5,-1,correct answer,0.400286299875,False,True,stimulusRAMA04_2IFC_2019_Jun_12_1228_491,stimulusRAMA04_2IFC_2019_Jun_12_1228_492,True,2019_Jun_12_1228,2IFC,3,RAMA04,
2IFC,21,0,21,0,7,-1,correct answer,0.467065799981,False,True,stimulusRAMA04_2IFC_2019_Jun_12_1228_493,stimulusRAMA04_2IFC_2019_Jun_12_1228_494,True,2019_Jun_12_1228,2IFC,3,RAMA04,
2IFC,22,0,22,0,6,-1,correct answer,0.568721800111,False,True,stimulusRAMA04_2IFC_2019_Jun_12_1228_495,stimulusRAMA04_2IFC_2019_Jun_12_1228_496,True,2019_Jun_12_1228,2IFC,3,RAMA04,
2IFC,23,0,23,0,9.7,-1,correct answer,0.265222100075,True,False,stimulusRAMA04_2IFC_2019_Jun_12_1228_497,stimulusRAMA04_2IFC_2019_Jun_12_1228_498,True,2019_Jun_12_1228,2IFC,3,RAMA04,
2IFC,24,0,24,0,8.2,-1,correct answer,0.133386499947,True,False,stimulusRAMA04_2IFC_2019_Jun_12_1228_499,stimulusRAMA04_2IFC_2019_Jun_12_1228_500,True,2019_Jun_12_1228,2IFC,3,RAMA04,
2IFC,25,0,25,0,3.8,-1,correct answer,0.46941010002,False,True,stimulusRAMA04_2IFC_2019_Jun_12_1228_501,stimulusRAMA04_2IFC_2019_Jun_12_1228_502,True,2019_Jun_12_1228,2IFC,3,RAMA04,
2IFC,26,0,26,0,9.7,-1,correct answer,0.300531900022,True,False,stimulusRAMA04_2IFC_2019_Jun_12_1228_503,stimulusRAMA04_2IFC_2019_Jun_12_1228_504,True,2019_Jun_12_1228,2IFC,3,RAMA04,
2IFC,27,0,27,0,5,-1,correct answer,0.267950800015,True,False,stimulusRAMA04_2IFC_2019_Jun_12_1228_505,stimulusRAMA04_2IFC_2019_Jun_12_1228_506,True,2019_Jun_12_1228,2IFC,3,RAMA04,
2IFC,28,0,28,0,8.2,-1,correct answer,0.0329267999623,True,False,stimulusRAMA04_2IFC_2019_Jun_12_1228_507,stimulusRAMA04_2IFC_2019_Jun_12_1228_508,True,2019_Jun_12_1228,2IFC,3,RAMA04,
2IFC,29,0,29,0,6,-1,correct answer,0.300511399982,False,True,stimulusRAMA04_2IFC_2019_Jun_12_1228_509,stimulusRAMA04_2IFC_2019_Jun_12_1228_510,True,2019_Jun_12_1228,2IFC,3,RAMA04,
2IFC,30,0,30,0,2.6,-1,wrong answer,0.533882600022,True,False,stimulusRAMA04_2IFC_2019_Jun_12_1228_511,stimulusRAMA04_2IFC_2019_Jun_12_1228_512,True,2019_Jun_12_1228,2IFC,3,RAMA04,
2IFC,31,0,31,0,2.5,-1,wrong answer,0.467556900112,True,False,stimulusRAMA04_2IFC_2019_Jun_12_1228_513,stimulusRAMA04_2IFC_2019_Jun_12_1228_514,True,2019_Jun_12_1228,2IFC,3,RAMA04,
2IFC,32,0,32,0,8.2,-1,correct answer,0.133597200038,True,False,stimulusRAMA04_2IFC_2019_Jun_12_1228_515,stimulusRAMA04_2IFC_2019_Jun_12_1228_516,True,2019_Jun_12_1228,2IFC,3,RAMA04,
2IFC,33,0,33,0,7,-1,correct answer,0.500704100123,False,True,stimulusRAMA04_2IFC_2019_Jun_12_1228_517,stimulusRAMA04_2IFC_2019_Jun_12_1228_518,True,2019_Jun_12_1228,2IFC,3,RAMA04,
2IFC,34,0,34,0,7,-1,correct answer,0.56733989995,False,True,stimulusRAMA04_2IFC_2019_Jun_12_1228_519,stimulusRAMA04_2IFC_2019_Jun_12_1228_520,True,2019_Jun_12_1228,2IFC,3,RAMA04,
2IFC,35,0,35,0,6,-1,correct answer,0.50070059998,True,False,stimulusRAMA04_2IFC_2019_Jun_12_1228_521,stimulusRAMA04_2IFC_2019_Jun_12_1228_522,True,2019_Jun_12_1228,2IFC,3,RAMA04,
2IFC,36,0,36,0,9.7,-1,correct answer,0.399306499865,False,True,stimulusRAMA04_2IFC_2019_Jun_12_1228_523,stimulusRAMA04_2IFC_2019_Jun_12_1228_524,True,2019_Jun_12_1228,2IFC,3,RAMA04,
2IFC,37,0,37,0,7,-1,correct answer,0.368003300158,False,True,stimulusRAMA04_2IFC_2019_Jun_12_1228_525,stimulusRAMA04_2IFC_2019_Jun_12_1228_526,True,2019_Jun_12_1228,2IFC,3,RAMA04,
2IFC,38,0,38,0,7,-1,correct answer,0.367053499911,False,True,stimulusRAMA04_2IFC_2019_Jun_12_1228_527,stimulusRAMA04_2IFC_2019_Jun_12_1228_528,True,2019_Jun_12_1228,2IFC,3,RAMA04,
2IFC,39,0,39,0,2.5,-1,wrong answer,0.533829099964,True,False,stimulusRAMA04_2IFC_2019_Jun_12_1228_529,stimulusRAMA04_2IFC_2019_Jun_12_1228_530,True,2019_Jun_12_1228,2IFC,3,RAMA04,
2IFC,40,0,40,0,9.7,-1,correct answer,0.400537299924,False,True,stimulusRAMA04_2IFC_2019_Jun_12_1228_531,stimulusRAMA04_2IFC_2019_Jun_12_1228_532,True,2019_Jun_12_1228,2IFC,3,RAMA04,
2IFC,41,0,41,0,7,-1,correct answer,0.266954000108,True,False,stimulusRAMA04_2IFC_2019_Jun_12_1228_533,stimulusRAMA04_2IFC_2019_Jun_12_1228_534,True,2019_Jun_12_1228,2IFC,3,RAMA04,
2IFC,42,0,42,0,8.2,-1,correct answer,0.367352499859,False,True,stimulusRAMA04_2IFC_2019_Jun_12_1228_535,stimulusRAMA04_2IFC_2019_Jun_12_1228_536,True,2019_Jun_12_1228,2IFC,3,RAMA04,
2IFC,43,0,43,0,6,-1,correct answer,0.0333826001734,True,False,stimulusRAMA04_2IFC_2019_Jun_12_1228_537,stimulusRAMA04_2IFC_2019_Jun_12_1228_538,True,2019_Jun_12_1228,2IFC,3,RAMA04,
2IFC,44,0,44,0,6,-1,correct answer,0.668884899933,True,False,stimulusRAMA04_2IFC_2019_Jun_12_1228_539,stimulusRAMA04_2IFC_2019_Jun_12_1228_540,True,2019_Jun_12_1228,2IFC,3,RAMA04,
2IFC,45,0,45,0,8.2,-1,correct answer,0.133286099881,True,False,stimulusRAMA04_2IFC_2019_Jun_12_1228_541,stimulusRAMA04_2IFC_2019_Jun_12_1228_542,True,2019_Jun_12_1228,2IFC,3,RAMA04,
2IFC,46,0,46,0,5,-1,correct answer,0.266882200027,True,False,stimulusRAMA04_2IFC_2019_Jun_12_1228_543,stimulusRAMA04_2IFC_2019_Jun_12_1228_544,True,2019_Jun_12_1228,2IFC,3,RAMA04,
2IFC,47,0,47,0,6,-1,correct answer,0.3001162,False,True,stimulusRAMA04_2IFC_2019_Jun_12_1228_545,stimulusRAMA04_2IFC_2019_Jun_12_1228_546,True,2019_Jun_12_1228,2IFC,3,RAMA04,
2IFC,48,0,48,0,5,-1,wrong answer,0.36677130009,True,False,stimulusRAMA04_2IFC_2019_Jun_12_1228_547,stimulusRAMA04_2IFC_2019_Jun_12_1228_548,True,2019_Jun_12_1228,2IFC,3,RAMA04,
2IFC,49,0,49,0,2.5,-1,correct answer,0.368414100027,False,True,stimulusRAMA04_2IFC_2019_Jun_12_1228_549,stimulusRAMA04_2IFC_2019_Jun_12_1228_550,True,2019_Jun_12_1228,2IFC,3,RAMA04,
2IFC,50,0,50,0,8.2,-1,correct answer,0.201325700153,True,False,stimulusRAMA04_2IFC_2019_Jun_12_1228_551,stimulusRAMA04_2IFC_2019_Jun_12_1228_552,True,2019_Jun_12_1228,2IFC,3,RAMA04,
2IFC,51,0,51,0,5,-1,correct answer,0.23407060001,False,True,stimulusRAMA04_2IFC_2019_Jun_12_1228_553,stimulusRAMA04_2IFC_2019_Jun_12_1228_554,True,2019_Jun_12_1228,2IFC,3,RAMA04,
2IFC,52,0,52,0,7,-1,correct answer,0.299775899854,False,True,stimulusRAMA04_2IFC_2019_Jun_12_1228_555,stimulusRAMA04_2IFC_2019_Jun_12_1228_556,True,2019_Jun_12_1228,2IFC,3,RAMA04,
2IFC,53,0,53,0,8.2,-1,correct answer,0.599338799948,True,False,stimulusRAMA04_2IFC_2019_Jun_12_1228_557,stimulusRAMA04_2IFC_2019_Jun_12_1228_558,True,2019_Jun_12_1228,2IFC,3,RAMA04,
2IFC,54,0,54,0,6,-1,correct answer,0.3338277,True,False,stimulusRAMA04_2IFC_2019_Jun_12_1228_559,stimulusRAMA04_2IFC_2019_Jun_12_1228_560,True,2019_Jun_12_1228,2IFC,3,RAMA04,
2IFC,55,0,55,0,3.8,-1,wrong answer,0.333674399881,True,False,stimulusRAMA04_2IFC_2019_Jun_12_1228_561,stimulusRAMA04_2IFC_2019_Jun_12_1228_562,True,2019_Jun_12_1228,2IFC,3,RAMA04,
2IFC,56,0,56,0,3.8,-1,correct answer,0.367170599988,False,True,stimulusRAMA04_2IFC_2019_Jun_12_1228_563,stimulusRAMA04_2IFC_2019_Jun_12_1228_564,True,2019_Jun_12_1228,2IFC,3,RAMA04,
2IFC,57,0,57,0,6,-1,correct answer,0.367851600051,False,True,stimulusRAMA04_2IFC_2019_Jun_12_1228_565,stimulusRAMA04_2IFC_2019_Jun_12_1228_566,True,2019_Jun_12_1228,2IFC,3,RAMA04,
2IFC,58,0,58,0,6,-1,correct answer,0.36619950016,False,True,stimulusRAMA04_2IFC_2019_Jun_12_1228_567,stimulusRAMA04_2IFC_2019_Jun_12_1228_568,True,2019_Jun_12_1228,2IFC,3,RAMA04,
2IFC,59,0,59,0,2.6,-1,correct answer,0.100629099878,True,False,stimulusRAMA04_2IFC_2019_Jun_12_1228_569,stimulusRAMA04_2IFC_2019_Jun_12_1228_570,True,2019_Jun_12_1228,2IFC,3,RAMA04,
2IFC,60,0,60,0,6,-1,correct answer,0.302630699938,True,False,stimulusRAMA04_2IFC_2019_Jun_12_1228_571,stimulusRAMA04_2IFC_2019_Jun_12_1228_572,True,2019_Jun_12_1228,2IFC,3,RAMA04,
2IFC,61,0,61,0,3.8,-1,correct answer,0.267313099932,False,True,stimulusRAMA04_2IFC_2019_Jun_12_1228_573,stimulusRAMA04_2IFC_2019_Jun_12_1228_574,True,2019_Jun_12_1228,2IFC,3,RAMA04,
2IFC,62,0,62,0,7,-1,correct answer,0.300484600011,True,False,stimulusRAMA04_2IFC_2019_Jun_12_1228_575,stimulusRAMA04_2IFC_2019_Jun_12_1228_576,True,2019_Jun_12_1228,2IFC,3,RAMA04,
2IFC,63,0,63,0,6,-1,correct answer,0.299850000069,True,False,stimulusRAMA04_2IFC_2019_Jun_12_1228_577,stimulusRAMA04_2IFC_2019_Jun_12_1228_578,True,2019_Jun_12_1228,2IFC,3,RAMA04,
2IFC,64,0,64,0,7,-1,correct answer,0.432941899868,False,True,stimulusRAMA04_2IFC_2019_Jun_12_1228_579,stimulusRAMA04_2IFC_2019_Jun_12_1228_580,True,2019_Jun_12_1228,2IFC,3,RAMA04,
2IFC,65,0,65,0,3.8,-1,wrong answer,0.63448820007,False,True,stimulusRAMA04_2IFC_2019_Jun_12_1228_581,stimulusRAMA04_2IFC_2019_Jun_12_1228_582,True,2019_Jun_12_1228,2IFC,3,RAMA04,
2IFC,66,0,66,0,9.7,-1,correct answer,0.200589699904,True,False,stimulusRAMA04_2IFC_2019_Jun_12_1228_583,stimulusRAMA04_2IFC_2019_Jun_12_1228_584,True,2019_Jun_12_1228,2IFC,3,RAMA04,
2IFC,67,0,67,0,6,-1,correct answer,0.333651600173,False,True,stimulusRAMA04_2IFC_2019_Jun_12_1228_585,stimulusRAMA04_2IFC_2019_Jun_12_1228_586,True,2019_Jun_12_1228,2IFC,3,RAMA04,
2IFC,68,0,68,0,2.5,-1,correct answer,0.566738099791,True,False,stimulusRAMA04_2IFC_2019_Jun_12_1228_587,stimulusRAMA04_2IFC_2019_Jun_12_1228_588,True,2019_Jun_12_1228,2IFC,3,RAMA04,
2IFC,69,0,69,0,5,-1,correct answer,0.700429900084,True,False,stimulusRAMA04_2IFC_2019_Jun_12_1228_589,stimulusRAMA04_2IFC_2019_Jun_12_1228_590,True,2019_Jun_12_1228,2IFC,3,RAMA04,
2IFC,70,0,70,0,3.8,-1,correct answer,0.400348399999,True,False,stimulusRAMA04_2IFC_2019_Jun_12_1228_591,stimulusRAMA04_2IFC_2019_Jun_12_1228_592,True,2019_Jun_12_1228,2IFC,3,RAMA04,
2IFC,71,0,71,0,9.7,-1,correct answer,0.399423899828,False,True,stimulusRAMA04_2IFC_2019_Jun_12_1228_593,stimulusRAMA04_2IFC_2019_Jun_12_1228_594,True,2019_Jun_12_1228,2IFC,3,RAMA04,
2IFC,72,0,72,0,5,-1,correct answer,0.400935499929,False,True,stimulusRAMA04_2IFC_2019_Jun_12_1228_595,stimulusRAMA04_2IFC_2019_Jun_12_1228_596,True,2019_Jun_12_1228,2IFC,3,RAMA04,
2IFC,73,0,73,0,8.2,-1,correct answer,0.366375799989,False,True,stimulusRAMA04_2IFC_2019_Jun_12_1228_597,stimulusRAMA04_2IFC_2019_Jun_12_1228_598,True,2019_Jun_12_1228,2IFC,3,RAMA04,
2IFC,74,0,74,0,8.2,-1,correct answer,0.500613299897,True,False,stimulusRAMA04_2IFC_2019_Jun_12_1228_599,stimulusRAMA04_2IFC_2019_Jun_12_1228_600,True,2019_Jun_12_1228,2IFC,3,RAMA04,
2IFC,0,0,0,0,5,-1,wrong answer,0.46754870005,False,True,stimulusRAMA04_2IFC_2019_Jun_12_1228_601,stimulusRAMA04_2IFC_2019_Jun_12_1228_602,True,2019_Jun_12_1228,2IFC,3,RAMA04,
2IFC,1,0,1,0,8.2,-1,correct answer,0.0668794999365,True,False,stimulusRAMA04_2IFC_2019_Jun_12_1228_603,stimulusRAMA04_2IFC_2019_Jun_12_1228_604,True,2019_Jun_12_1228,2IFC,3,RAMA04,
2IFC,2,0,2,0,6,-1,correct answer,0.333974200068,False,True,stimulusRAMA04_2IFC_2019_Jun_12_1228_605,stimulusRAMA04_2IFC_2019_Jun_12_1228_606,True,2019_Jun_12_1228,2IFC,3,RAMA04,
2IFC,3,0,3,0,3.8,-1,wrong answer,0.467259200057,True,False,stimulusRAMA04_2IFC_2019_Jun_12_1228_607,stimulusRAMA04_2IFC_2019_Jun_12_1228_608,True,2019_Jun_12_1228,2IFC,3,RAMA04,
2IFC,4,0,4,0,3.8,-1,correct answer,0.300388500094,False,True,stimulusRAMA04_2IFC_2019_Jun_12_1228_609,stimulusRAMA04_2IFC_2019_Jun_12_1228_610,True,2019_Jun_12_1228,2IFC,3,RAMA04,
2IFC,5,0,5,0,2.5,-1,correct answer,0.434557500063,False,True,stimulusRAMA04_2IFC_2019_Jun_12_1228_611,stimulusRAMA04_2IFC_2019_Jun_12_1228_612,True,2019_Jun_12_1228,2IFC,3,RAMA04,
2IFC,6,0,6,0,9.7,-1,correct answer,0.100247999886,True,False,stimulusRAMA04_2IFC_2019_Jun_12_1228_613,stimulusRAMA04_2IFC_2019_Jun_12_1228_614,True,2019_Jun_12_1228,2IFC,3,RAMA04,
2IFC,7,0,7,0,8.2,-1,correct answer,0.268529599998,True,False,stimulusRAMA04_2IFC_2019_Jun_12_1228_615,stimulusRAMA04_2IFC_2019_Jun_12_1228_616,True,2019_Jun_12_1228,2IFC,3,RAMA04,
2IFC,8,0,8,0,5,-1,correct answer,0.300488699926,False,True,stimulusRAMA04_2IFC_2019_Jun_12_1228_617,stimulusRAMA04_2IFC_2019_Jun_12_1228_618,True,2019_Jun_12_1228,2IFC,3,RAMA04,
2IFC,9,0,9,0,2.6,-1,correct answer,0.333562500076,False,True,stimulusRAMA04_2IFC_2019_Jun_12_1228_619,stimulusRAMA04_2IFC_2019_Jun_12_1228_620,True,2019_Jun_12_1228,2IFC,3,RAMA04,
2IFC,10,0,10,0,7,-1,correct answer,0.267041200073,True,False,stimulusRAMA04_2IFC_2019_Jun_12_1228_621,stimulusRAMA04_2IFC_2019_Jun_12_1228_622,True,2019_Jun_12_1228,2IFC,3,RAMA04,
2IFC,11,0,11,0,6,-1,correct answer,0.3337797001,True,False,stimulusRAMA04_2IFC_2019_Jun_12_1228_623,stimulusRAMA04_2IFC_2019_Jun_12_1228_624,True,2019_Jun_12_1228,2IFC,3,RAMA04,
2IFC,12,0,12,0,3.8,-1,correct answer,0.333769700024,True,False,stimulusRAMA04_2IFC_2019_Jun_12_1228_625,stimulusRAMA04_2IFC_2019_Jun_12_1228_626,True,2019_Jun_12_1228,2IFC,3,RAMA04,
2IFC,13,0,13,0,2.6,-1,correct answer,0.367962999968,True,False,stimulusRAMA04_2IFC_2019_Jun_12_1228_627,stimulusRAMA04_2IFC_2019_Jun_12_1228_628,True,2019_Jun_12_1228,2IFC,3,RAMA04,
2IFC,14,0,14,0,5,-1,correct answer,0.367773900041,True,False,stimulusRAMA04_2IFC_2019_Jun_12_1228_629,stimulusRAMA04_2IFC_2019_Jun_12_1228_630,True,2019_Jun_12_1228,2IFC,3,RAMA04,
2IFC,15,0,15,0,8.2,-1,correct answer,0.267071600072,False,True,stimulusRAMA04_2IFC_2019_Jun_12_1228_631,stimulusRAMA04_2IFC_2019_Jun_12_1228_632,True,2019_Jun_12_1228,2IFC,3,RAMA04,
2IFC,16,0,16,0,9.7,-1,correct answer,0.235100700054,True,False,stimulusRAMA04_2IFC_2019_Jun_12_1228_633,stimulusRAMA04_2IFC_2019_Jun_12_1228_634,True,2019_Jun_12_1228,2IFC,3,RAMA04,
2IFC,17,0,17,0,6,-1,wrong answer,0.300484600011,False,True,stimulusRAMA04_2IFC_2019_Jun_12_1228_635,stimulusRAMA04_2IFC_2019_Jun_12_1228_636,True,2019_Jun_12_1228,2IFC,3,RAMA04,
2IFC,18,0,18,0,3.8,-1,wrong answer,0.266989400145,True,False,stimulusRAMA04_2IFC_2019_Jun_12_1228_637,stimulusRAMA04_2IFC_2019_Jun_12_1228_638,True,2019_Jun_12_1228,2IFC,3,RAMA04,
2IFC,19,0,19,0,2.6,-1,correct answer,0.333842899883,False,True,stimulusRAMA04_2IFC_2019_Jun_12_1228_639,stimulusRAMA04_2IFC_2019_Jun_12_1228_640,True,2019_Jun_12_1228,2IFC,3,RAMA04,
2IFC,20,0,20,0,9.7,-1,correct answer,0.53258359991,False,True,stimulusRAMA04_2IFC_2019_Jun_12_1228_641,stimulusRAMA04_2IFC_2019_Jun_12_1228_642,True,2019_Jun_12_1228,2IFC,3,RAMA04,
2IFC,21,0,21,0,5,-1,wrong answer,0.400673399912,True,False,stimulusRAMA04_2IFC_2019_Jun_12_1228_643,stimulusRAMA04_2IFC_2019_Jun_12_1228_644,True,2019_Jun_12_1228,2IFC,3,RAMA04,
2IFC,22,0,22,0,8.2,-1,correct answer,0.433446499985,True,False,stimulusRAMA04_2IFC_2019_Jun_12_1228_645,stimulusRAMA04_2IFC_2019_Jun_12_1228_646,True,2019_Jun_12_1228,2IFC,3,RAMA04,
2IFC,23,0,23,0,2.5,-1,wrong answer,0.400168100139,False,True,stimulusRAMA04_2IFC_2019_Jun_12_1228_647,stimulusRAMA04_2IFC_2019_Jun_12_1228_648,True,2019_Jun_12_1228,2IFC,3,RAMA04,
2IFC,24,0,24,0,6,-1,correct answer,0.467239799909,False,True,stimulusRAMA04_2IFC_2019_Jun_12_1228_649,stimulusRAMA04_2IFC_2019_Jun_12_1228_650,True,2019_Jun_12_1228,2IFC,3,RAMA04,
2IFC,25,0,25,0,2.5,-1,correct answer,0.634115600027,False,True,stimulusRAMA04_2IFC_2019_Jun_12_1228_651,stimulusRAMA04_2IFC_2019_Jun_12_1228_652,True,2019_Jun_12_1228,2IFC,3,RAMA04,
2IFC,26,0,26,0,5,-1,correct answer,0.433873200091,True,False,stimulusRAMA04_2IFC_2019_Jun_12_1228_653,stimulusRAMA04_2IFC_2019_Jun_12_1228_654,True,2019_Jun_12_1228,2IFC,3,RAMA04,
2IFC,27,0,27,0,5,-1,correct answer,0.332772099879,False,True,stimulusRAMA04_2IFC_2019_Jun_12_1228_655,stimulusRAMA04_2IFC_2019_Jun_12_1228_656,True,2019_Jun_12_1228,2IFC,3,RAMA04,
2IFC,28,0,28,0,2.6,-1,correct answer,0.300383800175,False,True,stimulusRAMA04_2IFC_2019_Jun_12_1228_657,stimulusRAMA04_2IFC_2019_Jun_12_1228_658,True,2019_Jun_12_1228,2IFC,3,RAMA04,
2IFC,29,0,29,0,3.8,-1,correct answer,0.267103600083,True,False,stimulusRAMA04_2IFC_2019_Jun_12_1228_659,stimulusRAMA04_2IFC_2019_Jun_12_1228_660,True,2019_Jun_12_1228,2IFC,3,RAMA04,
2IFC,30,0,30,0,7,-1,correct answer,0.367130599916,False,True,stimulusRAMA04_2IFC_2019_Jun_12_1228_661,stimulusRAMA04_2IFC_2019_Jun_12_1228_662,True,2019_Jun_12_1228,2IFC,3,RAMA04,
2IFC,31,0,31,0,8.2,-1,correct answer,0.400408599991,False,True,stimulusRAMA04_2IFC_2019_Jun_12_1228_663,stimulusRAMA04_2IFC_2019_Jun_12_1228_664,True,2019_Jun_12_1228,2IFC,3,RAMA04,
2IFC,32,0,32,0,2.6,-1,correct answer,0.369077899959,False,True,stimulusRAMA04_2IFC_2019_Jun_12_1228_665,stimulusRAMA04_2IFC_2019_Jun_12_1228_666,True,2019_Jun_12_1228,2IFC,3,RAMA04,
2IFC,33,0,33,0,2.6,-1,wrong answer,0.433987499913,True,False,stimulusRAMA04_2IFC_2019_Jun_12_1228_667,stimulusRAMA04_2IFC_2019_Jun_12_1228_668,True,2019_Jun_12_1228,2IFC,3,RAMA04,
2IFC,34,0,34,0,2.5,-1,correct answer,0.500684299972,False,True,stimulusRAMA04_2IFC_2019_Jun_12_1228_669,stimulusRAMA04_2IFC_2019_Jun_12_1228_670,True,2019_Jun_12_1228,2IFC,3,RAMA04,
2IFC,35,0,35,0,8.2,-1,correct answer,0.234198499937,True,False,stimulusRAMA04_2IFC_2019_Jun_12_1228_671,stimulusRAMA04_2IFC_2019_Jun_12_1228_672,True,2019_Jun_12_1228,2IFC,3,RAMA04,
2IFC,36,0,36,0,3.8,-1,correct answer,0.46782879997,False,True,stimulusRAMA04_2IFC_2019_Jun_12_1228_673,stimulusRAMA04_2IFC_2019_Jun_12_1228_674,True,2019_Jun_12_1228,2IFC,3,RAMA04,
2IFC,37,0,37,0,9.7,-1,correct answer,0.567262500059,True,False,stimulusRAMA04_2IFC_2019_Jun_12_1228_675,stimulusRAMA04_2IFC_2019_Jun_12_1228_676,True,2019_Jun_12_1228,2IFC,3,RAMA04,
2IFC,38,0,38,0,2.5,-1,correct answer,0.333028800087,False,True,stimulusRAMA04_2IFC_2019_Jun_12_1228_677,stimulusRAMA04_2IFC_2019_Jun_12_1228_678,True,2019_Jun_12_1228,2IFC,3,RAMA04,
2IFC,39,0,39,0,9.7,-1,correct answer,0.53293350013,True,False,stimulusRAMA04_2IFC_2019_Jun_12_1228_679,stimulusRAMA04_2IFC_2019_Jun_12_1228_680,True,2019_Jun_12_1228,2IFC,3,RAMA04,
2IFC,40,0,40,0,5,-1,correct answer,0.434165199986,False,True,stimulusRAMA04_2IFC_2019_Jun_12_1228_681,stimulusRAMA04_2IFC_2019_Jun_12_1228_682,True,2019_Jun_12_1228,2IFC,3,RAMA04,
2IFC,41,0,41,0,3.8,-1,correct answer,0.467095900094,False,True,stimulusRAMA04_2IFC_2019_Jun_12_1228_683,stimulusRAMA04_2IFC_2019_Jun_12_1228_684,True,2019_Jun_12_1228,2IFC,3,RAMA04,
2IFC,42,0,42,0,9.7,-1,correct answer,0.101016999921,True,False,stimulusRAMA04_2IFC_2019_Jun_12_1228_685,stimulusRAMA04_2IFC_2019_Jun_12_1228_686,True,2019_Jun_12_1228,2IFC,3,RAMA04,
2IFC,43,0,43,0,9.7,-1,correct answer,0.400769700063,True,False,stimulusRAMA04_2IFC_2019_Jun_12_1228_687,stimulusRAMA04_2IFC_2019_Jun_12_1228_688,True,2019_Jun_12_1228,2IFC,3,RAMA04,
2IFC,44,0,44,0,5,-1,correct answer,0.333672899986,True,False,stimulusRAMA04_2IFC_2019_Jun_12_1228_689,stimulusRAMA04_2IFC_2019_Jun_12_1228_690,True,2019_Jun_12_1228,2IFC,3,RAMA04,
2IFC,45,0,45,0,7,-1,correct answer,0.300275799818,True,False,stimulusRAMA04_2IFC_2019_Jun_12_1228_691,stimulusRAMA04_2IFC_2019_Jun_12_1228_692,True,2019_Jun_12_1228,2IFC,3,RAMA04,
2IFC,46,0,46,0,8.2,-1,correct answer,0.13347120001,True,False,stimulusRAMA04_2IFC_2019_Jun_12_1228_693,stimulusRAMA04_2IFC_2019_Jun_12_1228_694,True,2019_Jun_12_1228,2IFC,3,RAMA04,
2IFC,47,0,47,0,2.5,-1,wrong answer,0.233615099918,False,True,stimulusRAMA04_2IFC_2019_Jun_12_1228_695,stimulusRAMA04_2IFC_2019_Jun_12_1228_696,True,2019_Jun_12_1228,2IFC,3,RAMA04,
2IFC,48,0,48,0,9.7,-1,correct answer,0.267282799818,True,False,stimulusRAMA04_2IFC_2019_Jun_12_1228_697,stimulusRAMA04_2IFC_2019_Jun_12_1228_698,True,2019_Jun_12_1228,2IFC,3,RAMA04,
2IFC,49,0,49,0,3.8,-1,correct answer,0.302534500137,False,True,stimulusRAMA04_2IFC_2019_Jun_12_1228_699,stimulusRAMA04_2IFC_2019_Jun_12_1228_700,True,2019_Jun_12_1228,2IFC,3,RAMA04,
2IFC,50,0,50,0,2.6,-1,wrong answer,0.433808199828,True,False,stimulusRAMA04_2IFC_2019_Jun_12_1228_701,stimulusRAMA04_2IFC_2019_Jun_12_1228_702,True,2019_Jun_12_1228,2IFC,3,RAMA04,
2IFC,51,0,51,0,2.6,-1,correct answer,0.332933800062,False,True,stimulusRAMA04_2IFC_2019_Jun_12_1228_703,stimulusRAMA04_2IFC_2019_Jun_12_1228_704,True,2019_Jun_12_1228,2IFC,3,RAMA04,
2IFC,52,0,52,0,2.6,-1,correct answer,0.567555199843,False,True,stimulusRAMA04_2IFC_2019_Jun_12_1228_705,stimulusRAMA04_2IFC_2019_Jun_12_1228_706,True,2019_Jun_12_1228,2IFC,3,RAMA04,
2IFC,53,0,53,0,5,-1,correct answer,0.434152999893,False,True,stimulusRAMA04_2IFC_2019_Jun_12_1228_707,stimulusRAMA04_2IFC_2019_Jun_12_1228_708,True,2019_Jun_12_1228,2IFC,3,RAMA04,
2IFC,54,0,54,0,6,-1,correct answer,0.600700499956,False,True,stimulusRAMA04_2IFC_2019_Jun_12_1228_709,stimulusRAMA04_2IFC_2019_Jun_12_1228_710,True,2019_Jun_12_1228,2IFC,3,RAMA04,
2IFC,55,0,55,0,6,-1,wrong answer,0.567668800009,False,True,stimulusRAMA04_2IFC_2019_Jun_12_1228_711,stimulusRAMA04_2IFC_2019_Jun_12_1228_712,True,2019_Jun_12_1228,2IFC,3,RAMA04,
2IFC,56,0,56,0,7,-1,wrong answer,0.399714299943,False,True,stimulusRAMA04_2IFC_2019_Jun_12_1228_713,stimulusRAMA04_2IFC_2019_Jun_12_1228_714,True,2019_Jun_12_1228,2IFC,3,RAMA04,
2IFC,57,0,57,0,6,-1,correct answer,0.402680000057,False,True,stimulusRAMA04_2IFC_2019_Jun_12_1228_715,stimulusRAMA04_2IFC_2019_Jun_12_1228_716,True,2019_Jun_12_1228,2IFC,3,RAMA04,
2IFC,58,0,58,0,8.2,-1,correct answer,0.399246599991,False,True,stimulusRAMA04_2IFC_2019_Jun_12_1228_717,stimulusRAMA04_2IFC_2019_Jun_12_1228_718,True,2019_Jun_12_1228,2IFC,3,RAMA04,
2IFC,59,0,59,0,6,-1,correct answer,0.566523600137,True,False,stimulusRAMA04_2IFC_2019_Jun_12_1228_719,stimulusRAMA04_2IFC_2019_Jun_12_1228_720,True,2019_Jun_12_1228,2IFC,3,RAMA04,
2IFC,60,0,60,0,8.2,-1,correct answer,0.333773400169,False,True,stimulusRAMA04_2IFC_2019_Jun_12_1228_721,stimulusRAMA04_2IFC_2019_Jun_12_1228_722,True,2019_Jun_12_1228,2IFC,3,RAMA04,
2IFC,61,0,61,0,7,-1,correct answer,0.567191800103,False,True,stimulusRAMA04_2IFC_2019_Jun_12_1228_723,stimulusRAMA04_2IFC_2019_Jun_12_1228_724,True,2019_Jun_12_1228,2IFC,3,RAMA04,
2IFC,62,0,62,0,5,-1,wrong answer,0.367190700024,True,False,stimulusRAMA04_2IFC_2019_Jun_12_1228_725,stimulusRAMA04_2IFC_2019_Jun_12_1228_726,True,2019_Jun_12_1228,2IFC,3,RAMA04,
2IFC,63,0,63,0,6,-1,wrong answer,0.567564599914,True,False,stimulusRAMA04_2IFC_2019_Jun_12_1228_727,stimulusRAMA04_2IFC_2019_Jun_12_1228_728,True,2019_Jun_12_1228,2IFC,3,RAMA04,
2IFC,64,0,64,0,2.6,-1,wrong answer,0.767340699909,False,True,stimulusRAMA04_2IFC_2019_Jun_12_1228_729,stimulusRAMA04_2IFC_2019_Jun_12_1228_730,True,2019_Jun_12_1228,2IFC,3,RAMA04,
2IFC,65,0,65,0,8.2,-1,correct answer,0.434248199919,False,True,stimulusRAMA04_2IFC_2019_Jun_12_1228_731,stimulusRAMA04_2IFC_2019_Jun_12_1228_732,True,2019_Jun_12_1228,2IFC,3,RAMA04,
2IFC,66,0,66,0,6,-1,correct answer,0.566670799861,False,True,stimulusRAMA04_2IFC_2019_Jun_12_1228_733,stimulusRAMA04_2IFC_2019_Jun_12_1228_734,True,2019_Jun_12_1228,2IFC,3,RAMA04,
2IFC,67,0,67,0,3.8,-1,correct answer,0.834667999996,False,True,stimulusRAMA04_2IFC_2019_Jun_12_1228_735,stimulusRAMA04_2IFC_2019_Jun_12_1228_736,True,2019_Jun_12_1228,2IFC,3,RAMA04,
2IFC,68,0,68,0,6,-1,correct answer,0.233460300136,True,False,stimulusRAMA04_2IFC_2019_Jun_12_1228_737,stimulusRAMA04_2IFC_2019_Jun_12_1228_738,True,2019_Jun_12_1228,2IFC,3,RAMA04,
2IFC,69,0,69,0,9.7,-1,correct answer,0.400386500172,False,True,stimulusRAMA04_2IFC_2019_Jun_12_1228_739,stimulusRAMA04_2IFC_2019_Jun_12_1228_740,True,2019_Jun_12_1228,2IFC,3,RAMA04,
2IFC,70,0,70,0,6,-1,correct answer,0.432965300046,False,True,stimulusRAMA04_2IFC_2019_Jun_12_1228_741,stimulusRAMA04_2IFC_2019_Jun_12_1228_742,True,2019_Jun_12_1228,2IFC,3,RAMA04,
2IFC,71,0,71,0,2.5,-1,wrong answer,0.600755400024,True,False,stimulusRAMA04_2IFC_2019_Jun_12_1228_743,stimulusRAMA04_2IFC_2019_Jun_12_1228_744,True,2019_Jun_12_1228,2IFC,3,RAMA04,
2IFC,72,0,72,0,6,-1,wrong answer,0.569782899925,True,False,stimulusRAMA04_2IFC_2019_Jun_12_1228_745,stimulusRAMA04_2IFC_2019_Jun_12_1228_746,True,2019_Jun_12_1228,2IFC,3,RAMA04,
2IFC,73,0,73,0,2.5,-1,wrong answer,0.400687699905,True,False,stimulusRAMA04_2IFC_2019_Jun_12_1228_747,stimulusRAMA04_2IFC_2019_Jun_12_1228_748,True,2019_Jun_12_1228,2IFC,3,RAMA04,
2IFC,74,0,74,0,9.7,-1,wrong answer,0.634072599933,True,False,stimulusRAMA04_2IFC_2019_Jun_12_1228_749,stimulusRAMA04_2IFC_2019_Jun_12_1228_750,True,2019_Jun_12_1228,2IFC,3,RAMA04,
2IFC,0,0,0,0,7,-1,correct answer,0.434851699974,False,True,stimulusRAMA04_2IFC_2019_Jun_12_1228_751,stimulusRAMA04_2IFC_2019_Jun_12_1228_752,True,2019_Jun_12_1228,2IFC,3,RAMA04,
2IFC,1,0,1,0,5,-1,correct answer,0.466801600065,True,False,stimulusRAMA04_2IFC_2019_Jun_12_1228_753,stimulusRAMA04_2IFC_2019_Jun_12_1228_754,True,2019_Jun_12_1228,2IFC,3,RAMA04,
2IFC,2,0,2,0,2.5,-1,wrong answer,0.399524000008,True,False,stimulusRAMA04_2IFC_2019_Jun_12_1228_755,stimulusRAMA04_2IFC_2019_Jun_12_1228_756,True,2019_Jun_12_1228,2IFC,3,RAMA04,
2IFC,3,0,3,0,2.6,-1,correct answer,0.36734220013,False,True,stimulusRAMA04_2IFC_2019_Jun_12_1228_757,stimulusRAMA04_2IFC_2019_Jun_12_1228_758,True,2019_Jun_12_1228,2IFC,3,RAMA04,
2IFC,4,0,4,0,2.6,-1,wrong answer,0.36717880005,True,False,stimulusRAMA04_2IFC_2019_Jun_12_1228_759,stimulusRAMA04_2IFC_2019_Jun_12_1228_760,True,2019_Jun_12_1228,2IFC,3,RAMA04,
2IFC,5,0,5,0,6,-1,correct answer,0.200293799862,True,False,stimulusRAMA04_2IFC_2019_Jun_12_1228_761,stimulusRAMA04_2IFC_2019_Jun_12_1228_762,True,2019_Jun_12_1228,2IFC,3,RAMA04,
2IFC,6,0,6,0,2.5,-1,correct answer,0.301102400059,False,True,stimulusRAMA04_2IFC_2019_Jun_12_1228_763,stimulusRAMA04_2IFC_2019_Jun_12_1228_764,True,2019_Jun_12_1228,2IFC,3,RAMA04,
2IFC,7,0,7,0,9.7,-1,correct answer,0.367097299779,False,True,stimulusRAMA04_2IFC_2019_Jun_12_1228_765,stimulusRAMA04_2IFC_2019_Jun_12_1228_766,True,2019_Jun_12_1228,2IFC,3,RAMA04,
2IFC,8,0,8,0,3.8,-1,correct answer,0.700194699923,False,True,stimulusRAMA04_2IFC_2019_Jun_12_1228_767,stimulusRAMA04_2IFC_2019_Jun_12_1228_768,True,2019_Jun_12_1228,2IFC,3,RAMA04,
2IFC,9,0,9,0,6,-1,correct answer,0.599654400023,False,True,stimulusRAMA04_2IFC_2019_Jun_12_1228_769,stimulusRAMA04_2IFC_2019_Jun_12_1228_770,True,2019_Jun_12_1228,2IFC,3,RAMA04,
2IFC,10,0,10,0,2.5,-1,wrong answer,0.60050099995,True,False,stimulusRAMA04_2IFC_2019_Jun_12_1228_771,stimulusRAMA04_2IFC_2019_Jun_12_1228_772,True,2019_Jun_12_1228,2IFC,3,RAMA04,
2IFC,11,0,11,0,3.8,-1,correct answer,0.601381500019,False,True,stimulusRAMA04_2IFC_2019_Jun_12_1228_773,stimulusRAMA04_2IFC_2019_Jun_12_1228_774,True,2019_Jun_12_1228,2IFC,3,RAMA04,
2IFC,12,0,12,0,3.8,-1,wrong answer,0.767187699908,False,True,stimulusRAMA04_2IFC_2019_Jun_12_1228_775,stimulusRAMA04_2IFC_2019_Jun_12_1228_776,True,2019_Jun_12_1228,2IFC,3,RAMA04,
2IFC,13,0,13,0,3.8,-1,correct answer,0.43437979999,False,True,stimulusRAMA04_2IFC_2019_Jun_12_1228_777,stimulusRAMA04_2IFC_2019_Jun_12_1228_778,True,2019_Jun_12_1228,2IFC,3,RAMA04,
2IFC,14,0,14,0,8.2,-1,correct answer,0.333805700066,True,False,stimulusRAMA04_2IFC_2019_Jun_12_1228_779,stimulusRAMA04_2IFC_2019_Jun_12_1228_780,True,2019_Jun_12_1228,2IFC,3,RAMA04,
2IFC,15,0,15,0,8.2,-1,correct answer,0.4341496001,False,True,stimulusRAMA04_2IFC_2019_Jun_12_1228_781,stimulusRAMA04_2IFC_2019_Jun_12_1228_782,True,2019_Jun_12_1228,2IFC,3,RAMA04,
2IFC,16,0,16,0,8.2,-1,correct answer,0.400229900144,False,True,stimulusRAMA04_2IFC_2019_Jun_12_1228_783,stimulusRAMA04_2IFC_2019_Jun_12_1228_784,True,2019_Jun_12_1228,2IFC,3,RAMA04,
2IFC,17,0,17,0,6,-1,correct answer,0.500727300067,False,True,stimulusRAMA04_2IFC_2019_Jun_12_1228_785,stimulusRAMA04_2IFC_2019_Jun_12_1228_786,True,2019_Jun_12_1228,2IFC,3,RAMA04,
2IFC,18,0,18,0,2.6,-1,correct answer,0.767457599984,True,False,stimulusRAMA04_2IFC_2019_Jun_12_1228_787,stimulusRAMA04_2IFC_2019_Jun_12_1228_788,True,2019_Jun_12_1228,2IFC,3,RAMA04,
2IFC,19,0,19,0,6,-1,correct answer,0.467655400047,True,False,stimulusRAMA04_2IFC_2019_Jun_12_1228_789,stimulusRAMA04_2IFC_2019_Jun_12_1228_790,True,2019_Jun_12_1228,2IFC,3,RAMA04,
2IFC,20,0,20,0,3.8,-1,wrong answer,0.367498399923,True,False,stimulusRAMA04_2IFC_2019_Jun_12_1228_791,stimulusRAMA04_2IFC_2019_Jun_12_1228_792,True,2019_Jun_12_1228,2IFC,3,RAMA04,
2IFC,21,0,21,0,5,-1,correct answer,0.467568999855,True,False,stimulusRAMA04_2IFC_2019_Jun_12_1228_793,stimulusRAMA04_2IFC_2019_Jun_12_1228_794,True,2019_Jun_12_1228,2IFC,3,RAMA04,
2IFC,22,0,22,0,9.7,-1,correct answer,0.133922700072,True,False,stimulusRAMA04_2IFC_2019_Jun_12_1228_795,stimulusRAMA04_2IFC_2019_Jun_12_1228_796,True,2019_Jun_12_1228,2IFC,3,RAMA04,
2IFC,23,0,23,0,5,-1,correct answer,0.600638800068,True,False,stimulusRAMA04_2IFC_2019_Jun_12_1228_797,stimulusRAMA04_2IFC_2019_Jun_12_1228_798,True,2019_Jun_12_1228,2IFC,3,RAMA04,
2IFC,24,0,24,0,8.2,-1,correct answer,0.300604499876,True,False,stimulusRAMA04_2IFC_2019_Jun_12_1228_799,stimulusRAMA04_2IFC_2019_Jun_12_1228_800,True,2019_Jun_12_1228,2IFC,3,RAMA04,
2IFC,25,0,25,0,8.2,-1,correct answer,0.434207299957,False,True,stimulusRAMA04_2IFC_2019_Jun_12_1228_801,stimulusRAMA04_2IFC_2019_Jun_12_1228_802,True,2019_Jun_12_1228,2IFC,3,RAMA04,
2IFC,26,0,26,0,9.7,-1,correct answer,0.100343999919,True,False,stimulusRAMA04_2IFC_2019_Jun_12_1228_803,stimulusRAMA04_2IFC_2019_Jun_12_1228_804,True,2019_Jun_12_1228,2IFC,3,RAMA04,
2IFC,27,0,27,0,9.7,-1,correct answer,0.301696500042,True,False,stimulusRAMA04_2IFC_2019_Jun_12_1228_805,stimulusRAMA04_2IFC_2019_Jun_12_1228_806,True,2019_Jun_12_1228,2IFC,3,RAMA04,
2IFC,28,0,28,0,3.8,-1,correct answer,0.365778799867,True,False,stimulusRAMA04_2IFC_2019_Jun_12_1228_807,stimulusRAMA04_2IFC_2019_Jun_12_1228_808,True,2019_Jun_12_1228,2IFC,3,RAMA04,
2IFC,29,0,29,0,8.2,-1,correct answer,0.300648999866,False,True,stimulusRAMA04_2IFC_2019_Jun_12_1228_809,stimulusRAMA04_2IFC_2019_Jun_12_1228_810,True,2019_Jun_12_1228,2IFC,3,RAMA04,
2IFC,30,0,30,0,2.5,-1,correct answer,0.533743399894,True,False,stimulusRAMA04_2IFC_2019_Jun_12_1228_811,stimulusRAMA04_2IFC_2019_Jun_12_1228_812,True,2019_Jun_12_1228,2IFC,3,RAMA04,
2IFC,31,0,31,0,2.6,-1,correct answer,0.533703499939,True,False,stimulusRAMA04_2IFC_2019_Jun_12_1228_813,stimulusRAMA04_2IFC_2019_Jun_12_1228_814,True,2019_Jun_12_1228,2IFC,3,RAMA04,
2IFC,32,0,32,0,6,-1,correct answer,0.605182399973,False,True,stimulusRAMA04_2IFC_2019_Jun_12_1228_815,stimulusRAMA04_2IFC_2019_Jun_12_1228_816,True,2019_Jun_12_1228,2IFC,3,RAMA04,
2IFC,33,0,33,0,5,-1,correct answer,0.599858300062,False,True,stimulusRAMA04_2IFC_2019_Jun_12_1228_817,stimulusRAMA04_2IFC_2019_Jun_12_1228_818,True,2019_Jun_12_1228,2IFC,3,RAMA04,
2IFC,34,0,34,0,7,-1,correct answer,0.800704499939,True,False,stimulusRAMA04_2IFC_2019_Jun_12_1228_819,stimulusRAMA04_2IFC_2019_Jun_12_1228_820,True,2019_Jun_12_1228,2IFC,3,RAMA04,
2IFC,35,0,35,0,2.5,-1,wrong answer,0.566911300179,False,True,stimulusRAMA04_2IFC_2019_Jun_12_1228_821,stimulusRAMA04_2IFC_2019_Jun_12_1228_822,True,2019_Jun_12_1228,2IFC,3,RAMA04,
2IFC,36,0,36,0,5,-1,correct answer,0.468201100128,False,True,stimulusRAMA04_2IFC_2019_Jun_12_1228_823,stimulusRAMA04_2IFC_2019_Jun_12_1228_824,True,2019_Jun_12_1228,2IFC,3,RAMA04,
2IFC,37,0,37,0,6,-1,wrong answer,0.500637199963,True,False,stimulusRAMA04_2IFC_2019_Jun_12_1228_825,stimulusRAMA04_2IFC_2019_Jun_12_1228_826,True,2019_Jun_12_1228,2IFC,3,RAMA04,
2IFC,38,0,38,0,2.5,-1,correct answer,0.470285000047,True,False,stimulusRAMA04_2IFC_2019_Jun_12_1228_827,stimulusRAMA04_2IFC_2019_Jun_12_1228_828,True,2019_Jun_12_1228,2IFC,3,RAMA04,
2IFC,39,0,39,0,6,-1,correct answer,0.366924399976,False,True,stimulusRAMA04_2IFC_2019_Jun_12_1228_829,stimulusRAMA04_2IFC_2019_Jun_12_1228_830,True,2019_Jun_12_1228,2IFC,3,RAMA04,
2IFC,40,0,40,0,5,-1,wrong answer,0.669504600111,True,False,stimulusRAMA04_2IFC_2019_Jun_12_1228_831,stimulusRAMA04_2IFC_2019_Jun_12_1228_832,True,2019_Jun_12_1228,2IFC,3,RAMA04,
2IFC,41,0,41,0,8.2,-1,no answer,-1,True,False,stimulusRAMA04_2IFC_2019_Jun_12_1228_833,stimulusRAMA04_2IFC_2019_Jun_12_1228_834,True,2019_Jun_12_1228,2IFC,3,RAMA04,
2IFC,42,0,42,0,9.7,-1,correct answer,0.300145300105,True,False,stimulusRAMA04_2IFC_2019_Jun_12_1228_835,stimulusRAMA04_2IFC_2019_Jun_12_1228_836,True,2019_Jun_12_1228,2IFC,3,RAMA04,
2IFC,43,0,43,0,7,-1,wrong answer,0.400682099862,True,False,stimulusRAMA04_2IFC_2019_Jun_12_1228_837,stimulusRAMA04_2IFC_2019_Jun_12_1228_838,True,2019_Jun_12_1228,2IFC,3,RAMA04,
2IFC,44,0,44,0,2.5,-1,correct answer,0.367047200212,False,True,stimulusRAMA04_2IFC_2019_Jun_12_1228_839,stimulusRAMA04_2IFC_2019_Jun_12_1228_840,True,2019_Jun_12_1228,2IFC,3,RAMA04,
2IFC,45,0,45,0,7,-1,correct answer,0.436965500005,False,True,stimulusRAMA04_2IFC_2019_Jun_12_1228_841,stimulusRAMA04_2IFC_2019_Jun_12_1228_842,True,2019_Jun_12_1228,2IFC,3,RAMA04,
2IFC,46,0,46,0,9.7,-1,correct answer,0.167050299933,True,False,stimulusRAMA04_2IFC_2019_Jun_12_1228_843,stimulusRAMA04_2IFC_2019_Jun_12_1228_844,True,2019_Jun_12_1228,2IFC,3,RAMA04,
2IFC,47,0,47,0,6,-1,correct answer,0.400946300011,False,True,stimulusRAMA04_2IFC_2019_Jun_12_1228_845,stimulusRAMA04_2IFC_2019_Jun_12_1228_846,True,2019_Jun_12_1228,2IFC,3,RAMA04,
2IFC,48,0,48,0,5,-1,correct answer,0.367446799995,False,True,stimulusRAMA04_2IFC_2019_Jun_12_1228_847,stimulusRAMA04_2IFC_2019_Jun_12_1228_848,True,2019_Jun_12_1228,2IFC,3,RAMA04,
2IFC,49,0,49,0,6,-1,correct answer,0.433498299913,False,True,stimulusRAMA04_2IFC_2019_Jun_12_1228_849,stimulusRAMA04_2IFC_2019_Jun_12_1228_850,True,2019_Jun_12_1228,2IFC,3,RAMA04,
2IFC,50,0,50,0,9.7,-1,correct answer,0.33411940001,False,True,stimulusRAMA04_2IFC_2019_Jun_12_1228_851,stimulusRAMA04_2IFC_2019_Jun_12_1228_852,True,2019_Jun_12_1228,2IFC,3,RAMA04,
2IFC,51,0,51,0,5,-1,correct answer,0.33367660013,False,True,stimulusRAMA04_2IFC_2019_Jun_12_1228_853,stimulusRAMA04_2IFC_2019_Jun_12_1228_854,True,2019_Jun_12_1228,2IFC,3,RAMA04,
2IFC,52,0,52,0,5,-1,wrong answer,0.404343100032,True,False,stimulusRAMA04_2IFC_2019_Jun_12_1228_855,stimulusRAMA04_2IFC_2019_Jun_12_1228_856,True,2019_Jun_12_1228,2IFC,3,RAMA04,
2IFC,53,0,53,0,3.8,-1,correct answer,0.300687500043,False,True,stimulusRAMA04_2IFC_2019_Jun_12_1228_857,stimulusRAMA04_2IFC_2019_Jun_12_1228_858,True,2019_Jun_12_1228,2IFC,3,RAMA04,
2IFC,54,0,54,0,6,-1,correct answer,0.400326400064,False,True,stimulusRAMA04_2IFC_2019_Jun_12_1228_859,stimulusRAMA04_2IFC_2019_Jun_12_1228_860,True,2019_Jun_12_1228,2IFC,3,RAMA04,
2IFC,55,0,55,0,3.8,-1,wrong answer,0.399743000045,True,False,stimulusRAMA04_2IFC_2019_Jun_12_1228_861,stimulusRAMA04_2IFC_2019_Jun_12_1228_862,True,2019_Jun_12_1228,2IFC,3,RAMA04,
2IFC,56,0,56,0,7,-1,correct answer,0.4341254998,False,True,stimulusRAMA04_2IFC_2019_Jun_12_1228_863,stimulusRAMA04_2IFC_2019_Jun_12_1228_864,True,2019_Jun_12_1228,2IFC,3,RAMA04,
2IFC,57,0,57,0,2.6,-1,correct answer,0.53282170021,True,False,stimulusRAMA04_2IFC_2019_Jun_12_1228_865,stimulusRAMA04_2IFC_2019_Jun_12_1228_866,True,2019_Jun_12_1228,2IFC,3,RAMA04,
2IFC,58,0,58,0,5,-1,correct answer,0.333669000072,False,True,stimulusRAMA04_2IFC_2019_Jun_12_1228_867,stimulusRAMA04_2IFC_2019_Jun_12_1228_868,True,2019_Jun_12_1228,2IFC,3,RAMA04,
2IFC,59,0,59,0,7,-1,correct answer,0.500444800127,True,False,stimulusRAMA04_2IFC_2019_Jun_12_1228_869,stimulusRAMA04_2IFC_2019_Jun_12_1228_870,True,2019_Jun_12_1228,2IFC,3,RAMA04,
2IFC,60,0,60,0,2.6,-1,correct answer,0.301114899805,False,True,stimulusRAMA04_2IFC_2019_Jun_12_1228_871,stimulusRAMA04_2IFC_2019_Jun_12_1228_872,True,2019_Jun_12_1228,2IFC,3,RAMA04,
2IFC,61,0,61,0,5,-1,wrong answer,0.667391199851,True,False,stimulusRAMA04_2IFC_2019_Jun_12_1228_873,stimulusRAMA04_2IFC_2019_Jun_12_1228_874,True,2019_Jun_12_1228,2IFC,3,RAMA04,
2IFC,62,0,62,0,6,-1,correct answer,0.367040199926,False,True,stimulusRAMA04_2IFC_2019_Jun_12_1228_875,stimulusRAMA04_2IFC_2019_Jun_12_1228_876,True,2019_Jun_12_1228,2IFC,3,RAMA04,
2IFC,63,0,63,0,9.7,-1,correct answer,0.535716400016,False,True,stimulusRAMA04_2IFC_2019_Jun_12_1228_877,stimulusRAMA04_2IFC_2019_Jun_12_1228_878,True,2019_Jun_12_1228,2IFC,3,RAMA04,
2IFC,64,0,64,0,6,-1,correct answer,0.267363700084,True,False,stimulusRAMA04_2IFC_2019_Jun_12_1228_879,stimulusRAMA04_2IFC_2019_Jun_12_1228_880,True,2019_Jun_12_1228,2IFC,3,RAMA04,
2IFC,65,0,65,0,2.5,-1,correct answer,0.601411900017,True,False,stimulusRAMA04_2IFC_2019_Jun_12_1228_881,stimulusRAMA04_2IFC_2019_Jun_12_1228_882,True,2019_Jun_12_1228,2IFC,3,RAMA04,
2IFC,66,0,66,0,8.2,-1,correct answer,0.368294100044,True,False,stimulusRAMA04_2IFC_2019_Jun_12_1228_883,stimulusRAMA04_2IFC_2019_Jun_12_1228_884,True,2019_Jun_12_1228,2IFC,3,RAMA04,
2IFC,67,0,67,0,9.7,-1,correct answer,0.66745790001,False,True,stimulusRAMA04_2IFC_2019_Jun_12_1228_885,stimulusRAMA04_2IFC_2019_Jun_12_1228_886,True,2019_Jun_12_1228,2IFC,3,RAMA04,
2IFC,68,0,68,0,9.7,-1,correct answer,0.467153300066,False,True,stimulusRAMA04_2IFC_2019_Jun_12_1228_887,stimulusRAMA04_2IFC_2019_Jun_12_1228_888,True,2019_Jun_12_1228,2IFC,3,RAMA04,
2IFC,69,0,69,0,2.5,-1,correct answer,0.634784199996,False,True,stimulusRAMA04_2IFC_2019_Jun_12_1228_889,stimulusRAMA04_2IFC_2019_Jun_12_1228_890,True,2019_Jun_12_1228,2IFC,3,RAMA04,
2IFC,70,0,70,0,6,-1,correct answer,0.33378440002,False,True,stimulusRAMA04_2IFC_2019_Jun_12_1228_891,stimulusRAMA04_2IFC_2019_Jun_12_1228_892,True,2019_Jun_12_1228,2IFC,3,RAMA04,
2IFC,71,0,71,0,3.8,-1,wrong answer,0.533556399867,True,False,stimulusRAMA04_2IFC_2019_Jun_12_1228_893,stimulusRAMA04_2IFC_2019_Jun_12_1228_894,True,2019_Jun_12_1228,2IFC,3,RAMA04,
2IFC,72,0,72,0,3.8,-1,correct answer,0.400609500008,False,True,stimulusRAMA04_2IFC_2019_Jun_12_1228_895,stimulusRAMA04_2IFC_2019_Jun_12_1228_896,True,2019_Jun_12_1228,2IFC,3,RAMA04,
2IFC,73,0,73,0,2.6,-1,correct answer,0.500866099959,False,True,stimulusRAMA04_2IFC_2019_Jun_12_1228_897,stimulusRAMA04_2IFC_2019_Jun_12_1228_898,True,2019_Jun_12_1228,2IFC,3,RAMA04,
2IFC,74,0,74,0,9.7,-1,correct answer,0.4336778,False,True,stimulusRAMA04_2IFC_2019_Jun_12_1228_899,stimulusRAMA04_2IFC_2019_Jun_12_1228_900,True,2019_Jun_12_1228,2IFC,3,RAMA04,
2IFC,0,0,0,0,6,-1,correct answer,0.400720600039,True,False,stimulusRAMA04_2IFC_2019_Jun_12_1228_901,stimulusRAMA04_2IFC_2019_Jun_12_1228_902,True,2019_Jun_12_1228,2IFC,3,RAMA04,
2IFC,1,0,1,0,3.8,-1,wrong answer,0.363930100109,True,False,stimulusRAMA04_2IFC_2019_Jun_12_1228_903,stimulusRAMA04_2IFC_2019_Jun_12_1228_904,True,2019_Jun_12_1228,2IFC,3,RAMA04,
2IFC,2,0,2,0,8.2,-1,correct answer,0.300868000137,True,False,stimulusRAMA04_2IFC_2019_Jun_12_1228_905,stimulusRAMA04_2IFC_2019_Jun_12_1228_906,True,2019_Jun_12_1228,2IFC,3,RAMA04,
2IFC,3,0,3,0,2.6,-1,wrong answer,0.433677599998,True,False,stimulusRAMA04_2IFC_2019_Jun_12_1228_907,stimulusRAMA04_2IFC_2019_Jun_12_1228_908,True,2019_Jun_12_1228,2IFC,3,RAMA04,
2IFC,4,0,4,0,3.8,-1,wrong answer,0.300642200047,True,False,stimulusRAMA04_2IFC_2019_Jun_12_1228_909,stimulusRAMA04_2IFC_2019_Jun_12_1228_910,True,2019_Jun_12_1228,2IFC,3,RAMA04,
2IFC,5,0,5,0,5,-1,correct answer,0.199919000035,True,False,stimulusRAMA04_2IFC_2019_Jun_12_1228_911,stimulusRAMA04_2IFC_2019_Jun_12_1228_912,True,2019_Jun_12_1228,2IFC,3,RAMA04,
2IFC,6,0,6,0,8.2,-1,correct answer,0.567434600089,False,True,stimulusRAMA04_2IFC_2019_Jun_12_1228_913,stimulusRAMA04_2IFC_2019_Jun_12_1228_914,True,2019_Jun_12_1228,2IFC,3,RAMA04,
2IFC,7,0,7,0,9.7,-1,correct answer,0.367158199893,False,True,stimulusRAMA04_2IFC_2019_Jun_12_1228_915,stimulusRAMA04_2IFC_2019_Jun_12_1228_916,True,2019_Jun_12_1228,2IFC,3,RAMA04,
2IFC,8,0,8,0,3.8,-1,correct answer,0.366115899989,False,True,stimulusRAMA04_2IFC_2019_Jun_12_1228_917,stimulusRAMA04_2IFC_2019_Jun_12_1228_918,True,2019_Jun_12_1228,2IFC,3,RAMA04,
2IFC,9,0,9,0,2.6,-1,correct answer,0.334202900063,False,True,stimulusRAMA04_2IFC_2019_Jun_12_1228_919,stimulusRAMA04_2IFC_2019_Jun_12_1228_920,True,2019_Jun_12_1228,2IFC,3,RAMA04,
2IFC,10,0,10,0,8.2,-1,correct answer,0.166952800006,True,False,stimulusRAMA04_2IFC_2019_Jun_12_1228_921,stimulusRAMA04_2IFC_2019_Jun_12_1228_922,True,2019_Jun_12_1228,2IFC,3,RAMA04,
2IFC,11,0,11,0,2.6,-1,correct answer,0.367259599967,True,False,stimulusRAMA04_2IFC_2019_Jun_12_1228_923,stimulusRAMA04_2IFC_2019_Jun_12_1228_924,True,2019_Jun_12_1228,2IFC,3,RAMA04,
2IFC,12,0,12,0,3.8,-1,wrong answer,0.267470699968,True,False,stimulusRAMA04_2IFC_2019_Jun_12_1228_925,stimulusRAMA04_2IFC_2019_Jun_12_1228_926,True,2019_Jun_12_1228,2IFC,3,RAMA04,
2IFC,13,0,13,0,6,-1,correct answer,0.16702329996,True,False,stimulusRAMA04_2IFC_2019_Jun_12_1228_927,stimulusRAMA04_2IFC_2019_Jun_12_1228_928,True,2019_Jun_12_1228,2IFC,3,RAMA04,
2IFC,14,0,14,0,5,-1,correct answer,0.534170599887,False,True,stimulusRAMA04_2IFC_2019_Jun_12_1228_929,stimulusRAMA04_2IFC_2019_Jun_12_1228_930,True,2019_Jun_12_1228,2IFC,3,RAMA04,
2IFC,15,0,15,0,6,-1,correct answer,0.266818499891,False,True,stimulusRAMA04_2IFC_2019_Jun_12_1228_931,stimulusRAMA04_2IFC_2019_Jun_12_1228_932,True,2019_Jun_12_1228,2IFC,3,RAMA04,
2IFC,16,0,16,0,2.5,-1,correct answer,0.367131899809,False,True,stimulusRAMA04_2IFC_2019_Jun_12_1228_933,stimulusRAMA04_2IFC_2019_Jun_12_1228_934,True,2019_Jun_12_1228,2IFC,3,RAMA04,
2IFC,17,0,17,0,9.7,-1,correct answer,0.333827000111,False,True,stimulusRAMA04_2IFC_2019_Jun_12_1228_935,stimulusRAMA04_2IFC_2019_Jun_12_1228_936,True,2019_Jun_12_1228,2IFC,3,RAMA04,
2IFC,18,0,18,0,9.7,-1,correct answer,0.132909300039,True,False,stimulusRAMA04_2IFC_2019_Jun_12_1228_937,stimulusRAMA04_2IFC_2019_Jun_12_1228_938,True,2019_Jun_12_1228,2IFC,3,RAMA04,
2IFC,19,0,19,0,5,-1,correct answer,0.300656100037,True,False,stimulusRAMA04_2IFC_2019_Jun_12_1228_939,stimulusRAMA04_2IFC_2019_Jun_12_1228_940,True,2019_Jun_12_1228,2IFC,3,RAMA04,
2IFC,20,0,20,0,2.6,-1,wrong answer,0.334627599921,True,False,stimulusRAMA04_2IFC_2019_Jun_12_1228_941,stimulusRAMA04_2IFC_2019_Jun_12_1228_942,True,2019_Jun_12_1228,2IFC,3,RAMA04,
2IFC,21,0,21,0,9.7,-1,correct answer,0.43417500006,False,True,stimulusRAMA04_2IFC_2019_Jun_12_1228_943,stimulusRAMA04_2IFC_2019_Jun_12_1228_944,True,2019_Jun_12_1228,2IFC,3,RAMA04,
2IFC,22,0,22,0,5,-1,wrong answer,0.402427700115,True,False,stimulusRAMA04_2IFC_2019_Jun_12_1228_945,stimulusRAMA04_2IFC_2019_Jun_12_1228_946,True,2019_Jun_12_1228,2IFC,3,RAMA04,
2IFC,23,0,23,0,8.2,-1,correct answer,0.567475100048,False,True,stimulusRAMA04_2IFC_2019_Jun_12_1228_947,stimulusRAMA04_2IFC_2019_Jun_12_1228_948,True,2019_Jun_12_1228,2IFC,3,RAMA04,
2IFC,24,0,24,0,2.6,-1,correct answer,0.53435750003,False,True,stimulusRAMA04_2IFC_2019_Jun_12_1228_949,stimulusRAMA04_2IFC_2019_Jun_12_1228_950,True,2019_Jun_12_1228,2IFC,3,RAMA04,
2IFC,25,0,25,0,3.8,-1,correct answer,0.698909400031,False,True,stimulusRAMA04_2IFC_2019_Jun_12_1228_951,stimulusRAMA04_2IFC_2019_Jun_12_1228_952,True,2019_Jun_12_1228,2IFC,3,RAMA04,
2IFC,26,0,26,0,5,-1,correct answer,0.600886400091,False,True,stimulusRAMA04_2IFC_2019_Jun_12_1228_953,stimulusRAMA04_2IFC_2019_Jun_12_1228_954,True,2019_Jun_12_1228,2IFC,3,RAMA04,
2IFC,27,0,27,0,8.2,-1,correct answer,0.534269599942,True,False,stimulusRAMA04_2IFC_2019_Jun_12_1228_955,stimulusRAMA04_2IFC_2019_Jun_12_1228_956,True,2019_Jun_12_1228,2IFC,3,RAMA04,
2IFC,28,0,28,0,8.2,-1,correct answer,0.334943700116,True,False,stimulusRAMA04_2IFC_2019_Jun_12_1228_957,stimulusRAMA04_2IFC_2019_Jun_12_1228_958,True,2019_Jun_12_1228,2IFC,3,RAMA04,
2IFC,29,0,29,0,5,-1,correct answer,0.498944699997,False,True,stimulusRAMA04_2IFC_2019_Jun_12_1228_959,stimulusRAMA04_2IFC_2019_Jun_12_1228_960,True,2019_Jun_12_1228,2IFC,3,RAMA04,
2IFC,30,0,30,0,8.2,-1,wrong answer,0.467070000013,True,False,stimulusRAMA04_2IFC_2019_Jun_12_1228_961,stimulusRAMA04_2IFC_2019_Jun_12_1228_962,True,2019_Jun_12_1228,2IFC,3,RAMA04,
2IFC,31,0,31,0,3.8,-1,wrong answer,0.366744300118,True,False,stimulusRAMA04_2IFC_2019_Jun_12_1228_963,stimulusRAMA04_2IFC_2019_Jun_12_1228_964,True,2019_Jun_12_1228,2IFC,3,RAMA04,
2IFC,32,0,32,0,5,-1,correct answer,0.434047600022,True,False,stimulusRAMA04_2IFC_2019_Jun_12_1228_965,stimulusRAMA04_2IFC_2019_Jun_12_1228_966,True,2019_Jun_12_1228,2IFC,3,RAMA04,
2IFC,33,0,33,0,2.5,-1,wrong answer,0.600829500007,False,True,stimulusRAMA04_2IFC_2019_Jun_12_1228_967,stimulusRAMA04_2IFC_2019_Jun_12_1228_968,True,2019_Jun_12_1228,2IFC,3,RAMA04,
2IFC,34,0,34,0,7,-1,correct answer,0.400427400135,False,True,stimulusRAMA04_2IFC_2019_Jun_12_1228_969,stimulusRAMA04_2IFC_2019_Jun_12_1228_970,True,2019_Jun_12_1228,2IFC,3,RAMA04,
2IFC,35,0,35,0,9.7,-1,correct answer,0.399715499952,False,True,stimulusRAMA04_2IFC_2019_Jun_12_1228_971,stimulusRAMA04_2IFC_2019_Jun_12_1228_972,True,2019_Jun_12_1228,2IFC,3,RAMA04,
2IFC,36,0,36,0,2.6,-1,correct answer,0.467186199967,False,True,stimulusRAMA04_2IFC_2019_Jun_12_1228_973,stimulusRAMA04_2IFC_2019_Jun_12_1228_974,True,2019_Jun_12_1228,2IFC,3,RAMA04,
2IFC,37,0,37,0,2.6,-1,correct answer,0.632504400099,True,False,stimulusRAMA04_2IFC_2019_Jun_12_1228_975,stimulusRAMA04_2IFC_2019_Jun_12_1228_976,True,2019_Jun_12_1228,2IFC,3,RAMA04,
2IFC,38,0,38,0,2.6,-1,correct answer,0.468121600104,True,False,stimulusRAMA04_2IFC_2019_Jun_12_1228_977,stimulusRAMA04_2IFC_2019_Jun_12_1228_978,True,2019_Jun_12_1228,2IFC,3,RAMA04,
2IFC,39,0,39,0,6,-1,correct answer,0.367107700091,True,False,stimulusRAMA04_2IFC_2019_Jun_12_1228_979,stimulusRAMA04_2IFC_2019_Jun_12_1228_980,True,2019_Jun_12_1228,2IFC,3,RAMA04,
2IFC,40,0,40,0,2.6,-1,correct answer,0.533833399881,True,False,stimulusRAMA04_2IFC_2019_Jun_12_1228_981,stimulusRAMA04_2IFC_2019_Jun_12_1228_982,True,2019_Jun_12_1228,2IFC,3,RAMA04,
2IFC,41,0,41,0,2.6,-1,correct answer,0.368061200017,False,True,stimulusRAMA04_2IFC_2019_Jun_12_1228_983,stimulusRAMA04_2IFC_2019_Jun_12_1228_984,True,2019_Jun_12_1228,2IFC,3,RAMA04,
2IFC,42,0,42,0,3.8,-1,correct answer,0.504107700195,True,False,stimulusRAMA04_2IFC_2019_Jun_12_1228_985,stimulusRAMA04_2IFC_2019_Jun_12_1228_986,True,2019_Jun_12_1228,2IFC,3,RAMA04,
2IFC,43,0,43,0,9.7,-1,correct answer,0.400978700025,True,False,stimulusRAMA04_2IFC_2019_Jun_12_1228_987,stimulusRAMA04_2IFC_2019_Jun_12_1228_988,True,2019_Jun_12_1228,2IFC,3,RAMA04,
2IFC,44,0,44,0,6,-1,wrong answer,0.433899099939,False,True,stimulusRAMA04_2IFC_2019_Jun_12_1228_989,stimulusRAMA04_2IFC_2019_Jun_12_1228_990,True,2019_Jun_12_1228,2IFC,3,RAMA04,
2IFC,45,0,45,0,7,-1,correct answer,0.533907399978,True,False,stimulusRAMA04_2IFC_2019_Jun_12_1228_991,stimulusRAMA04_2IFC_2019_Jun_12_1228_992,True,2019_Jun_12_1228,2IFC,3,RAMA04,
2IFC,46,0,46,0,8.2,-1,correct answer,0.369619800011,False,True,stimulusRAMA04_2IFC_2019_Jun_12_1228_993,stimulusRAMA04_2IFC_2019_Jun_12_1228_994,True,2019_Jun_12_1228,2IFC,3,RAMA04,
2IFC,47,0,47,0,8.2,-1,correct answer,0.101158099947,True,False,stimulusRAMA04_2IFC_2019_Jun_12_1228_995,stimulusRAMA04_2IFC_2019_Jun_12_1228_996,True,2019_Jun_12_1228,2IFC,3,RAMA04,
2IFC,48,0,48,0,6,-1,wrong answer,0.366885999916,False,True,stimulusRAMA04_2IFC_2019_Jun_12_1228_997,stimulusRAMA04_2IFC_2019_Jun_12_1228_998,True,2019_Jun_12_1228,2IFC,3,RAMA04,
2IFC,49,0,49,0,2.6,-1,correct answer,0.432705699932,False,True,stimulusRAMA04_2IFC_2019_Jun_12_1228_999,stimulusRAMA04_2IFC_2019_Jun_12_1228_1000,True,2019_Jun_12_1228,2IFC,3,RAMA04,
2IFC,50,0,50,0,6,-1,correct answer,0.399733399972,False,True,stimulusRAMA04_2IFC_2019_Jun_12_1228_1001,stimulusRAMA04_2IFC_2019_Jun_12_1228_1002,True,2019_Jun_12_1228,2IFC,3,RAMA04,
2IFC,51,0,51,0,7,-1,correct answer,0.200280599995,True,False,stimulusRAMA04_2IFC_2019_Jun_12_1228_1003,stimulusRAMA04_2IFC_2019_Jun_12_1228_1004,True,2019_Jun_12_1228,2IFC,3,RAMA04,
2IFC,52,0,52,0,2.6,-1,wrong answer,0.733769800048,False,True,stimulusRAMA04_2IFC_2019_Jun_12_1228_1005,stimulusRAMA04_2IFC_2019_Jun_12_1228_1006,True,2019_Jun_12_1228,2IFC,3,RAMA04,
2IFC,53,0,53,0,6,-1,correct answer,0.0339498000685,True,False,stimulusRAMA04_2IFC_2019_Jun_12_1228_1007,stimulusRAMA04_2IFC_2019_Jun_12_1228_1008,True,2019_Jun_12_1228,2IFC,3,RAMA04,
2IFC,54,0,54,0,2.5,-1,correct answer,0.699078500038,False,True,stimulusRAMA04_2IFC_2019_Jun_12_1228_1009,stimulusRAMA04_2IFC_2019_Jun_12_1228_1010,True,2019_Jun_12_1228,2IFC,3,RAMA04,
2IFC,55,0,55,0,3.8,-1,correct answer,0.468584399903,False,True,stimulusRAMA04_2IFC_2019_Jun_12_1228_1011,stimulusRAMA04_2IFC_2019_Jun_12_1228_1012,True,2019_Jun_12_1228,2IFC,3,RAMA04,
2IFC,56,0,56,0,7,-1,correct answer,0.467339799972,False,True,stimulusRAMA04_2IFC_2019_Jun_12_1228_1013,stimulusRAMA04_2IFC_2019_Jun_12_1228_1014,True,2019_Jun_12_1228,2IFC,3,RAMA04,
2IFC,57,0,57,0,2.5,-1,correct answer,0.366974100005,False,True,stimulusRAMA04_2IFC_2019_Jun_12_1228_1015,stimulusRAMA04_2IFC_2019_Jun_12_1228_1016,True,2019_Jun_12_1228,2IFC,3,RAMA04,
2IFC,58,0,58,0,2.6,-1,wrong answer,0.468095600139,True,False,stimulusRAMA04_2IFC_2019_Jun_12_1228_1017,stimulusRAMA04_2IFC_2019_Jun_12_1228_1018,True,2019_Jun_12_1228,2IFC,3,RAMA04,
2IFC,59,0,59,0,9.7,-1,correct answer,0.467475899961,False,True,stimulusRAMA04_2IFC_2019_Jun_12_1228_1019,stimulusRAMA04_2IFC_2019_Jun_12_1228_1020,True,2019_Jun_12_1228,2IFC,3,RAMA04,
2IFC,60,0,60,0,5,-1,wrong answer,0.667346099857,True,False,stimulusRAMA04_2IFC_2019_Jun_12_1228_1021,stimulusRAMA04_2IFC_2019_Jun_12_1228_1022,True,2019_Jun_12_1228,2IFC,3,RAMA04,
2IFC,61,0,61,0,8.2,-1,correct answer,0.433831500122,True,False,stimulusRAMA04_2IFC_2019_Jun_12_1228_1023,stimulusRAMA04_2IFC_2019_Jun_12_1228_1024,True,2019_Jun_12_1228,2IFC,3,RAMA04,
2IFC,62,0,62,0,6,-1,correct answer,0.300979700172,False,True,stimulusRAMA04_2IFC_2019_Jun_12_1228_1025,stimulusRAMA04_2IFC_2019_Jun_12_1228_1026,True,2019_Jun_12_1228,2IFC,3,RAMA04,
2IFC,63,0,63,0,5,-1,correct answer,0.433951399988,False,True,stimulusRAMA04_2IFC_2019_Jun_12_1228_1027,stimulusRAMA04_2IFC_2019_Jun_12_1228_1028,True,2019_Jun_12_1228,2IFC,3,RAMA04,
2IFC,64,0,64,0,9.7,-1,correct answer,0.467884799931,False,True,stimulusRAMA04_2IFC_2019_Jun_12_1228_1029,stimulusRAMA04_2IFC_2019_Jun_12_1228_1030,True,2019_Jun_12_1228,2IFC,3,RAMA04,
2IFC,65,0,65,0,5,-1,correct answer,0.16722860001,True,False,stimulusRAMA04_2IFC_2019_Jun_12_1228_1031,stimulusRAMA04_2IFC_2019_Jun_12_1228_1032,True,2019_Jun_12_1228,2IFC,3,RAMA04,
2IFC,66,0,66,0,6,-1,correct answer,0.467178999912,False,True,stimulusRAMA04_2IFC_2019_Jun_12_1228_1033,stimulusRAMA04_2IFC_2019_Jun_12_1228_1034,True,2019_Jun_12_1228,2IFC,3,RAMA04,
2IFC,67,0,67,0,6,-1,correct answer,0.367691900115,False,True,stimulusRAMA04_2IFC_2019_Jun_12_1228_1035,stimulusRAMA04_2IFC_2019_Jun_12_1228_1036,True,2019_Jun_12_1228,2IFC,3,RAMA04,
2IFC,68,0,68,0,2.5,-1,correct answer,0.534024300054,False,True,stimulusRAMA04_2IFC_2019_Jun_12_1228_1037,stimulusRAMA04_2IFC_2019_Jun_12_1228_1038,True,2019_Jun_12_1228,2IFC,3,RAMA04,
2IFC,69,0,69,0,2.6,-1,correct answer,0.436398299877,False,True,stimulusRAMA04_2IFC_2019_Jun_12_1228_1039,stimulusRAMA04_2IFC_2019_Jun_12_1228_1040,True,2019_Jun_12_1228,2IFC,3,RAMA04,
2IFC,70,0,70,0,2.5,-1,correct answer,0.433822599938,False,True,stimulusRAMA04_2IFC_2019_Jun_12_1228_1041,stimulusRAMA04_2IFC_2019_Jun_12_1228_1042,True,2019_Jun_12_1228,2IFC,3,RAMA04,
2IFC,71,0,71,0,6,-1,correct answer,0.299670099979,True,False,stimulusRAMA04_2IFC_2019_Jun_12_1228_1043,stimulusRAMA04_2IFC_2019_Jun_12_1228_1044,True,2019_Jun_12_1228,2IFC,3,RAMA04,
2IFC,72,0,72,0,2.6,-1,wrong answer,0.333923200145,True,False,stimulusRAMA04_2IFC_2019_Jun_12_1228_1045,stimulusRAMA04_2IFC_2019_Jun_12_1228_1046,True,2019_Jun_12_1228,2IFC,3,RAMA04,
2IFC,73,0,73,0,9.7,-1,correct answer,0.133417400066,True,False,stimulusRAMA04_2IFC_2019_Jun_12_1228_1047,stimulusRAMA04_2IFC_2019_Jun_12_1228_1048,True,2019_Jun_12_1228,2IFC,3,RAMA04,
2IFC,74,0,74,0,6,-1,correct answer,0.300365200033,True,False,stimulusRAMA04_2IFC_2019_Jun_12_1228_1049,stimulusRAMA04_2IFC_2019_Jun_12_1228_1050,True,2019_Jun_12_1228,2IFC,3,RAMA04,
2IFC,0,0,0,0,3.8,-1,correct answer,0.267421100056,True,False,stimulusRAMA04_2IFC_2019_Jun_12_1228_1051,stimulusRAMA04_2IFC_2019_Jun_12_1228_1052,True,2019_Jun_12_1228,2IFC,3,RAMA04,
2IFC,1,0,1,0,7,-1,wrong answer,0.334287799895,False,True,stimulusRAMA04_2IFC_2019_Jun_12_1228_1053,stimulusRAMA04_2IFC_2019_Jun_12_1228_1054,True,2019_Jun_12_1228,2IFC,3,RAMA04,
2IFC,2,0,2,0,8.2,-1,correct answer,0.034480900038,True,False,stimulusRAMA04_2IFC_2019_Jun_12_1228_1055,stimulusRAMA04_2IFC_2019_Jun_12_1228_1056,True,2019_Jun_12_1228,2IFC,3,RAMA04,
2IFC,3,0,3,0,5,-1,correct answer,0.333938499913,False,True,stimulusRAMA04_2IFC_2019_Jun_12_1228_1057,stimulusRAMA04_2IFC_2019_Jun_12_1228_1058,True,2019_Jun_12_1228,2IFC,3,RAMA04,
2IFC,4,0,4,0,6,-1,correct answer,0.333797500003,False,True,stimulusRAMA04_2IFC_2019_Jun_12_1228_1059,stimulusRAMA04_2IFC_2019_Jun_12_1228_1060,True,2019_Jun_12_1228,2IFC,3,RAMA04,
2IFC,5,0,5,0,7,-1,correct answer,0.334159600083,False,True,stimulusRAMA04_2IFC_2019_Jun_12_1228_1061,stimulusRAMA04_2IFC_2019_Jun_12_1228_1062,True,2019_Jun_12_1228,2IFC,3,RAMA04,
2IFC,6,0,6,0,8.2,-1,correct answer,0.100333800074,True,False,stimulusRAMA04_2IFC_2019_Jun_12_1228_1063,stimulusRAMA04_2IFC_2019_Jun_12_1228_1064,True,2019_Jun_12_1228,2IFC,3,RAMA04,
2IFC,7,0,7,0,2.6,-1,correct answer,0.400205800077,False,True,stimulusRAMA04_2IFC_2019_Jun_12_1228_1065,stimulusRAMA04_2IFC_2019_Jun_12_1228_1066,True,2019_Jun_12_1228,2IFC,3,RAMA04,
2IFC,8,0,8,0,8.2,-1,correct answer,0.333036799915,False,True,stimulusRAMA04_2IFC_2019_Jun_12_1228_1067,stimulusRAMA04_2IFC_2019_Jun_12_1228_1068,True,2019_Jun_12_1228,2IFC,3,RAMA04,
2IFC,9,0,9,0,3.8,-1,correct answer,0.200937400106,True,False,stimulusRAMA04_2IFC_2019_Jun_12_1228_1069,stimulusRAMA04_2IFC_2019_Jun_12_1228_1070,True,2019_Jun_12_1228,2IFC,3,RAMA04,
2IFC,10,0,10,0,6,-1,correct answer,0.266961500049,True,False,stimulusRAMA04_2IFC_2019_Jun_12_1228_1071,stimulusRAMA04_2IFC_2019_Jun_12_1228_1072,True,2019_Jun_12_1228,2IFC,3,RAMA04,
2IFC,11,0,11,0,6,-1,correct answer,0.233696800191,False,True,stimulusRAMA04_2IFC_2019_Jun_12_1228_1073,stimulusRAMA04_2IFC_2019_Jun_12_1228_1074,True,2019_Jun_12_1228,2IFC,3,RAMA04,
2IFC,12,0,12,0,3.8,-1,correct answer,0.300511599984,False,True,stimulusRAMA04_2IFC_2019_Jun_12_1228_1075,stimulusRAMA04_2IFC_2019_Jun_12_1228_1076,True,2019_Jun_12_1228,2IFC,3,RAMA04,
2IFC,13,0,13,0,2.5,-1,wrong answer,0.365939399926,True,False,stimulusRAMA04_2IFC_2019_Jun_12_1228_1077,stimulusRAMA04_2IFC_2019_Jun_12_1228_1078,True,2019_Jun_12_1228,2IFC,3,RAMA04,
2IFC,14,0,14,0,2.5,-1,wrong answer,0.500225299969,False,True,stimulusRAMA04_2IFC_2019_Jun_12_1228_1079,stimulusRAMA04_2IFC_2019_Jun_12_1228_1080,True,2019_Jun_12_1228,2IFC,3,RAMA04,
2IFC,15,0,15,0,3.8,-1,wrong answer,0.501751400065,True,False,stimulusRAMA04_2IFC_2019_Jun_12_1228_1081,stimulusRAMA04_2IFC_2019_Jun_12_1228_1082,True,2019_Jun_12_1228,2IFC,3,RAMA04,
2IFC,16,0,16,0,8.2,-1,correct answer,0.333651999943,False,True,stimulusRAMA04_2IFC_2019_Jun_12_1228_1083,stimulusRAMA04_2IFC_2019_Jun_12_1228_1084,True,2019_Jun_12_1228,2IFC,3,RAMA04,
2IFC,17,0,17,0,6,-1,wrong answer,0.3668796001,True,False,stimulusRAMA04_2IFC_2019_Jun_12_1228_1085,stimulusRAMA04_2IFC_2019_Jun_12_1228_1086,True,2019_Jun_12_1228,2IFC,3,RAMA04,
2IFC,18,0,18,0,3.8,-1,correct answer,0.402373099932,False,True,stimulusRAMA04_2IFC_2019_Jun_12_1228_1087,stimulusRAMA04_2IFC_2019_Jun_12_1228_1088,True,2019_Jun_12_1228,2IFC,3,RAMA04,
2IFC,19,0,19,0,2.5,-1,correct answer,0.333705600118,False,True,stimulusRAMA04_2IFC_2019_Jun_12_1228_1089,stimulusRAMA04_2IFC_2019_Jun_12_1228_1090,True,2019_Jun_12_1228,2IFC,3,RAMA04,
2IFC,20,0,20,0,2.6,-1,correct answer,0.73436370003,True,False,stimulusRAMA04_2IFC_2019_Jun_12_1228_1091,stimulusRAMA04_2IFC_2019_Jun_12_1228_1092,True,2019_Jun_12_1228,2IFC,3,RAMA04,
2IFC,21,0,21,0,2.5,-1,wrong answer,0.567088400014,True,False,stimulusRAMA04_2IFC_2019_Jun_12_1228_1093,stimulusRAMA04_2IFC_2019_Jun_12_1228_1094,True,2019_Jun_12_1228,2IFC,3,RAMA04,
2IFC,22,0,22,0,5,-1,correct answer,0.500622099964,True,False,stimulusRAMA04_2IFC_2019_Jun_12_1228_1095,stimulusRAMA04_2IFC_2019_Jun_12_1228_1096,True,2019_Jun_12_1228,2IFC,3,RAMA04,
2IFC,23,0,23,0,7,-1,correct answer,0.400703700026,False,True,stimulusRAMA04_2IFC_2019_Jun_12_1228_1097,stimulusRAMA04_2IFC_2019_Jun_12_1228_1098,True,2019_Jun_12_1228,2IFC,3,RAMA04,
2IFC,24,0,24,0,2.5,-1,wrong answer,0.400265699951,True,False,stimulusRAMA04_2IFC_2019_Jun_12_1228_1099,stimulusRAMA04_2IFC_2019_Jun_12_1228_1100,True,2019_Jun_12_1228,2IFC,3,RAMA04,
2IFC,25,0,25,0,3.8,-1,wrong answer,0.40039309999,True,False,stimulusRAMA04_2IFC_2019_Jun_12_1228_1101,stimulusRAMA04_2IFC_2019_Jun_12_1228_1102,True,2019_Jun_12_1228,2IFC,3,RAMA04,
2IFC,26,0,26,0,7,-1,correct answer,0.30065079988,True,False,stimulusRAMA04_2IFC_2019_Jun_12_1228_1103,stimulusRAMA04_2IFC_2019_Jun_12_1228_1104,True,2019_Jun_12_1228,2IFC,3,RAMA04,
2IFC,27,0,27,0,9.7,-1,correct answer,0.13430910022,True,False,stimulusRAMA04_2IFC_2019_Jun_12_1228_1105,stimulusRAMA04_2IFC_2019_Jun_12_1228_1106,True,2019_Jun_12_1228,2IFC,3,RAMA04,
