Task,trials.thisRepN,trials.thisTrialN,trials.thisN,trials.thisIndex,time_response_second,response_2IFCnew,response_key2Interval_2IFCnew,signal_intensity,constant Value,response,time_response,signal_on_stimuluspos1,signal_on_stimuluspos2,stimulus_name_pos1,stimulus_name_pos2,random_intensity,date,expName,session,participant,
2IFCnew,0,0,0,0,0.133853200125,1,No,7,-1,Hit,0.367759799818,True,False,stimulusRAMA04_2IFCnew_2019_Jun_12_1259_1,stimulusRAMA04_2IFCnew_2019_Jun_12_1259_2,True,2019_Jun_12_1259,2IFCnew,3,RAMA04,
2IFCnew,1,0,1,0,0.533982800087,3,No,7,-1,False Alarm,0.534004899906,False,True,stimulusRAMA04_2IFCnew_2019_Jun_12_1259_3,stimulusRAMA04_2IFCnew_2019_Jun_12_1259_4,True,2019_Jun_12_1259,2IFCnew,3,RAMA04,
2IFCnew,2,0,2,0,0.467451999895,1,No,2.6,-1,Hit,0.435052599991,True,False,stimulusRAMA04_2IFCnew_2019_Jun_12_1259_5,stimulusRAMA04_2IFCnew_2019_Jun_12_1259_6,True,2019_Jun_12_1259,2IFCnew,3,RAMA04,
2IFCnew,3,0,3,0,0.300193300005,1,No,5,-1,Hit,0.668380599935,True,False,stimulusRAMA04_2IFCnew_2019_Jun_12_1259_7,stimulusRAMA04_2IFCnew_2019_Jun_12_1259_8,True,2019_Jun_12_1259,2IFCnew,3,RAMA04,
2IFCnew,4,0,4,0,0.432749399915,5,Yes,6,-1,False Alarm,0.667316099862,False,True,stimulusRAMA04_2IFCnew_2019_Jun_12_1259_9,stimulusRAMA04_2IFCnew_2019_Jun_12_1259_10,True,2019_Jun_12_1259,2IFCnew,3,RAMA04,
2IFCnew,5,0,5,0,0.33383849985,1,No,2.6,-1,Hit,0.433137099957,True,False,stimulusRAMA04_2IFCnew_2019_Jun_12_1259_11,stimulusRAMA04_2IFCnew_2019_Jun_12_1259_12,True,2019_Jun_12_1259,2IFCnew,3,RAMA04,
2IFCnew,6,0,6,0,0.535067799967,3,No,7,-1,False Alarm,0.401203699876,False,True,stimulusRAMA04_2IFCnew_2019_Jun_12_1259_13,stimulusRAMA04_2IFCnew_2019_Jun_12_1259_14,True,2019_Jun_12_1259,2IFCnew,3,RAMA04,
2IFCnew,7,0,7,0,0.900802600197,5,Yes,7,-1,False Alarm,0.734094399959,False,True,stimulusRAMA04_2IFCnew_2019_Jun_12_1259_15,stimulusRAMA04_2IFCnew_2019_Jun_12_1259_16,True,2019_Jun_12_1259,2IFCnew,3,RAMA04,
2IFCnew,8,0,8,0,0.434837799985,2,Yes,2.5,-1,Correct Rejection,0.666948599974,False,True,stimulusRAMA04_2IFCnew_2019_Jun_12_1259_17,stimulusRAMA04_2IFCnew_2019_Jun_12_1259_18,True,2019_Jun_12_1259,2IFCnew,3,RAMA04,
2IFCnew,9,0,9,0,0.432368299924,2,Yes,2.6,-1,Correct Rejection,0.600633300142,False,True,stimulusRAMA04_2IFCnew_2019_Jun_12_1259_19,stimulusRAMA04_2IFCnew_2019_Jun_12_1259_20,True,2019_Jun_12_1259,2IFCnew,3,RAMA04,
2IFCnew,10,0,10,0,0.165296299849,1,No,8.2,-1,Hit,0.402043999871,True,False,stimulusRAMA04_2IFCnew_2019_Jun_12_1259_21,stimulusRAMA04_2IFCnew_2019_Jun_12_1259_22,True,2019_Jun_12_1259,2IFCnew,3,RAMA04,
2IFCnew,11,0,11,0,0.567339200061,3,No,2.6,-1,False Alarm,0.567273900146,False,True,stimulusRAMA04_2IFCnew_2019_Jun_12_1259_23,stimulusRAMA04_2IFCnew_2019_Jun_12_1259_24,True,2019_Jun_12_1259,2IFCnew,3,RAMA04,
2IFCnew,12,0,12,0,0.366926800227,1,No,2.6,-1,Hit,0.56734249997,True,False,stimulusRAMA04_2IFCnew_2019_Jun_12_1259_25,stimulusRAMA04_2IFCnew_2019_Jun_12_1259_26,True,2019_Jun_12_1259,2IFCnew,3,RAMA04,
2IFCnew,13,0,13,0,0.533991799923,2,Yes,2.6,-1,Correct Rejection,0.567155799828,False,True,stimulusRAMA04_2IFCnew_2019_Jun_12_1259_27,stimulusRAMA04_2IFCnew_2019_Jun_12_1259_28,True,2019_Jun_12_1259,2IFCnew,3,RAMA04,
2IFCnew,14,0,14,0,0.76752639981,3,No,6,-1,False Alarm,0.434138400014,False,True,stimulusRAMA04_2IFCnew_2019_Jun_12_1259_29,stimulusRAMA04_2IFCnew_2019_Jun_12_1259_30,True,2019_Jun_12_1259,2IFCnew,3,RAMA04,
2IFCnew,15,0,15,0,0.466959099984,2,Yes,9.7,-1,Correct Rejection,0.669392300071,False,True,stimulusRAMA04_2IFCnew_2019_Jun_12_1259_31,stimulusRAMA04_2IFCnew_2019_Jun_12_1259_32,True,2019_Jun_12_1259,2IFCnew,3,RAMA04,
2IFCnew,16,0,16,0,0.399152900092,1,No,8.2,-1,Hit,0.434041199973,True,False,stimulusRAMA04_2IFCnew_2019_Jun_12_1259_33,stimulusRAMA04_2IFCnew_2019_Jun_12_1259_34,True,2019_Jun_12_1259,2IFCnew,3,RAMA04,
2IFCnew,17,0,17,0,0.333394400077,2,Yes,9.7,-1,Correct Rejection,0.533678199863,False,True,stimulusRAMA04_2IFCnew_2019_Jun_12_1259_35,stimulusRAMA04_2IFCnew_2019_Jun_12_1259_36,True,2019_Jun_12_1259,2IFCnew,3,RAMA04,
2IFCnew,18,0,18,0,0.400370300049,2,Yes,2.5,-1,Correct Rejection,0.535025499994,False,True,stimulusRAMA04_2IFCnew_2019_Jun_12_1259_37,stimulusRAMA04_2IFCnew_2019_Jun_12_1259_38,True,2019_Jun_12_1259,2IFCnew,3,RAMA04,
2IFCnew,19,0,19,0,0.301160899922,1,No,8.2,-1,Hit,0.571228699991,True,False,stimulusRAMA04_2IFCnew_2019_Jun_12_1259_39,stimulusRAMA04_2IFCnew_2019_Jun_12_1259_40,True,2019_Jun_12_1259,2IFCnew,3,RAMA04,
2IFCnew,20,0,20,0,0.500524300151,1,No,2.6,-1,Hit,0.768050200073,True,False,stimulusRAMA04_2IFCnew_2019_Jun_12_1259_41,stimulusRAMA04_2IFCnew_2019_Jun_12_1259_42,True,2019_Jun_12_1259,2IFCnew,3,RAMA04,
2IFCnew,21,0,21,0,0.267182799987,2,Yes,2.5,-1,Correct Rejection,0.500269699842,False,True,stimulusRAMA04_2IFCnew_2019_Jun_12_1259_43,stimulusRAMA04_2IFCnew_2019_Jun_12_1259_44,True,2019_Jun_12_1259,2IFCnew,3,RAMA04,
2IFCnew,22,0,22,0,0.43199740001,2,Yes,3.8,-1,Correct Rejection,0.668495499995,False,True,stimulusRAMA04_2IFCnew_2019_Jun_12_1259_45,stimulusRAMA04_2IFCnew_2019_Jun_12_1259_46,True,2019_Jun_12_1259,2IFCnew,3,RAMA04,
2IFCnew,23,0,23,0,0.533681800123,3,No,8.2,-1,False Alarm,0.534369000001,False,True,stimulusRAMA04_2IFCnew_2019_Jun_12_1259_47,stimulusRAMA04_2IFCnew_2019_Jun_12_1259_48,True,2019_Jun_12_1259,2IFCnew,3,RAMA04,
2IFCnew,24,0,24,0,0.500724300044,2,Yes,2.5,-1,Correct Rejection,0.60097369994,False,True,stimulusRAMA04_2IFCnew_2019_Jun_12_1259_49,stimulusRAMA04_2IFCnew_2019_Jun_12_1259_50,True,2019_Jun_12_1259,2IFCnew,3,RAMA04,
2IFCnew,25,0,25,0,0.333545200061,1,No,6,-1,Hit,0.533855899936,True,False,stimulusRAMA04_2IFCnew_2019_Jun_12_1259_51,stimulusRAMA04_2IFCnew_2019_Jun_12_1259_52,True,2019_Jun_12_1259,2IFCnew,3,RAMA04,
2IFCnew,26,0,26,0,0.300206399988,2,Yes,8.2,-1,Correct Rejection,0.501658400055,False,True,stimulusRAMA04_2IFCnew_2019_Jun_12_1259_53,stimulusRAMA04_2IFCnew_2019_Jun_12_1259_54,True,2019_Jun_12_1259,2IFCnew,3,RAMA04,
2IFCnew,27,0,27,0,0.333734099986,1,No,6,-1,Hit,0.435205299873,True,False,stimulusRAMA04_2IFCnew_2019_Jun_12_1259_55,stimulusRAMA04_2IFCnew_2019_Jun_12_1259_56,True,2019_Jun_12_1259,2IFCnew,3,RAMA04,
2IFCnew,28,0,28,0,0.300050399965,4,Yes,2.6,-1,Miss,0.435129599879,True,False,stimulusRAMA04_2IFCnew_2019_Jun_12_1259_57,stimulusRAMA04_2IFCnew_2019_Jun_12_1259_58,True,2019_Jun_12_1259,2IFCnew,3,RAMA04,
2IFCnew,29,0,29,0,0.300342300208,5,Yes,2.5,-1,False Alarm,0.401319000171,False,True,stimulusRAMA04_2IFCnew_2019_Jun_12_1259_59,stimulusRAMA04_2IFCnew_2019_Jun_12_1259_60,True,2019_Jun_12_1259,2IFCnew,3,RAMA04,
2IFCnew,30,0,30,0,0.466667999979,2,Yes,2.5,-1,Correct Rejection,0.500520400004,False,True,stimulusRAMA04_2IFCnew_2019_Jun_12_1259_61,stimulusRAMA04_2IFCnew_2019_Jun_12_1259_62,True,2019_Jun_12_1259,2IFCnew,3,RAMA04,
2IFCnew,31,0,31,0,0.366657699924,4,Yes,2.5,-1,Miss,0.434003599919,True,False,stimulusRAMA04_2IFCnew_2019_Jun_12_1259_63,stimulusRAMA04_2IFCnew_2019_Jun_12_1259_64,True,2019_Jun_12_1259,2IFCnew,3,RAMA04,
2IFCnew,32,0,32,0,0.467081699986,1,No,8.2,-1,Hit,0.567332200008,True,False,stimulusRAMA04_2IFCnew_2019_Jun_12_1259_65,stimulusRAMA04_2IFCnew_2019_Jun_12_1259_66,True,2019_Jun_12_1259,2IFCnew,3,RAMA04,
2IFCnew,33,0,33,0,0.400374599965,5,Yes,9.7,-1,False Alarm,0.400673199911,False,True,stimulusRAMA04_2IFCnew_2019_Jun_12_1259_67,stimulusRAMA04_2IFCnew_2019_Jun_12_1259_68,True,2019_Jun_12_1259,2IFCnew,3,RAMA04,
2IFCnew,34,0,34,0,-1,3,Yes,3.8,-1,Correct Rejection,0.53419549996,False,True,stimulusRAMA04_2IFCnew_2019_Jun_12_1259_69,stimulusRAMA04_2IFCnew_2019_Jun_12_1259_70,True,2019_Jun_12_1259,2IFCnew,3,RAMA04,
2IFCnew,35,0,35,0,0.665867100004,4,Yes,5,-1,Miss,0.700906199869,True,False,stimulusRAMA04_2IFCnew_2019_Jun_12_1259_71,stimulusRAMA04_2IFCnew_2019_Jun_12_1259_72,True,2019_Jun_12_1259,2IFCnew,3,RAMA04,
2IFCnew,36,0,36,0,-1,4,Yes,3.8,-1,Miss,0.500807200093,True,False,stimulusRAMA04_2IFCnew_2019_Jun_12_1259_73,stimulusRAMA04_2IFCnew_2019_Jun_12_1259_74,True,2019_Jun_12_1259,2IFCnew,3,RAMA04,
2IFCnew,37,0,37,0,0.699556699954,3,No,6,-1,False Alarm,0.768207999878,False,True,stimulusRAMA04_2IFCnew_2019_Jun_12_1259_75,stimulusRAMA04_2IFCnew_2019_Jun_12_1259_76,True,2019_Jun_12_1259,2IFCnew,3,RAMA04,
2IFCnew,38,0,38,0,0.433837999823,4,Yes,2.6,-1,Miss,0.433767299866,True,False,stimulusRAMA04_2IFCnew_2019_Jun_12_1259_77,stimulusRAMA04_2IFCnew_2019_Jun_12_1259_78,True,2019_Jun_12_1259,2IFCnew,3,RAMA04,
2IFCnew,39,0,39,0,0.467024000129,2,Yes,2.6,-1,Correct Rejection,0.500444900012,False,True,stimulusRAMA04_2IFCnew_2019_Jun_12_1259_79,stimulusRAMA04_2IFCnew_2019_Jun_12_1259_80,True,2019_Jun_12_1259,2IFCnew,3,RAMA04,
2IFCnew,40,0,40,0,0.234085999895,6,No,6,-1,Miss,0.500502299983,True,False,stimulusRAMA04_2IFCnew_2019_Jun_12_1259_81,stimulusRAMA04_2IFCnew_2019_Jun_12_1259_82,True,2019_Jun_12_1259,2IFCnew,3,RAMA04,
2IFCnew,41,0,41,0,0.400799099822,2,Yes,3.8,-1,Correct Rejection,0.567141999956,False,True,stimulusRAMA04_2IFCnew_2019_Jun_12_1259_83,stimulusRAMA04_2IFCnew_2019_Jun_12_1259_84,True,2019_Jun_12_1259,2IFCnew,3,RAMA04,
2IFCnew,42,0,42,0,0.700504200067,2,Yes,2.6,-1,Correct Rejection,0.73322569998,False,True,stimulusRAMA04_2IFCnew_2019_Jun_12_1259_85,stimulusRAMA04_2IFCnew_2019_Jun_12_1259_86,True,2019_Jun_12_1259,2IFCnew,3,RAMA04,
2IFCnew,43,0,43,0,0.469123000046,4,Yes,2.6,-1,Miss,0.501455399906,True,False,stimulusRAMA04_2IFCnew_2019_Jun_12_1259_87,stimulusRAMA04_2IFCnew_2019_Jun_12_1259_88,True,2019_Jun_12_1259,2IFCnew,3,RAMA04,
2IFCnew,44,0,44,0,0.567369800061,2,Yes,5,-1,Correct Rejection,0.733577999985,False,True,stimulusRAMA04_2IFCnew_2019_Jun_12_1259_89,stimulusRAMA04_2IFCnew_2019_Jun_12_1259_90,True,2019_Jun_12_1259,2IFCnew,3,RAMA04,
2IFCnew,45,0,45,0,0.333578399848,3,No,9.7,-1,False Alarm,0.500521500129,False,True,stimulusRAMA04_2IFCnew_2019_Jun_12_1259_91,stimulusRAMA04_2IFCnew_2019_Jun_12_1259_92,True,2019_Jun_12_1259,2IFCnew,3,RAMA04,
2IFCnew,46,0,46,0,0.567702400032,1,No,5,-1,Hit,0.633663699962,True,False,stimulusRAMA04_2IFCnew_2019_Jun_12_1259_93,stimulusRAMA04_2IFCnew_2019_Jun_12_1259_94,True,2019_Jun_12_1259,2IFCnew,3,RAMA04,
2IFCnew,47,0,47,0,-1,4,No,3.8,-1,Miss,0.533966000192,True,False,stimulusRAMA04_2IFCnew_2019_Jun_12_1259_95,stimulusRAMA04_2IFCnew_2019_Jun_12_1259_96,True,2019_Jun_12_1259,2IFCnew,3,RAMA04,
2IFCnew,48,0,48,0,0.233751500025,5,Yes,6,-1,False Alarm,0.437440800015,False,True,stimulusRAMA04_2IFCnew_2019_Jun_12_1259_97,stimulusRAMA04_2IFCnew_2019_Jun_12_1259_98,True,2019_Jun_12_1259,2IFCnew,3,RAMA04,
2IFCnew,49,0,49,0,0.367669799831,2,Yes,7,-1,Correct Rejection,0.533445399953,False,True,stimulusRAMA04_2IFCnew_2019_Jun_12_1259_99,stimulusRAMA04_2IFCnew_2019_Jun_12_1259_100,True,2019_Jun_12_1259,2IFCnew,3,RAMA04,
2IFCnew,50,0,50,0,0.700901199831,6,No,2.5,-1,Miss,0.533821299905,True,False,stimulusRAMA04_2IFCnew_2019_Jun_12_1259_101,stimulusRAMA04_2IFCnew_2019_Jun_12_1259_102,True,2019_Jun_12_1259,2IFCnew,3,RAMA04,
2IFCnew,51,0,51,0,0.667306899792,1,No,2.5,-1,Hit,0.634125600103,True,False,stimulusRAMA04_2IFCnew_2019_Jun_12_1259_103,stimulusRAMA04_2IFCnew_2019_Jun_12_1259_104,True,2019_Jun_12_1259,2IFCnew,3,RAMA04,
2IFCnew,52,0,52,0,0.466256499989,2,Yes,7,-1,Correct Rejection,0.601246300153,False,True,stimulusRAMA04_2IFCnew_2019_Jun_12_1259_105,stimulusRAMA04_2IFCnew_2019_Jun_12_1259_106,True,2019_Jun_12_1259,2IFCnew,3,RAMA04,
2IFCnew,53,0,53,0,0.600608400069,5,Yes,7,-1,False Alarm,0.467195600038,False,True,stimulusRAMA04_2IFCnew_2019_Jun_12_1259_107,stimulusRAMA04_2IFCnew_2019_Jun_12_1259_108,True,2019_Jun_12_1259,2IFCnew,3,RAMA04,
2IFCnew,54,0,54,0,0.70019620005,1,No,2.6,-1,Hit,0.602853999939,True,False,stimulusRAMA04_2IFCnew_2019_Jun_12_1259_109,stimulusRAMA04_2IFCnew_2019_Jun_12_1259_110,True,2019_Jun_12_1259,2IFCnew,3,RAMA04,
2IFCnew,55,0,55,0,-1,4,No,2.6,-1,Miss,0.830811199965,True,False,stimulusRAMA04_2IFCnew_2019_Jun_12_1259_111,stimulusRAMA04_2IFCnew_2019_Jun_12_1259_112,True,2019_Jun_12_1259,2IFCnew,3,RAMA04,
2IFCnew,56,0,56,0,0.733120999997,1,No,9.7,-1,Hit,0.434161399957,True,False,stimulusRAMA04_2IFCnew_2019_Jun_12_1259_113,stimulusRAMA04_2IFCnew_2019_Jun_12_1259_114,True,2019_Jun_12_1259,2IFCnew,3,RAMA04,
2IFCnew,57,0,57,0,0.767651300179,4,Yes,3.8,-1,Miss,0.600748499855,True,False,stimulusRAMA04_2IFCnew_2019_Jun_12_1259_115,stimulusRAMA04_2IFCnew_2019_Jun_12_1259_116,True,2019_Jun_12_1259,2IFCnew,3,RAMA04,
2IFCnew,58,0,58,0,0.433884199942,2,Yes,6,-1,Correct Rejection,0.534695700044,False,True,stimulusRAMA04_2IFCnew_2019_Jun_12_1259_117,stimulusRAMA04_2IFCnew_2019_Jun_12_1259_118,True,2019_Jun_12_1259,2IFCnew,3,RAMA04,
2IFCnew,59,0,59,0,0.500339800026,2,Yes,8.2,-1,Correct Rejection,0.634037700016,False,True,stimulusRAMA04_2IFCnew_2019_Jun_12_1259_119,stimulusRAMA04_2IFCnew_2019_Jun_12_1259_120,True,2019_Jun_12_1259,2IFCnew,3,RAMA04,
2IFCnew,60,0,60,0,0.566833999939,1,No,6,-1,Hit,0.566812000005,True,False,stimulusRAMA04_2IFCnew_2019_Jun_12_1259_121,stimulusRAMA04_2IFCnew_2019_Jun_12_1259_122,True,2019_Jun_12_1259,2IFCnew,3,RAMA04,
2IFCnew,61,0,61,0,0.434756000061,4,Yes,3.8,-1,Miss,0.504300999921,True,False,stimulusRAMA04_2IFCnew_2019_Jun_12_1259_123,stimulusRAMA04_2IFCnew_2019_Jun_12_1259_124,True,2019_Jun_12_1259,2IFCnew,3,RAMA04,
2IFCnew,62,0,62,0,0.566512699937,4,Yes,3.8,-1,Miss,0.566566699883,True,False,stimulusRAMA04_2IFCnew_2019_Jun_12_1259_125,stimulusRAMA04_2IFCnew_2019_Jun_12_1259_126,True,2019_Jun_12_1259,2IFCnew,3,RAMA04,
2IFCnew,63,0,63,0,0.4336757001,2,Yes,9.7,-1,Correct Rejection,0.500647899928,False,True,stimulusRAMA04_2IFCnew_2019_Jun_12_1259_127,stimulusRAMA04_2IFCnew_2019_Jun_12_1259_128,True,2019_Jun_12_1259,2IFCnew,3,RAMA04,
2IFCnew,64,0,64,0,0.433823000174,1,No,7,-1,Hit,0.500322700012,True,False,stimulusRAMA04_2IFCnew_2019_Jun_12_1259_129,stimulusRAMA04_2IFCnew_2019_Jun_12_1259_130,True,2019_Jun_12_1259,2IFCnew,3,RAMA04,
2IFCnew,65,0,65,0,0.733836200088,6,No,6,-1,Miss,0.634067300009,True,False,stimulusRAMA04_2IFCnew_2019_Jun_12_1259_131,stimulusRAMA04_2IFCnew_2019_Jun_12_1259_132,True,2019_Jun_12_1259,2IFCnew,3,RAMA04,
2IFCnew,66,0,66,0,0.300500100013,1,No,7,-1,Hit,0.433868299937,True,False,stimulusRAMA04_2IFCnew_2019_Jun_12_1259_133,stimulusRAMA04_2IFCnew_2019_Jun_12_1259_134,True,2019_Jun_12_1259,2IFCnew,3,RAMA04,
2IFCnew,67,0,67,0,0.667139099911,6,No,3.8,-1,Miss,0.699002699926,True,False,stimulusRAMA04_2IFCnew_2019_Jun_12_1259_135,stimulusRAMA04_2IFCnew_2019_Jun_12_1259_136,True,2019_Jun_12_1259,2IFCnew,3,RAMA04,
2IFCnew,68,0,68,0,0.400493199937,2,Yes,7,-1,Correct Rejection,0.53342709993,False,True,stimulusRAMA04_2IFCnew_2019_Jun_12_1259_137,stimulusRAMA04_2IFCnew_2019_Jun_12_1259_138,True,2019_Jun_12_1259,2IFCnew,3,RAMA04,
2IFCnew,69,0,69,0,0.567723799963,4,Yes,3.8,-1,Miss,0.633000100031,True,False,stimulusRAMA04_2IFCnew_2019_Jun_12_1259_139,stimulusRAMA04_2IFCnew_2019_Jun_12_1259_140,True,2019_Jun_12_1259,2IFCnew,3,RAMA04,
2IFCnew,70,0,70,0,0.400948700029,2,Yes,9.7,-1,Correct Rejection,0.533403400099,False,True,stimulusRAMA04_2IFCnew_2019_Jun_12_1259_141,stimulusRAMA04_2IFCnew_2019_Jun_12_1259_142,True,2019_Jun_12_1259,2IFCnew,3,RAMA04,
2IFCnew,71,0,71,0,0.666323499987,2,Yes,6,-1,Correct Rejection,0.633000500035,False,True,stimulusRAMA04_2IFCnew_2019_Jun_12_1259_143,stimulusRAMA04_2IFCnew_2019_Jun_12_1259_144,True,2019_Jun_12_1259,2IFCnew,3,RAMA04,
2IFCnew,72,0,72,0,0.53407970001,1,No,2.6,-1,Hit,0.634755699895,True,False,stimulusRAMA04_2IFCnew_2019_Jun_12_1259_145,stimulusRAMA04_2IFCnew_2019_Jun_12_1259_146,True,2019_Jun_12_1259,2IFCnew,3,RAMA04,
2IFCnew,73,0,73,0,0.398888600059,2,Yes,9.7,-1,Correct Rejection,0.567482199986,False,True,stimulusRAMA04_2IFCnew_2019_Jun_12_1259_147,stimulusRAMA04_2IFCnew_2019_Jun_12_1259_148,True,2019_Jun_12_1259,2IFCnew,3,RAMA04,
2IFCnew,74,0,74,0,0.300213600043,1,No,6,-1,Hit,0.53370889998,True,False,stimulusRAMA04_2IFCnew_2019_Jun_12_1259_149,stimulusRAMA04_2IFCnew_2019_Jun_12_1259_150,True,2019_Jun_12_1259,2IFCnew,3,RAMA04,
2IFCnew,0,0,0,0,0.134288599947,1,No,6,-1,Hit,0.400285599986,True,False,stimulusRAMA04_2IFCnew_2019_Jun_12_1259_151,stimulusRAMA04_2IFCnew_2019_Jun_12_1259_152,True,2019_Jun_12_1259,2IFCnew,3,RAMA04,
2IFCnew,1,0,1,0,0.300961200148,2,Yes,2.5,-1,Correct Rejection,0.534530099947,False,True,stimulusRAMA04_2IFCnew_2019_Jun_12_1259_153,stimulusRAMA04_2IFCnew_2019_Jun_12_1259_154,True,2019_Jun_12_1259,2IFCnew,3,RAMA04,
2IFCnew,2,0,2,0,0.333859800128,1,No,2.6,-1,Hit,0.434804399963,True,False,stimulusRAMA04_2IFCnew_2019_Jun_12_1259_155,stimulusRAMA04_2IFCnew_2019_Jun_12_1259_156,True,2019_Jun_12_1259,2IFCnew,3,RAMA04,
2IFCnew,3,0,3,0,0.261207300005,2,Yes,9.7,-1,Correct Rejection,0.499763800064,False,True,stimulusRAMA04_2IFCnew_2019_Jun_12_1259_157,stimulusRAMA04_2IFCnew_2019_Jun_12_1259_158,True,2019_Jun_12_1259,2IFCnew,3,RAMA04,
2IFCnew,4,0,4,0,0.233697499847,1,No,9.7,-1,Hit,0.399535800098,True,False,stimulusRAMA04_2IFCnew_2019_Jun_12_1259_159,stimulusRAMA04_2IFCnew_2019_Jun_12_1259_160,True,2019_Jun_12_1259,2IFCnew,3,RAMA04,
2IFCnew,5,0,5,0,0.300370400073,2,Yes,3.8,-1,Correct Rejection,0.465407500044,False,True,stimulusRAMA04_2IFCnew_2019_Jun_12_1259_161,stimulusRAMA04_2IFCnew_2019_Jun_12_1259_162,True,2019_Jun_12_1259,2IFCnew,3,RAMA04,
2IFCnew,6,0,6,0,0.401278099976,2,Yes,8.2,-1,Correct Rejection,0.534719599877,False,True,stimulusRAMA04_2IFCnew_2019_Jun_12_1259_163,stimulusRAMA04_2IFCnew_2019_Jun_12_1259_164,True,2019_Jun_12_1259,2IFCnew,3,RAMA04,
2IFCnew,7,0,7,0,0.367395200068,2,Yes,2.6,-1,Correct Rejection,0.467460100073,False,True,stimulusRAMA04_2IFCnew_2019_Jun_12_1259_165,stimulusRAMA04_2IFCnew_2019_Jun_12_1259_166,True,2019_Jun_12_1259,2IFCnew,3,RAMA04,
2IFCnew,8,0,8,0,0.433566099964,1,No,3.8,-1,Hit,0.467240199912,True,False,stimulusRAMA04_2IFCnew_2019_Jun_12_1259_167,stimulusRAMA04_2IFCnew_2019_Jun_12_1259_168,True,2019_Jun_12_1259,2IFCnew,3,RAMA04,
2IFCnew,9,0,9,0,0.367416699883,2,Yes,2.5,-1,Correct Rejection,0.467131600017,False,True,stimulusRAMA04_2IFCnew_2019_Jun_12_1259_169,stimulusRAMA04_2IFCnew_2019_Jun_12_1259_170,True,2019_Jun_12_1259,2IFCnew,3,RAMA04,
2IFCnew,10,0,10,0,0.299859999912,2,Yes,9.7,-1,Correct Rejection,0.50154810003,False,True,stimulusRAMA04_2IFCnew_2019_Jun_12_1259_171,stimulusRAMA04_2IFCnew_2019_Jun_12_1259_172,True,2019_Jun_12_1259,2IFCnew,3,RAMA04,
2IFCnew,11,0,11,0,0.333770399913,4,Yes,2.6,-1,Miss,0.600250599906,True,False,stimulusRAMA04_2IFCnew_2019_Jun_12_1259_173,stimulusRAMA04_2IFCnew_2019_Jun_12_1259_174,True,2019_Jun_12_1259,2IFCnew,3,RAMA04,
2IFCnew,12,0,12,0,0.234354199842,1,No,9.7,-1,Hit,0.434321299894,True,False,stimulusRAMA04_2IFCnew_2019_Jun_12_1259_175,stimulusRAMA04_2IFCnew_2019_Jun_12_1259_176,True,2019_Jun_12_1259,2IFCnew,3,RAMA04,
2IFCnew,13,0,13,0,0.300403899979,2,Yes,6,-1,Correct Rejection,0.46708750003,False,True,stimulusRAMA04_2IFCnew_2019_Jun_12_1259_177,stimulusRAMA04_2IFCnew_2019_Jun_12_1259_178,True,2019_Jun_12_1259,2IFCnew,3,RAMA04,
2IFCnew,14,0,14,0,0.29958370002,1,No,3.8,-1,Hit,0.434245400131,True,False,stimulusRAMA04_2IFCnew_2019_Jun_12_1259_179,stimulusRAMA04_2IFCnew_2019_Jun_12_1259_180,True,2019_Jun_12_1259,2IFCnew,3,RAMA04,
2IFCnew,15,0,15,0,0.266755799996,1,No,7,-1,Hit,0.534252600046,True,False,stimulusRAMA04_2IFCnew_2019_Jun_12_1259_181,stimulusRAMA04_2IFCnew_2019_Jun_12_1259_182,True,2019_Jun_12_1259,2IFCnew,3,RAMA04,
2IFCnew,16,0,16,0,0.366758200107,2,Yes,8.2,-1,Correct Rejection,0.463926499942,False,True,stimulusRAMA04_2IFCnew_2019_Jun_12_1259_183,stimulusRAMA04_2IFCnew_2019_Jun_12_1259_184,True,2019_Jun_12_1259,2IFCnew,3,RAMA04,
2IFCnew,17,0,17,0,0.300220500212,1,No,6,-1,Hit,0.468590300065,True,False,stimulusRAMA04_2IFCnew_2019_Jun_12_1259_185,stimulusRAMA04_2IFCnew_2019_Jun_12_1259_186,True,2019_Jun_12_1259,2IFCnew,3,RAMA04,
2IFCnew,18,0,18,0,-1,4,No,9.7,-1,Miss,0.400547999889,True,False,stimulusRAMA04_2IFCnew_2019_Jun_12_1259_187,stimulusRAMA04_2IFCnew_2019_Jun_12_1259_188,True,2019_Jun_12_1259,2IFCnew,3,RAMA04,
2IFCnew,19,0,19,0,0.300126799848,1,No,6,-1,Hit,0.534579300089,True,False,stimulusRAMA04_2IFCnew_2019_Jun_12_1259_189,stimulusRAMA04_2IFCnew_2019_Jun_12_1259_190,True,2019_Jun_12_1259,2IFCnew,3,RAMA04,
2IFCnew,20,0,20,0,0.234743199777,1,No,7,-1,Hit,0.43419150007,True,False,stimulusRAMA04_2IFCnew_2019_Jun_12_1259_191,stimulusRAMA04_2IFCnew_2019_Jun_12_1259_192,True,2019_Jun_12_1259,2IFCnew,3,RAMA04,
2IFCnew,21,0,21,0,0.334544599988,2,Yes,5,-1,Correct Rejection,0.469301500125,False,True,stimulusRAMA04_2IFCnew_2019_Jun_12_1259_193,stimulusRAMA04_2IFCnew_2019_Jun_12_1259_194,True,2019_Jun_12_1259,2IFCnew,3,RAMA04,
2IFCnew,22,0,22,0,0.366867500124,2,Yes,6,-1,Correct Rejection,0.432219400071,False,True,stimulusRAMA04_2IFCnew_2019_Jun_12_1259_195,stimulusRAMA04_2IFCnew_2019_Jun_12_1259_196,True,2019_Jun_12_1259,2IFCnew,3,RAMA04,
2IFCnew,23,0,23,0,0.406663900008,2,Yes,2.6,-1,Correct Rejection,0.668290199945,False,True,stimulusRAMA04_2IFCnew_2019_Jun_12_1259_197,stimulusRAMA04_2IFCnew_2019_Jun_12_1259_198,True,2019_Jun_12_1259,2IFCnew,3,RAMA04,
2IFCnew,24,0,24,0,0.436047700001,2,Yes,9.7,-1,Correct Rejection,0.499275499955,False,True,stimulusRAMA04_2IFCnew_2019_Jun_12_1259_199,stimulusRAMA04_2IFCnew_2019_Jun_12_1259_200,True,2019_Jun_12_1259,2IFCnew,3,RAMA04,
2IFCnew,25,0,25,0,0.433558899909,1,No,7,-1,Hit,0.60036559985,True,False,stimulusRAMA04_2IFCnew_2019_Jun_12_1259_201,stimulusRAMA04_2IFCnew_2019_Jun_12_1259_202,True,2019_Jun_12_1259,2IFCnew,3,RAMA04,
2IFCnew,26,0,26,0,0.533905700082,1,No,5,-1,Hit,0.467860799981,True,False,stimulusRAMA04_2IFCnew_2019_Jun_12_1259_203,stimulusRAMA04_2IFCnew_2019_Jun_12_1259_204,True,2019_Jun_12_1259,2IFCnew,3,RAMA04,
2IFCnew,27,0,27,0,0.500407299958,1,No,5,-1,Hit,0.567841100041,True,False,stimulusRAMA04_2IFCnew_2019_Jun_12_1259_205,stimulusRAMA04_2IFCnew_2019_Jun_12_1259_206,True,2019_Jun_12_1259,2IFCnew,3,RAMA04,
2IFCnew,28,0,28,0,0.334295400186,2,Yes,8.2,-1,Correct Rejection,0.500102000078,False,True,stimulusRAMA04_2IFCnew_2019_Jun_12_1259_207,stimulusRAMA04_2IFCnew_2019_Jun_12_1259_208,True,2019_Jun_12_1259,2IFCnew,3,RAMA04,
2IFCnew,29,0,29,0,0.266906399978,1,No,7,-1,Hit,0.53492580005,True,False,stimulusRAMA04_2IFCnew_2019_Jun_12_1259_209,stimulusRAMA04_2IFCnew_2019_Jun_12_1259_210,True,2019_Jun_12_1259,2IFCnew,3,RAMA04,
2IFCnew,30,0,30,0,0.333560099825,2,Yes,2.5,-1,Correct Rejection,0.533486699918,False,True,stimulusRAMA04_2IFCnew_2019_Jun_12_1259_211,stimulusRAMA04_2IFCnew_2019_Jun_12_1259_212,True,2019_Jun_12_1259,2IFCnew,3,RAMA04,
2IFCnew,31,0,31,0,0.265399900032,3,No,3.8,-1,False Alarm,0.433297599899,False,True,stimulusRAMA04_2IFCnew_2019_Jun_12_1259_213,stimulusRAMA04_2IFCnew_2019_Jun_12_1259_214,True,2019_Jun_12_1259,2IFCnew,3,RAMA04,
2IFCnew,32,0,32,0,0.567679600092,6,No,2.5,-1,Miss,0.567422900116,True,False,stimulusRAMA04_2IFCnew_2019_Jun_12_1259_215,stimulusRAMA04_2IFCnew_2019_Jun_12_1259_216,True,2019_Jun_12_1259,2IFCnew,3,RAMA04,
2IFCnew,33,0,33,0,0.299138000002,2,Yes,8.2,-1,Correct Rejection,0.533826699946,False,True,stimulusRAMA04_2IFCnew_2019_Jun_12_1259_217,stimulusRAMA04_2IFCnew_2019_Jun_12_1259_218,True,2019_Jun_12_1259,2IFCnew,3,RAMA04,
2IFCnew,34,0,34,0,0.300767699955,2,Yes,3.8,-1,Correct Rejection,0.498970999848,False,True,stimulusRAMA04_2IFCnew_2019_Jun_12_1259_219,stimulusRAMA04_2IFCnew_2019_Jun_12_1259_220,True,2019_Jun_12_1259,2IFCnew,3,RAMA04,
2IFCnew,35,0,35,0,0.600106299855,2,Yes,2.5,-1,Correct Rejection,0.434168000007,False,True,stimulusRAMA04_2IFCnew_2019_Jun_12_1259_221,stimulusRAMA04_2IFCnew_2019_Jun_12_1259_222,True,2019_Jun_12_1259,2IFCnew,3,RAMA04,
2IFCnew,36,0,36,0,0.333631400019,2,Yes,3.8,-1,Correct Rejection,0.43322999985,False,True,stimulusRAMA04_2IFCnew_2019_Jun_12_1259_223,stimulusRAMA04_2IFCnew_2019_Jun_12_1259_224,True,2019_Jun_12_1259,2IFCnew,3,RAMA04,
2IFCnew,37,0,37,0,0.334891700186,2,Yes,7,-1,Correct Rejection,0.468548699981,False,True,stimulusRAMA04_2IFCnew_2019_Jun_12_1259_225,stimulusRAMA04_2IFCnew_2019_Jun_12_1259_226,True,2019_Jun_12_1259,2IFCnew,3,RAMA04,
2IFCnew,38,0,38,0,-1,3,Yes,2.6,-1,Correct Rejection,0.500604300061,False,True,stimulusRAMA04_2IFCnew_2019_Jun_12_1259_227,stimulusRAMA04_2IFCnew_2019_Jun_12_1259_228,True,2019_Jun_12_1259,2IFCnew,3,RAMA04,
2IFCnew,39,0,39,0,0.300178200006,1,No,5,-1,Hit,0.567457800033,True,False,stimulusRAMA04_2IFCnew_2019_Jun_12_1259_229,stimulusRAMA04_2IFCnew_2019_Jun_12_1259_230,True,2019_Jun_12_1259,2IFCnew,3,RAMA04,
2IFCnew,40,0,40,0,0.333998200018,4,Yes,2.5,-1,Miss,0.534009499941,True,False,stimulusRAMA04_2IFCnew_2019_Jun_12_1259_231,stimulusRAMA04_2IFCnew_2019_Jun_12_1259_232,True,2019_Jun_12_1259,2IFCnew,3,RAMA04,
2IFCnew,41,0,41,0,0.300296099856,3,No,6,-1,False Alarm,0.300710699987,False,True,stimulusRAMA04_2IFCnew_2019_Jun_12_1259_233,stimulusRAMA04_2IFCnew_2019_Jun_12_1259_234,True,2019_Jun_12_1259,2IFCnew,3,RAMA04,
2IFCnew,42,0,42,0,0.233700399986,1,No,9.7,-1,Hit,0.467313600006,True,False,stimulusRAMA04_2IFCnew_2019_Jun_12_1259_235,stimulusRAMA04_2IFCnew_2019_Jun_12_1259_236,True,2019_Jun_12_1259,2IFCnew,3,RAMA04,
2IFCnew,43,0,43,0,0.433570999885,8,No,2.5,-1,Correct Rejection,0.499357799999,False,True,stimulusRAMA04_2IFCnew_2019_Jun_12_1259_237,stimulusRAMA04_2IFCnew_2019_Jun_12_1259_238,True,2019_Jun_12_1259,2IFCnew,3,RAMA04,
2IFCnew,44,0,44,0,0.767125900136,5,Yes,8.2,-1,False Alarm,0.768842000049,False,True,stimulusRAMA04_2IFCnew_2019_Jun_12_1259_239,stimulusRAMA04_2IFCnew_2019_Jun_12_1259_240,True,2019_Jun_12_1259,2IFCnew,3,RAMA04,
2IFCnew,45,0,45,0,0.33380579995,2,Yes,5,-1,Correct Rejection,0.500570999924,False,True,stimulusRAMA04_2IFCnew_2019_Jun_12_1259_241,stimulusRAMA04_2IFCnew_2019_Jun_12_1259_242,True,2019_Jun_12_1259,2IFCnew,3,RAMA04,
2IFCnew,46,0,46,0,0.366975100012,2,Yes,5,-1,Correct Rejection,0.600865399931,False,True,stimulusRAMA04_2IFCnew_2019_Jun_12_1259_243,stimulusRAMA04_2IFCnew_2019_Jun_12_1259_244,True,2019_Jun_12_1259,2IFCnew,3,RAMA04,
2IFCnew,47,0,47,0,0.300333700143,1,No,7,-1,Hit,0.568568199873,True,False,stimulusRAMA04_2IFCnew_2019_Jun_12_1259_245,stimulusRAMA04_2IFCnew_2019_Jun_12_1259_246,True,2019_Jun_12_1259,2IFCnew,3,RAMA04,
2IFCnew,48,0,48,0,0.400433199946,4,Yes,3.8,-1,Miss,0.634041599929,True,False,stimulusRAMA04_2IFCnew_2019_Jun_12_1259_247,stimulusRAMA04_2IFCnew_2019_Jun_12_1259_248,True,2019_Jun_12_1259,2IFCnew,3,RAMA04,
2IFCnew,49,0,49,0,0.333479399793,2,Yes,9.7,-1,Correct Rejection,0.501225600019,False,True,stimulusRAMA04_2IFCnew_2019_Jun_12_1259_249,stimulusRAMA04_2IFCnew_2019_Jun_12_1259_250,True,2019_Jun_12_1259,2IFCnew,3,RAMA04,
2IFCnew,50,0,50,0,0.300392600009,2,Yes,7,-1,Correct Rejection,0.534815999912,False,True,stimulusRAMA04_2IFCnew_2019_Jun_12_1259_251,stimulusRAMA04_2IFCnew_2019_Jun_12_1259_252,True,2019_Jun_12_1259,2IFCnew,3,RAMA04,
2IFCnew,51,0,51,0,0.300377100008,2,Yes,2.5,-1,Correct Rejection,0.566775400192,False,True,stimulusRAMA04_2IFCnew_2019_Jun_12_1259_253,stimulusRAMA04_2IFCnew_2019_Jun_12_1259_254,True,2019_Jun_12_1259,2IFCnew,3,RAMA04,
2IFCnew,52,0,52,0,0.267053900054,2,Yes,5,-1,Correct Rejection,0.434297999833,False,True,stimulusRAMA04_2IFCnew_2019_Jun_12_1259_255,stimulusRAMA04_2IFCnew_2019_Jun_12_1259_256,True,2019_Jun_12_1259,2IFCnew,3,RAMA04,
2IFCnew,53,0,53,0,0.266961799935,1,No,5,-1,Hit,0.56769109983,True,False,stimulusRAMA04_2IFCnew_2019_Jun_12_1259_257,stimulusRAMA04_2IFCnew_2019_Jun_12_1259_258,True,2019_Jun_12_1259,2IFCnew,3,RAMA04,
2IFCnew,54,0,54,0,0.366320400033,3,No,8.2,-1,False Alarm,0.534133200068,False,True,stimulusRAMA04_2IFCnew_2019_Jun_12_1259_259,stimulusRAMA04_2IFCnew_2019_Jun_12_1259_260,True,2019_Jun_12_1259,2IFCnew,3,RAMA04,
2IFCnew,55,0,55,0,0.133098599967,4,Yes,2.6,-1,Miss,0.500718400115,True,False,stimulusRAMA04_2IFCnew_2019_Jun_12_1259_261,stimulusRAMA04_2IFCnew_2019_Jun_12_1259_262,True,2019_Jun_12_1259,2IFCnew,3,RAMA04,
2IFCnew,56,0,56,0,0.233682800084,1,No,6,-1,Hit,0.565733399941,True,False,stimulusRAMA04_2IFCnew_2019_Jun_12_1259_263,stimulusRAMA04_2IFCnew_2019_Jun_12_1259_264,True,2019_Jun_12_1259,2IFCnew,3,RAMA04,
2IFCnew,57,0,57,0,0.266513200011,1,No,2.6,-1,Hit,0.50057350006,True,False,stimulusRAMA04_2IFCnew_2019_Jun_12_1259_265,stimulusRAMA04_2IFCnew_2019_Jun_12_1259_266,True,2019_Jun_12_1259,2IFCnew,3,RAMA04,
2IFCnew,58,0,58,0,0.399637199938,1,No,7,-1,Hit,0.467214000179,True,False,stimulusRAMA04_2IFCnew_2019_Jun_12_1259_267,stimulusRAMA04_2IFCnew_2019_Jun_12_1259_268,True,2019_Jun_12_1259,2IFCnew,3,RAMA04,
2IFCnew,59,0,59,0,0.235465600155,1,No,8.2,-1,Hit,0.430731299799,True,False,stimulusRAMA04_2IFCnew_2019_Jun_12_1259_269,stimulusRAMA04_2IFCnew_2019_Jun_12_1259_270,True,2019_Jun_12_1259,2IFCnew,3,RAMA04,
2IFCnew,60,0,60,0,0.367001899984,2,Yes,5,-1,Correct Rejection,0.700944399927,False,True,stimulusRAMA04_2IFCnew_2019_Jun_12_1259_271,stimulusRAMA04_2IFCnew_2019_Jun_12_1259_272,True,2019_Jun_12_1259,2IFCnew,3,RAMA04,
2IFCnew,61,0,61,0,0.267848599935,4,Yes,2.6,-1,Miss,0.535401299829,True,False,stimulusRAMA04_2IFCnew_2019_Jun_12_1259_273,stimulusRAMA04_2IFCnew_2019_Jun_12_1259_274,True,2019_Jun_12_1259,2IFCnew,3,RAMA04,
2IFCnew,62,0,62,0,0.0997903998941,1,No,7,-1,Hit,0.367432599887,True,False,stimulusRAMA04_2IFCnew_2019_Jun_12_1259_275,stimulusRAMA04_2IFCnew_2019_Jun_12_1259_276,True,2019_Jun_12_1259,2IFCnew,3,RAMA04,
2IFCnew,63,0,63,0,0.300404299982,3,No,9.7,-1,False Alarm,0.534245999996,False,True,stimulusRAMA04_2IFCnew_2019_Jun_12_1259_277,stimulusRAMA04_2IFCnew_2019_Jun_12_1259_278,True,2019_Jun_12_1259,2IFCnew,3,RAMA04,
2IFCnew,64,0,64,0,0.167161999969,1,No,6,-1,Hit,0.435081199976,True,False,stimulusRAMA04_2IFCnew_2019_Jun_12_1259_279,stimulusRAMA04_2IFCnew_2019_Jun_12_1259_280,True,2019_Jun_12_1259,2IFCnew,3,RAMA04,
2IFCnew,65,0,65,0,0.268859800184,2,Yes,7,-1,Correct Rejection,0.500130199827,False,True,stimulusRAMA04_2IFCnew_2019_Jun_12_1259_281,stimulusRAMA04_2IFCnew_2019_Jun_12_1259_282,True,2019_Jun_12_1259,2IFCnew,3,RAMA04,
2IFCnew,66,0,66,0,0.200459799962,1,No,8.2,-1,Hit,0.499416299863,True,False,stimulusRAMA04_2IFCnew_2019_Jun_12_1259_283,stimulusRAMA04_2IFCnew_2019_Jun_12_1259_284,True,2019_Jun_12_1259,2IFCnew,3,RAMA04,
2IFCnew,67,0,67,0,0.232475399971,2,Yes,2.6,-1,Correct Rejection,0.501340899849,False,True,stimulusRAMA04_2IFCnew_2019_Jun_12_1259_285,stimulusRAMA04_2IFCnew_2019_Jun_12_1259_286,True,2019_Jun_12_1259,2IFCnew,3,RAMA04,
2IFCnew,68,0,68,0,0.399468100164,1,No,6,-1,Hit,0.397143500159,True,False,stimulusRAMA04_2IFCnew_2019_Jun_12_1259_287,stimulusRAMA04_2IFCnew_2019_Jun_12_1259_288,True,2019_Jun_12_1259,2IFCnew,3,RAMA04,
2IFCnew,69,0,69,0,0.332837600028,8,No,2.5,-1,Correct Rejection,0.40180540015,False,True,stimulusRAMA04_2IFCnew_2019_Jun_12_1259_289,stimulusRAMA04_2IFCnew_2019_Jun_12_1259_290,True,2019_Jun_12_1259,2IFCnew,3,RAMA04,
2IFCnew,70,0,70,0,0.334193099989,2,Yes,8.2,-1,Correct Rejection,0.567522699945,False,True,stimulusRAMA04_2IFCnew_2019_Jun_12_1259_291,stimulusRAMA04_2IFCnew_2019_Jun_12_1259_292,True,2019_Jun_12_1259,2IFCnew,3,RAMA04,
2IFCnew,71,0,71,0,0.234057199908,1,No,6,-1,Hit,0.501210899791,True,False,stimulusRAMA04_2IFCnew_2019_Jun_12_1259_293,stimulusRAMA04_2IFCnew_2019_Jun_12_1259_294,True,2019_Jun_12_1259,2IFCnew,3,RAMA04,
2IFCnew,72,0,72,0,0.232336899964,1,No,7,-1,Hit,0.467675399967,True,False,stimulusRAMA04_2IFCnew_2019_Jun_12_1259_295,stimulusRAMA04_2IFCnew_2019_Jun_12_1259_296,True,2019_Jun_12_1259,2IFCnew,3,RAMA04,
2IFCnew,73,0,73,0,0.333345700055,2,Yes,5,-1,Correct Rejection,0.499645799864,False,True,stimulusRAMA04_2IFCnew_2019_Jun_12_1259_297,stimulusRAMA04_2IFCnew_2019_Jun_12_1259_298,True,2019_Jun_12_1259,2IFCnew,3,RAMA04,
2IFCnew,74,0,74,0,0.268038900103,2,Yes,7,-1,Correct Rejection,0.56757230009,False,True,stimulusRAMA04_2IFCnew_2019_Jun_12_1259_299,stimulusRAMA04_2IFCnew_2019_Jun_12_1259_300,True,2019_Jun_12_1259,2IFCnew,3,RAMA04,
2IFCnew,0,0,0,0,0.534574900055,1,No,3.8,-1,Hit,0.300603500102,True,False,stimulusRAMA04_2IFCnew_2019_Jun_12_1259_301,stimulusRAMA04_2IFCnew_2019_Jun_12_1259_302,True,2019_Jun_12_1259,2IFCnew,3,RAMA04,
2IFCnew,1,0,1,0,0.500001100125,6,No,2.5,-1,Miss,0.567485099891,True,False,stimulusRAMA04_2IFCnew_2019_Jun_12_1259_303,stimulusRAMA04_2IFCnew_2019_Jun_12_1259_304,True,2019_Jun_12_1259,2IFCnew,3,RAMA04,
2IFCnew,2,0,2,0,0.299342100043,1,No,9.7,-1,Hit,0.500412299996,True,False,stimulusRAMA04_2IFCnew_2019_Jun_12_1259_305,stimulusRAMA04_2IFCnew_2019_Jun_12_1259_306,True,2019_Jun_12_1259,2IFCnew,3,RAMA04,
2IFCnew,3,0,3,0,0.300392100122,1,No,3.8,-1,Hit,0.564687900012,True,False,stimulusRAMA04_2IFCnew_2019_Jun_12_1259_307,stimulusRAMA04_2IFCnew_2019_Jun_12_1259_308,True,2019_Jun_12_1259,2IFCnew,3,RAMA04,
2IFCnew,4,0,4,0,0.29901800002,2,Yes,5,-1,Correct Rejection,0.467284000013,False,True,stimulusRAMA04_2IFCnew_2019_Jun_12_1259_309,stimulusRAMA04_2IFCnew_2019_Jun_12_1259_310,True,2019_Jun_12_1259,2IFCnew,3,RAMA04,
2IFCnew,5,0,5,0,0.266574800014,1,No,6,-1,Hit,0.500732399989,True,False,stimulusRAMA04_2IFCnew_2019_Jun_12_1259_311,stimulusRAMA04_2IFCnew_2019_Jun_12_1259_312,True,2019_Jun_12_1259,2IFCnew,3,RAMA04,
2IFCnew,6,0,6,0,0.100464400137,3,No,7,-1,False Alarm,0.533616799861,False,True,stimulusRAMA04_2IFCnew_2019_Jun_12_1259_313,stimulusRAMA04_2IFCnew_2019_Jun_12_1259_314,True,2019_Jun_12_1259,2IFCnew,3,RAMA04,
2IFCnew,7,0,7,0,0.300901900046,2,Yes,6,-1,Correct Rejection,0.468106700107,False,True,stimulusRAMA04_2IFCnew_2019_Jun_12_1259_315,stimulusRAMA04_2IFCnew_2019_Jun_12_1259_316,True,2019_Jun_12_1259,2IFCnew,3,RAMA04,
2IFCnew,8,0,8,0,0.433755100006,3,No,3.8,-1,False Alarm,0.534579399973,False,True,stimulusRAMA04_2IFCnew_2019_Jun_12_1259_317,stimulusRAMA04_2IFCnew_2019_Jun_12_1259_318,True,2019_Jun_12_1259,2IFCnew,3,RAMA04,
2IFCnew,9,0,9,0,0.533940099878,4,Yes,3.8,-1,Miss,0.700648499886,True,False,stimulusRAMA04_2IFCnew_2019_Jun_12_1259_319,stimulusRAMA04_2IFCnew_2019_Jun_12_1259_320,True,2019_Jun_12_1259,2IFCnew,3,RAMA04,
2IFCnew,10,0,10,0,0.367232299875,2,Yes,5,-1,Correct Rejection,0.600616000127,False,True,stimulusRAMA04_2IFCnew_2019_Jun_12_1259_321,stimulusRAMA04_2IFCnew_2019_Jun_12_1259_322,True,2019_Jun_12_1259,2IFCnew,3,RAMA04,
2IFCnew,11,0,11,0,0.700337799964,3,No,6,-1,False Alarm,0.567017700057,False,True,stimulusRAMA04_2IFCnew_2019_Jun_12_1259_323,stimulusRAMA04_2IFCnew_2019_Jun_12_1259_324,True,2019_Jun_12_1259,2IFCnew,3,RAMA04,
2IFCnew,12,0,12,0,0.467499899911,2,Yes,9.7,-1,Correct Rejection,0.634550000075,False,True,stimulusRAMA04_2IFCnew_2019_Jun_12_1259_325,stimulusRAMA04_2IFCnew_2019_Jun_12_1259_326,True,2019_Jun_12_1259,2IFCnew,3,RAMA04,
2IFCnew,13,0,13,0,-1,0,Yes,2.6,-1,No Answer,-1,False,True,stimulusRAMA04_2IFCnew_2019_Jun_12_1259_327,stimulusRAMA04_2IFCnew_2019_Jun_12_1259_328,True,2019_Jun_12_1259,2IFCnew,3,RAMA04,
2IFCnew,14,0,14,0,0.534219000023,2,Yes,6,-1,Correct Rejection,0.733946299879,False,True,stimulusRAMA04_2IFCnew_2019_Jun_12_1259_329,stimulusRAMA04_2IFCnew_2019_Jun_12_1259_330,True,2019_Jun_12_1259,2IFCnew,3,RAMA04,
2IFCnew,15,0,15,0,0.300661999965,1,No,7,-1,Hit,0.466942300089,True,False,stimulusRAMA04_2IFCnew_2019_Jun_12_1259_331,stimulusRAMA04_2IFCnew_2019_Jun_12_1259_332,True,2019_Jun_12_1259,2IFCnew,3,RAMA04,
2IFCnew,16,0,16,0,0.366599299945,2,Yes,2.5,-1,Correct Rejection,0.56723509985,False,True,stimulusRAMA04_2IFCnew_2019_Jun_12_1259_333,stimulusRAMA04_2IFCnew_2019_Jun_12_1259_334,True,2019_Jun_12_1259,2IFCnew,3,RAMA04,
2IFCnew,17,0,17,0,0.333556999918,1,No,7,-1,Hit,0.467980699847,True,False,stimulusRAMA04_2IFCnew_2019_Jun_12_1259_335,stimulusRAMA04_2IFCnew_2019_Jun_12_1259_336,True,2019_Jun_12_1259,2IFCnew,3,RAMA04,
2IFCnew,18,0,18,0,0.267128900159,4,Yes,2.5,-1,Miss,0.599718200043,True,False,stimulusRAMA04_2IFCnew_2019_Jun_12_1259_337,stimulusRAMA04_2IFCnew_2019_Jun_12_1259_338,True,2019_Jun_12_1259,2IFCnew,3,RAMA04,
2IFCnew,19,0,19,0,0.567650200101,8,No,2.5,-1,Correct Rejection,0.568285299931,False,True,stimulusRAMA04_2IFCnew_2019_Jun_12_1259_339,stimulusRAMA04_2IFCnew_2019_Jun_12_1259_340,True,2019_Jun_12_1259,2IFCnew,3,RAMA04,
2IFCnew,20,0,20,0,0.467147700023,2,Yes,3.8,-1,Correct Rejection,0.667546299985,False,True,stimulusRAMA04_2IFCnew_2019_Jun_12_1259_341,stimulusRAMA04_2IFCnew_2019_Jun_12_1259_342,True,2019_Jun_12_1259,2IFCnew,3,RAMA04,
2IFCnew,21,0,21,0,0.401092000073,2,Yes,5,-1,Correct Rejection,0.534936399898,False,True,stimulusRAMA04_2IFCnew_2019_Jun_12_1259_343,stimulusRAMA04_2IFCnew_2019_Jun_12_1259_344,True,2019_Jun_12_1259,2IFCnew,3,RAMA04,
2IFCnew,22,0,22,0,0.367806500057,2,Yes,5,-1,Correct Rejection,0.500705099897,False,True,stimulusRAMA04_2IFCnew_2019_Jun_12_1259_345,stimulusRAMA04_2IFCnew_2019_Jun_12_1259_346,True,2019_Jun_12_1259,2IFCnew,3,RAMA04,
2IFCnew,23,0,23,0,0.167166499887,4,Yes,2.6,-1,Miss,0.466699699871,True,False,stimulusRAMA04_2IFCnew_2019_Jun_12_1259_347,stimulusRAMA04_2IFCnew_2019_Jun_12_1259_348,True,2019_Jun_12_1259,2IFCnew,3,RAMA04,
2IFCnew,24,0,24,0,0.334212600021,3,No,9.7,-1,False Alarm,0.434075299883,False,True,stimulusRAMA04_2IFCnew_2019_Jun_12_1259_349,stimulusRAMA04_2IFCnew_2019_Jun_12_1259_350,True,2019_Jun_12_1259,2IFCnew,3,RAMA04,
2IFCnew,25,0,25,0,0.432828299934,1,No,8.2,-1,Hit,0.567656700034,True,False,stimulusRAMA04_2IFCnew_2019_Jun_12_1259_351,stimulusRAMA04_2IFCnew_2019_Jun_12_1259_352,True,2019_Jun_12_1259,2IFCnew,3,RAMA04,
2IFCnew,26,0,26,0,-1,2,No,6,-1,False Alarm,0.668362300145,False,True,stimulusRAMA04_2IFCnew_2019_Jun_12_1259_353,stimulusRAMA04_2IFCnew_2019_Jun_12_1259_354,True,2019_Jun_12_1259,2IFCnew,3,RAMA04,
2IFCnew,27,0,27,0,0.300432299962,2,Yes,7,-1,Correct Rejection,0.533855200047,False,True,stimulusRAMA04_2IFCnew_2019_Jun_12_1259_355,stimulusRAMA04_2IFCnew_2019_Jun_12_1259_356,True,2019_Jun_12_1259,2IFCnew,3,RAMA04,
2IFCnew,28,0,28,0,0.30032709986,4,Yes,2.6,-1,Miss,0.567268499872,True,False,stimulusRAMA04_2IFCnew_2019_Jun_12_1259_357,stimulusRAMA04_2IFCnew_2019_Jun_12_1259_358,True,2019_Jun_12_1259,2IFCnew,3,RAMA04,
2IFCnew,29,0,29,0,0.634001299972,1,No,5,-1,Hit,0.434202899924,True,False,stimulusRAMA04_2IFCnew_2019_Jun_12_1259_359,stimulusRAMA04_2IFCnew_2019_Jun_12_1259_360,True,2019_Jun_12_1259,2IFCnew,3,RAMA04,
2IFCnew,30,0,30,0,0.233392899856,1,No,8.2,-1,Hit,0.500759500079,True,False,stimulusRAMA04_2IFCnew_2019_Jun_12_1259_361,stimulusRAMA04_2IFCnew_2019_Jun_12_1259_362,True,2019_Jun_12_1259,2IFCnew,3,RAMA04,
2IFCnew,31,0,31,0,0.801271499833,2,Yes,9.7,-1,Correct Rejection,0.599965200061,False,True,stimulusRAMA04_2IFCnew_2019_Jun_12_1259_363,stimulusRAMA04_2IFCnew_2019_Jun_12_1259_364,True,2019_Jun_12_1259,2IFCnew,3,RAMA04,
2IFCnew,32,0,32,0,0.400767599931,4,Yes,2.6,-1,Miss,0.533671299927,True,False,stimulusRAMA04_2IFCnew_2019_Jun_12_1259_365,stimulusRAMA04_2IFCnew_2019_Jun_12_1259_366,True,2019_Jun_12_1259,2IFCnew,3,RAMA04,
2IFCnew,33,0,33,0,0.467681099894,7,Yes,2.5,-1,Hit,0.567641400034,True,False,stimulusRAMA04_2IFCnew_2019_Jun_12_1259_367,stimulusRAMA04_2IFCnew_2019_Jun_12_1259_368,True,2019_Jun_12_1259,2IFCnew,3,RAMA04,
2IFCnew,34,0,34,0,0.367282600142,1,No,8.2,-1,Hit,0.500968100037,True,False,stimulusRAMA04_2IFCnew_2019_Jun_12_1259_369,stimulusRAMA04_2IFCnew_2019_Jun_12_1259_370,True,2019_Jun_12_1259,2IFCnew,3,RAMA04,
2IFCnew,35,0,35,0,0.400525999954,2,Yes,6,-1,Correct Rejection,0.500569700031,False,True,stimulusRAMA04_2IFCnew_2019_Jun_12_1259_371,stimulusRAMA04_2IFCnew_2019_Jun_12_1259_372,True,2019_Jun_12_1259,2IFCnew,3,RAMA04,
2IFCnew,36,0,36,0,0.433178399922,1,No,7,-1,Hit,0.567175799981,True,False,stimulusRAMA04_2IFCnew_2019_Jun_12_1259_373,stimulusRAMA04_2IFCnew_2019_Jun_12_1259_374,True,2019_Jun_12_1259,2IFCnew,3,RAMA04,
2IFCnew,37,0,37,0,0.367289799964,2,Yes,3.8,-1,Correct Rejection,0.533282500226,False,True,stimulusRAMA04_2IFCnew_2019_Jun_12_1259_375,stimulusRAMA04_2IFCnew_2019_Jun_12_1259_376,True,2019_Jun_12_1259,2IFCnew,3,RAMA04,
2IFCnew,38,0,38,0,0.30052459985,2,Yes,8.2,-1,Correct Rejection,0.633869300131,False,True,stimulusRAMA04_2IFCnew_2019_Jun_12_1259_377,stimulusRAMA04_2IFCnew_2019_Jun_12_1259_378,True,2019_Jun_12_1259,2IFCnew,3,RAMA04,
2IFCnew,39,0,39,0,0.33386699995,1,No,7,-1,Hit,0.500813100021,True,False,stimulusRAMA04_2IFCnew_2019_Jun_12_1259_379,stimulusRAMA04_2IFCnew_2019_Jun_12_1259_380,True,2019_Jun_12_1259,2IFCnew,3,RAMA04,
2IFCnew,40,0,40,0,0.266852600034,2,Yes,9.7,-1,Correct Rejection,0.600968299899,False,True,stimulusRAMA04_2IFCnew_2019_Jun_12_1259_381,stimulusRAMA04_2IFCnew_2019_Jun_12_1259_382,True,2019_Jun_12_1259,2IFCnew,3,RAMA04,
2IFCnew,41,0,41,0,0.302882200107,1,No,8.2,-1,Hit,0.468487699982,True,False,stimulusRAMA04_2IFCnew_2019_Jun_12_1259_383,stimulusRAMA04_2IFCnew_2019_Jun_12_1259_384,True,2019_Jun_12_1259,2IFCnew,3,RAMA04,
2IFCnew,42,0,42,0,0.333917699987,3,No,5,-1,False Alarm,0.633991400013,False,True,stimulusRAMA04_2IFCnew_2019_Jun_12_1259_385,stimulusRAMA04_2IFCnew_2019_Jun_12_1259_386,True,2019_Jun_12_1259,2IFCnew,3,RAMA04,
2IFCnew,43,0,43,0,0.233301899862,4,Yes,3.8,-1,Miss,0.467679300113,True,False,stimulusRAMA04_2IFCnew_2019_Jun_12_1259_387,stimulusRAMA04_2IFCnew_2019_Jun_12_1259_388,True,2019_Jun_12_1259,2IFCnew,3,RAMA04,
2IFCnew,44,0,44,0,0.167139099911,1,No,3.8,-1,Hit,0.434481099946,True,False,stimulusRAMA04_2IFCnew_2019_Jun_12_1259_389,stimulusRAMA04_2IFCnew_2019_Jun_12_1259_390,True,2019_Jun_12_1259,2IFCnew,3,RAMA04,
2IFCnew,45,0,45,0,0.50010569999,4,Yes,3.8,-1,Miss,0.500866200076,True,False,stimulusRAMA04_2IFCnew_2019_Jun_12_1259_391,stimulusRAMA04_2IFCnew_2019_Jun_12_1259_392,True,2019_Jun_12_1259,2IFCnew,3,RAMA04,
2IFCnew,46,0,46,0,0.533833099995,2,Yes,2.5,-1,Correct Rejection,0.567010300001,False,True,stimulusRAMA04_2IFCnew_2019_Jun_12_1259_393,stimulusRAMA04_2IFCnew_2019_Jun_12_1259_394,True,2019_Jun_12_1259,2IFCnew,3,RAMA04,
2IFCnew,47,0,47,0,0.40061680018,4,Yes,5,-1,Miss,0.599598899949,True,False,stimulusRAMA04_2IFCnew_2019_Jun_12_1259_395,stimulusRAMA04_2IFCnew_2019_Jun_12_1259_396,True,2019_Jun_12_1259,2IFCnew,3,RAMA04,
2IFCnew,48,0,48,0,0.366998099955,2,Yes,7,-1,Correct Rejection,0.567416199949,False,True,stimulusRAMA04_2IFCnew_2019_Jun_12_1259_397,stimulusRAMA04_2IFCnew_2019_Jun_12_1259_398,True,2019_Jun_12_1259,2IFCnew,3,RAMA04,
2IFCnew,49,0,49,0,0.267356999917,2,Yes,5,-1,Correct Rejection,0.533895599889,False,True,stimulusRAMA04_2IFCnew_2019_Jun_12_1259_399,stimulusRAMA04_2IFCnew_2019_Jun_12_1259_400,True,2019_Jun_12_1259,2IFCnew,3,RAMA04,
2IFCnew,50,0,50,0,0.265831499826,1,No,9.7,-1,Hit,0.534482799936,True,False,stimulusRAMA04_2IFCnew_2019_Jun_12_1259_401,stimulusRAMA04_2IFCnew_2019_Jun_12_1259_402,True,2019_Jun_12_1259,2IFCnew,3,RAMA04,
2IFCnew,51,0,51,0,0.533065699972,1,No,2.5,-1,Hit,0.467235499993,True,False,stimulusRAMA04_2IFCnew_2019_Jun_12_1259_403,stimulusRAMA04_2IFCnew_2019_Jun_12_1259_404,True,2019_Jun_12_1259,2IFCnew,3,RAMA04,
2IFCnew,52,0,52,0,0.26651789993,2,Yes,8.2,-1,Correct Rejection,0.634751199977,False,True,stimulusRAMA04_2IFCnew_2019_Jun_12_1259_405,stimulusRAMA04_2IFCnew_2019_Jun_12_1259_406,True,2019_Jun_12_1259,2IFCnew,3,RAMA04,
2IFCnew,53,0,53,0,0.300398099935,2,Yes,2.5,-1,Correct Rejection,0.567297199974,False,True,stimulusRAMA04_2IFCnew_2019_Jun_12_1259_407,stimulusRAMA04_2IFCnew_2019_Jun_12_1259_408,True,2019_Jun_12_1259,2IFCnew,3,RAMA04,
2IFCnew,54,0,54,0,0.266285200138,1,No,6,-1,Hit,0.534715499962,True,False,stimulusRAMA04_2IFCnew_2019_Jun_12_1259_409,stimulusRAMA04_2IFCnew_2019_Jun_12_1259_410,True,2019_Jun_12_1259,2IFCnew,3,RAMA04,
2IFCnew,55,0,55,0,0.300565100042,2,Yes,8.2,-1,Correct Rejection,0.567654600134,False,True,stimulusRAMA04_2IFCnew_2019_Jun_12_1259_411,stimulusRAMA04_2IFCnew_2019_Jun_12_1259_412,True,2019_Jun_12_1259,2IFCnew,3,RAMA04,
2IFCnew,56,0,56,0,0.167169400025,4,Yes,3.8,-1,Miss,0.467900099931,True,False,stimulusRAMA04_2IFCnew_2019_Jun_12_1259_413,stimulusRAMA04_2IFCnew_2019_Jun_12_1259_414,True,2019_Jun_12_1259,2IFCnew,3,RAMA04,
2IFCnew,57,0,57,0,0.333676300012,4,Yes,2.6,-1,Miss,0.566403600154,True,False,stimulusRAMA04_2IFCnew_2019_Jun_12_1259_415,stimulusRAMA04_2IFCnew_2019_Jun_12_1259_416,True,2019_Jun_12_1259,2IFCnew,3,RAMA04,
2IFCnew,58,0,58,0,0.499018399976,2,Yes,2.5,-1,Correct Rejection,0.601299899863,False,True,stimulusRAMA04_2IFCnew_2019_Jun_12_1259_417,stimulusRAMA04_2IFCnew_2019_Jun_12_1259_418,True,2019_Jun_12_1259,2IFCnew,3,RAMA04,
2IFCnew,59,0,59,0,0.36742549995,1,No,8.2,-1,Hit,0.467446099967,True,False,stimulusRAMA04_2IFCnew_2019_Jun_12_1259_419,stimulusRAMA04_2IFCnew_2019_Jun_12_1259_420,True,2019_Jun_12_1259,2IFCnew,3,RAMA04,
2IFCnew,60,0,60,0,0.367231199984,2,Yes,8.2,-1,Correct Rejection,0.568613899872,False,True,stimulusRAMA04_2IFCnew_2019_Jun_12_1259_421,stimulusRAMA04_2IFCnew_2019_Jun_12_1259_422,True,2019_Jun_12_1259,2IFCnew,3,RAMA04,
2IFCnew,61,0,61,0,0.399385299999,3,No,5,-1,False Alarm,0.567220999859,False,True,stimulusRAMA04_2IFCnew_2019_Jun_12_1259_423,stimulusRAMA04_2IFCnew_2019_Jun_12_1259_424,True,2019_Jun_12_1259,2IFCnew,3,RAMA04,
2IFCnew,62,0,62,0,0.333465199918,2,Yes,2.5,-1,Correct Rejection,0.534773499938,False,True,stimulusRAMA04_2IFCnew_2019_Jun_12_1259_425,stimulusRAMA04_2IFCnew_2019_Jun_12_1259_426,True,2019_Jun_12_1259,2IFCnew,3,RAMA04,
2IFCnew,63,0,63,0,0.334188600071,2,Yes,9.7,-1,Correct Rejection,0.534675899893,False,True,stimulusRAMA04_2IFCnew_2019_Jun_12_1259_427,stimulusRAMA04_2IFCnew_2019_Jun_12_1259_428,True,2019_Jun_12_1259,2IFCnew,3,RAMA04,
2IFCnew,64,0,64,0,0.299062300008,2,Yes,3.8,-1,Correct Rejection,0.532805299852,False,True,stimulusRAMA04_2IFCnew_2019_Jun_12_1259_429,stimulusRAMA04_2IFCnew_2019_Jun_12_1259_430,True,2019_Jun_12_1259,2IFCnew,3,RAMA04,
2IFCnew,65,0,65,0,0.299730799859,4,Yes,8.2,-1,Miss,0.533873499837,True,False,stimulusRAMA04_2IFCnew_2019_Jun_12_1259_431,stimulusRAMA04_2IFCnew_2019_Jun_12_1259_432,True,2019_Jun_12_1259,2IFCnew,3,RAMA04,
2IFCnew,66,0,66,0,0.166881999932,1,No,8.2,-1,Hit,0.367239500163,True,False,stimulusRAMA04_2IFCnew_2019_Jun_12_1259_433,stimulusRAMA04_2IFCnew_2019_Jun_12_1259_434,True,2019_Jun_12_1259,2IFCnew,3,RAMA04,
2IFCnew,67,0,67,0,0.367328200024,3,No,5,-1,False Alarm,0.668584099971,False,True,stimulusRAMA04_2IFCnew_2019_Jun_12_1259_435,stimulusRAMA04_2IFCnew_2019_Jun_12_1259_436,True,2019_Jun_12_1259,2IFCnew,3,RAMA04,
2IFCnew,68,0,68,0,0.266407900024,1,No,9.7,-1,Hit,0.56753790006,True,False,stimulusRAMA04_2IFCnew_2019_Jun_12_1259_437,stimulusRAMA04_2IFCnew_2019_Jun_12_1259_438,True,2019_Jun_12_1259,2IFCnew,3,RAMA04,
2IFCnew,69,0,69,0,0.332829099847,1,No,7,-1,Hit,0.434126199922,True,False,stimulusRAMA04_2IFCnew_2019_Jun_12_1259_439,stimulusRAMA04_2IFCnew_2019_Jun_12_1259_440,True,2019_Jun_12_1259,2IFCnew,3,RAMA04,
2IFCnew,70,0,70,0,0.400303799892,4,Yes,2.5,-1,Miss,0.667461900041,True,False,stimulusRAMA04_2IFCnew_2019_Jun_12_1259_441,stimulusRAMA04_2IFCnew_2019_Jun_12_1259_442,True,2019_Jun_12_1259,2IFCnew,3,RAMA04,
2IFCnew,71,0,71,0,0.299903499894,2,Yes,6,-1,Correct Rejection,0.570061000064,False,True,stimulusRAMA04_2IFCnew_2019_Jun_12_1259_443,stimulusRAMA04_2IFCnew_2019_Jun_12_1259_444,True,2019_Jun_12_1259,2IFCnew,3,RAMA04,
2IFCnew,72,0,72,0,0.267398399999,2,Yes,7,-1,Correct Rejection,0.499792600051,False,True,stimulusRAMA04_2IFCnew_2019_Jun_12_1259_445,stimulusRAMA04_2IFCnew_2019_Jun_12_1259_446,True,2019_Jun_12_1259,2IFCnew,3,RAMA04,
2IFCnew,73,0,73,0,0.299437700072,1,No,6,-1,Hit,0.534290500218,True,False,stimulusRAMA04_2IFCnew_2019_Jun_12_1259_447,stimulusRAMA04_2IFCnew_2019_Jun_12_1259_448,True,2019_Jun_12_1259,2IFCnew,3,RAMA04,
2IFCnew,74,0,74,0,0.234752099961,2,Yes,3.8,-1,Correct Rejection,0.500773599837,False,True,stimulusRAMA04_2IFCnew_2019_Jun_12_1259_449,stimulusRAMA04_2IFCnew_2019_Jun_12_1259_450,True,2019_Jun_12_1259,2IFCnew,3,RAMA04,
2IFCnew,0,0,0,0,0.433874600101,1,No,2.5,-1,Hit,0.567276200047,True,False,stimulusRAMA04_2IFCnew_2019_Jun_12_1259_451,stimulusRAMA04_2IFCnew_2019_Jun_12_1259_452,True,2019_Jun_12_1259,2IFCnew,3,RAMA04,
2IFCnew,1,0,1,0,0.668541100109,2,Yes,6,-1,Correct Rejection,0.634985699784,False,True,stimulusRAMA04_2IFCnew_2019_Jun_12_1259_453,stimulusRAMA04_2IFCnew_2019_Jun_12_1259_454,True,2019_Jun_12_1259,2IFCnew,3,RAMA04,
2IFCnew,2,0,2,0,0.333612699993,2,Yes,9.7,-1,Correct Rejection,0.5018784001,False,True,stimulusRAMA04_2IFCnew_2019_Jun_12_1259_455,stimulusRAMA04_2IFCnew_2019_Jun_12_1259_456,True,2019_Jun_12_1259,2IFCnew,3,RAMA04,
2IFCnew,3,0,3,0,0.300401599845,2,Yes,5,-1,Correct Rejection,0.501274900045,False,True,stimulusRAMA04_2IFCnew_2019_Jun_12_1259_457,stimulusRAMA04_2IFCnew_2019_Jun_12_1259_458,True,2019_Jun_12_1259,2IFCnew,3,RAMA04,
2IFCnew,4,0,4,0,0.300690799952,2,Yes,2.6,-1,Correct Rejection,0.600503700087,False,True,stimulusRAMA04_2IFCnew_2019_Jun_12_1259_459,stimulusRAMA04_2IFCnew_2019_Jun_12_1259_460,True,2019_Jun_12_1259,2IFCnew,3,RAMA04,
2IFCnew,5,0,5,0,0.300292399945,4,Yes,2.6,-1,Miss,0.50016029994,True,False,stimulusRAMA04_2IFCnew_2019_Jun_12_1259_461,stimulusRAMA04_2IFCnew_2019_Jun_12_1259_462,True,2019_Jun_12_1259,2IFCnew,3,RAMA04,
2IFCnew,6,0,6,0,0.20016420004,1,No,5,-1,Hit,0.364881900139,True,False,stimulusRAMA04_2IFCnew_2019_Jun_12_1259_463,stimulusRAMA04_2IFCnew_2019_Jun_12_1259_464,True,2019_Jun_12_1259,2IFCnew,3,RAMA04,
2IFCnew,7,0,7,0,0.567325300071,2,Yes,3.8,-1,Correct Rejection,0.532702099998,False,True,stimulusRAMA04_2IFCnew_2019_Jun_12_1259_465,stimulusRAMA04_2IFCnew_2019_Jun_12_1259_466,True,2019_Jun_12_1259,2IFCnew,3,RAMA04,
2IFCnew,8,0,8,0,0.300722299842,2,Yes,2.5,-1,Correct Rejection,0.466853099875,False,True,stimulusRAMA04_2IFCnew_2019_Jun_12_1259_467,stimulusRAMA04_2IFCnew_2019_Jun_12_1259_468,True,2019_Jun_12_1259,2IFCnew,3,RAMA04,
2IFCnew,9,0,9,0,0.33322879998,1,No,5,-1,Hit,0.56764919986,True,False,stimulusRAMA04_2IFCnew_2019_Jun_12_1259_469,stimulusRAMA04_2IFCnew_2019_Jun_12_1259_470,True,2019_Jun_12_1259,2IFCnew,3,RAMA04,
2IFCnew,10,0,10,0,0.267658299999,2,Yes,2.5,-1,Correct Rejection,0.500586900162,False,True,stimulusRAMA04_2IFCnew_2019_Jun_12_1259_471,stimulusRAMA04_2IFCnew_2019_Jun_12_1259_472,True,2019_Jun_12_1259,2IFCnew,3,RAMA04,
2IFCnew,11,0,11,0,0.5000306,7,Yes,5,-1,Hit,0.467140199849,True,False,stimulusRAMA04_2IFCnew_2019_Jun_12_1259_473,stimulusRAMA04_2IFCnew_2019_Jun_12_1259_474,True,2019_Jun_12_1259,2IFCnew,3,RAMA04,
2IFCnew,12,0,12,0,0.433665399905,4,Yes,2.6,-1,Miss,0.566746699857,True,False,stimulusRAMA04_2IFCnew_2019_Jun_12_1259_475,stimulusRAMA04_2IFCnew_2019_Jun_12_1259_476,True,2019_Jun_12_1259,2IFCnew,3,RAMA04,
2IFCnew,13,0,13,0,0.200457999948,1,No,7,-1,Hit,0.500751600135,True,False,stimulusRAMA04_2IFCnew_2019_Jun_12_1259_477,stimulusRAMA04_2IFCnew_2019_Jun_12_1259_478,True,2019_Jun_12_1259,2IFCnew,3,RAMA04,
2IFCnew,14,0,14,0,0.26709139999,2,Yes,5,-1,Correct Rejection,0.534074199852,False,True,stimulusRAMA04_2IFCnew_2019_Jun_12_1259_479,stimulusRAMA04_2IFCnew_2019_Jun_12_1259_480,True,2019_Jun_12_1259,2IFCnew,3,RAMA04,
2IFCnew,15,0,15,0,0.333891300019,2,Yes,2.6,-1,Correct Rejection,0.601065600058,False,True,stimulusRAMA04_2IFCnew_2019_Jun_12_1259_481,stimulusRAMA04_2IFCnew_2019_Jun_12_1259_482,True,2019_Jun_12_1259,2IFCnew,3,RAMA04,
2IFCnew,16,0,16,0,0.366968899965,1,No,2.5,-1,Hit,0.667612900026,True,False,stimulusRAMA04_2IFCnew_2019_Jun_12_1259_483,stimulusRAMA04_2IFCnew_2019_Jun_12_1259_484,True,2019_Jun_12_1259,2IFCnew,3,RAMA04,
2IFCnew,17,0,17,0,0.234039000003,2,Yes,2.5,-1,Correct Rejection,0.53395349998,False,True,stimulusRAMA04_2IFCnew_2019_Jun_12_1259_485,stimulusRAMA04_2IFCnew_2019_Jun_12_1259_486,True,2019_Jun_12_1259,2IFCnew,3,RAMA04,
2IFCnew,18,0,18,0,0.233416799922,4,Yes,3.8,-1,Miss,0.501395300031,True,False,stimulusRAMA04_2IFCnew_2019_Jun_12_1259_487,stimulusRAMA04_2IFCnew_2019_Jun_12_1259_488,True,2019_Jun_12_1259,2IFCnew,3,RAMA04,
2IFCnew,19,0,19,0,0.467330300016,1,No,6,-1,Hit,0.465716999955,True,False,stimulusRAMA04_2IFCnew_2019_Jun_12_1259_489,stimulusRAMA04_2IFCnew_2019_Jun_12_1259_490,True,2019_Jun_12_1259,2IFCnew,3,RAMA04,
2IFCnew,20,0,20,0,0.734147300012,4,Yes,5,-1,Miss,0.600946800085,True,False,stimulusRAMA04_2IFCnew_2019_Jun_12_1259_491,stimulusRAMA04_2IFCnew_2019_Jun_12_1259_492,True,2019_Jun_12_1259,2IFCnew,3,RAMA04,
2IFCnew,21,0,21,0,-1,2,Yes,7,-1,False Alarm,0.499271600042,False,True,stimulusRAMA04_2IFCnew_2019_Jun_12_1259_493,stimulusRAMA04_2IFCnew_2019_Jun_12_1259_494,True,2019_Jun_12_1259,2IFCnew,3,RAMA04,
2IFCnew,22,0,22,0,0.333879299928,1,No,6,-1,Hit,0.502277299995,True,False,stimulusRAMA04_2IFCnew_2019_Jun_12_1259_495,stimulusRAMA04_2IFCnew_2019_Jun_12_1259_496,True,2019_Jun_12_1259,2IFCnew,3,RAMA04,
2IFCnew,23,0,23,0,0.300722300075,2,Yes,8.2,-1,Correct Rejection,0.568163399817,False,True,stimulusRAMA04_2IFCnew_2019_Jun_12_1259_497,stimulusRAMA04_2IFCnew_2019_Jun_12_1259_498,True,2019_Jun_12_1259,2IFCnew,3,RAMA04,
2IFCnew,24,0,24,0,0.266165999928,1,No,5,-1,Hit,0.533992199926,True,False,stimulusRAMA04_2IFCnew_2019_Jun_12_1259_499,stimulusRAMA04_2IFCnew_2019_Jun_12_1259_500,True,2019_Jun_12_1259,2IFCnew,3,RAMA04,
2IFCnew,25,0,25,0,0.300769999856,4,Yes,2.6,-1,Miss,0.534804400057,True,False,stimulusRAMA04_2IFCnew_2019_Jun_12_1259_501,stimulusRAMA04_2IFCnew_2019_Jun_12_1259_502,True,2019_Jun_12_1259,2IFCnew,3,RAMA04,
2IFCnew,26,0,26,0,0.334845799953,7,Yes,7,-1,Hit,0.600573000032,True,False,stimulusRAMA04_2IFCnew_2019_Jun_12_1259_503,stimulusRAMA04_2IFCnew_2019_Jun_12_1259_504,True,2019_Jun_12_1259,2IFCnew,3,RAMA04,
2IFCnew,27,0,27,0,0.267295199912,2,Yes,2.6,-1,Correct Rejection,0.600857199868,False,True,stimulusRAMA04_2IFCnew_2019_Jun_12_1259_505,stimulusRAMA04_2IFCnew_2019_Jun_12_1259_506,True,2019_Jun_12_1259,2IFCnew,3,RAMA04,
2IFCnew,28,0,28,0,0.233704000013,1,No,9.7,-1,Hit,0.46952360007,True,False,stimulusRAMA04_2IFCnew_2019_Jun_12_1259_507,stimulusRAMA04_2IFCnew_2019_Jun_12_1259_508,True,2019_Jun_12_1259,2IFCnew,3,RAMA04,
2IFCnew,29,0,29,0,0.235499700066,1,No,6,-1,Hit,0.432833899977,True,False,stimulusRAMA04_2IFCnew_2019_Jun_12_1259_509,stimulusRAMA04_2IFCnew_2019_Jun_12_1259_510,True,2019_Jun_12_1259,2IFCnew,3,RAMA04,
2IFCnew,30,0,30,0,0.267222099937,2,Yes,9.7,-1,Correct Rejection,0.489458100172,False,True,stimulusRAMA04_2IFCnew_2019_Jun_12_1259_511,stimulusRAMA04_2IFCnew_2019_Jun_12_1259_512,True,2019_Jun_12_1259,2IFCnew,3,RAMA04,
2IFCnew,31,0,31,0,0.200523699867,2,Yes,6,-1,Correct Rejection,0.533539300086,False,True,stimulusRAMA04_2IFCnew_2019_Jun_12_1259_513,stimulusRAMA04_2IFCnew_2019_Jun_12_1259_514,True,2019_Jun_12_1259,2IFCnew,3,RAMA04,
2IFCnew,32,0,32,0,0.132718499983,1,No,7,-1,Hit,0.500539899804,True,False,stimulusRAMA04_2IFCnew_2019_Jun_12_1259_515,stimulusRAMA04_2IFCnew_2019_Jun_12_1259_516,True,2019_Jun_12_1259,2IFCnew,3,RAMA04,
2IFCnew,33,0,33,0,0.400517500006,3,No,6,-1,False Alarm,0.567888800055,False,True,stimulusRAMA04_2IFCnew_2019_Jun_12_1259_517,stimulusRAMA04_2IFCnew_2019_Jun_12_1259_518,True,2019_Jun_12_1259,2IFCnew,3,RAMA04,
2IFCnew,34,0,34,0,0.266198900063,4,Yes,2.5,-1,Miss,0.567489700159,True,False,stimulusRAMA04_2IFCnew_2019_Jun_12_1259_519,stimulusRAMA04_2IFCnew_2019_Jun_12_1259_520,True,2019_Jun_12_1259,2IFCnew,3,RAMA04,
2IFCnew,35,0,35,0,-1,0,Yes,6,-1,No Answer,-1,True,False,stimulusRAMA04_2IFCnew_2019_Jun_12_1259_521,stimulusRAMA04_2IFCnew_2019_Jun_12_1259_522,True,2019_Jun_12_1259,2IFCnew,3,RAMA04,
2IFCnew,36,0,36,0,0.16659040004,1,No,7,-1,Hit,0.499238800025,True,False,stimulusRAMA04_2IFCnew_2019_Jun_12_1259_523,stimulusRAMA04_2IFCnew_2019_Jun_12_1259_524,True,2019_Jun_12_1259,2IFCnew,3,RAMA04,
2IFCnew,37,0,37,0,0.266754500102,4,Yes,3.8,-1,Miss,0.567783799954,True,False,stimulusRAMA04_2IFCnew_2019_Jun_12_1259_525,stimulusRAMA04_2IFCnew_2019_Jun_12_1259_526,True,2019_Jun_12_1259,2IFCnew,3,RAMA04,
2IFCnew,38,0,38,0,0.200410400052,3,No,2.6,-1,False Alarm,0.500957200071,False,True,stimulusRAMA04_2IFCnew_2019_Jun_12_1259_527,stimulusRAMA04_2IFCnew_2019_Jun_12_1259_528,True,2019_Jun_12_1259,2IFCnew,3,RAMA04,
2IFCnew,39,0,39,0,0.43411380006,1,No,3.8,-1,Hit,0.60082559986,True,False,stimulusRAMA04_2IFCnew_2019_Jun_12_1259_529,stimulusRAMA04_2IFCnew_2019_Jun_12_1259_530,True,2019_Jun_12_1259,2IFCnew,3,RAMA04,
2IFCnew,40,0,40,0,0.233597500017,2,Yes,2.5,-1,Correct Rejection,0.601072099991,False,True,stimulusRAMA04_2IFCnew_2019_Jun_12_1259_531,stimulusRAMA04_2IFCnew_2019_Jun_12_1259_532,True,2019_Jun_12_1259,2IFCnew,3,RAMA04,
2IFCnew,41,0,41,0,-1,4,Yes,2.6,-1,Miss,0.601085299859,True,False,stimulusRAMA04_2IFCnew_2019_Jun_12_1259_533,stimulusRAMA04_2IFCnew_2019_Jun_12_1259_534,True,2019_Jun_12_1259,2IFCnew,3,RAMA04,
2IFCnew,42,0,42,0,0.500226800097,3,No,9.7,-1,False Alarm,0.467219499871,False,True,stimulusRAMA04_2IFCnew_2019_Jun_12_1259_535,stimulusRAMA04_2IFCnew_2019_Jun_12_1259_536,True,2019_Jun_12_1259,2IFCnew,3,RAMA04,
2IFCnew,43,0,43,0,0.468071700074,6,No,2.5,-1,Miss,0.632351699984,True,False,stimulusRAMA04_2IFCnew_2019_Jun_12_1259_537,stimulusRAMA04_2IFCnew_2019_Jun_12_1259_538,True,2019_Jun_12_1259,2IFCnew,3,RAMA04,
2IFCnew,44,0,44,0,-1,1,No,3.8,-1,Hit,0.533954199869,True,False,stimulusRAMA04_2IFCnew_2019_Jun_12_1259_539,stimulusRAMA04_2IFCnew_2019_Jun_12_1259_540,True,2019_Jun_12_1259,2IFCnew,3,RAMA04,
2IFCnew,45,0,45,0,0.367128400132,4,Yes,3.8,-1,Miss,0.567527099978,True,False,stimulusRAMA04_2IFCnew_2019_Jun_12_1259_541,stimulusRAMA04_2IFCnew_2019_Jun_12_1259_542,True,2019_Jun_12_1259,2IFCnew,3,RAMA04,
2IFCnew,46,0,46,0,0.600664099911,1,No,5,-1,Hit,0.467907299986,True,False,stimulusRAMA04_2IFCnew_2019_Jun_12_1259_543,stimulusRAMA04_2IFCnew_2019_Jun_12_1259_544,True,2019_Jun_12_1259,2IFCnew,3,RAMA04,
2IFCnew,47,0,47,0,0.331654899986,2,Yes,9.7,-1,Correct Rejection,0.602154300082,False,True,stimulusRAMA04_2IFCnew_2019_Jun_12_1259_545,stimulusRAMA04_2IFCnew_2019_Jun_12_1259_546,True,2019_Jun_12_1259,2IFCnew,3,RAMA04,
2IFCnew,48,0,48,0,0.333789599827,2,Yes,2.6,-1,Correct Rejection,0.566699899966,False,True,stimulusRAMA04_2IFCnew_2019_Jun_12_1259_547,stimulusRAMA04_2IFCnew_2019_Jun_12_1259_548,True,2019_Jun_12_1259,2IFCnew,3,RAMA04,
2IFCnew,49,0,49,0,0.298974700039,2,Yes,2.5,-1,Correct Rejection,0.534399199998,False,True,stimulusRAMA04_2IFCnew_2019_Jun_12_1259_549,stimulusRAMA04_2IFCnew_2019_Jun_12_1259_550,True,2019_Jun_12_1259,2IFCnew,3,RAMA04,
2IFCnew,50,0,50,0,0.200251700124,1,No,7,-1,Hit,0.534525400028,True,False,stimulusRAMA04_2IFCnew_2019_Jun_12_1259_551,stimulusRAMA04_2IFCnew_2019_Jun_12_1259_552,True,2019_Jun_12_1259,2IFCnew,3,RAMA04,
2IFCnew,51,0,51,0,0.233312499942,1,No,9.7,-1,Hit,0.467366500059,True,False,stimulusRAMA04_2IFCnew_2019_Jun_12_1259_553,stimulusRAMA04_2IFCnew_2019_Jun_12_1259_554,True,2019_Jun_12_1259,2IFCnew,3,RAMA04,
2IFCnew,52,0,52,0,0.266947900178,1,No,5,-1,Hit,0.533618699992,True,False,stimulusRAMA04_2IFCnew_2019_Jun_12_1259_555,stimulusRAMA04_2IFCnew_2019_Jun_12_1259_556,True,2019_Jun_12_1259,2IFCnew,3,RAMA04,
2IFCnew,53,0,53,0,0.134152899962,2,Yes,6,-1,Correct Rejection,0.433949599974,False,True,stimulusRAMA04_2IFCnew_2019_Jun_12_1259_557,stimulusRAMA04_2IFCnew_2019_Jun_12_1259_558,True,2019_Jun_12_1259,2IFCnew,3,RAMA04,
2IFCnew,54,0,54,0,0.367189999903,8,No,3.8,-1,Correct Rejection,0.499792000046,False,True,stimulusRAMA04_2IFCnew_2019_Jun_12_1259_559,stimulusRAMA04_2IFCnew_2019_Jun_12_1259_560,True,2019_Jun_12_1259,2IFCnew,3,RAMA04,
2IFCnew,55,0,55,0,0.30085140001,4,Yes,2.5,-1,Miss,0.534875399899,True,False,stimulusRAMA04_2IFCnew_2019_Jun_12_1259_561,stimulusRAMA04_2IFCnew_2019_Jun_12_1259_562,True,2019_Jun_12_1259,2IFCnew,3,RAMA04,
2IFCnew,56,0,56,0,0.565052899998,2,Yes,5,-1,Correct Rejection,0.601104100002,False,True,stimulusRAMA04_2IFCnew_2019_Jun_12_1259_563,stimulusRAMA04_2IFCnew_2019_Jun_12_1259_564,True,2019_Jun_12_1259,2IFCnew,3,RAMA04,
2IFCnew,57,0,57,0,0.465957100037,2,Yes,9.7,-1,Correct Rejection,0.501219900092,False,True,stimulusRAMA04_2IFCnew_2019_Jun_12_1259_565,stimulusRAMA04_2IFCnew_2019_Jun_12_1259_566,True,2019_Jun_12_1259,2IFCnew,3,RAMA04,
2IFCnew,58,0,58,0,0.234591100132,3,No,7,-1,False Alarm,0.501450000098,False,True,stimulusRAMA04_2IFCnew_2019_Jun_12_1259_567,stimulusRAMA04_2IFCnew_2019_Jun_12_1259_568,True,2019_Jun_12_1259,2IFCnew,3,RAMA04,
2IFCnew,59,0,59,0,0.467150900047,3,No,2.6,-1,False Alarm,0.434004500043,False,True,stimulusRAMA04_2IFCnew_2019_Jun_12_1259_569,stimulusRAMA04_2IFCnew_2019_Jun_12_1259_570,True,2019_Jun_12_1259,2IFCnew,3,RAMA04,
2IFCnew,60,0,60,0,0.30054870015,2,Yes,8.2,-1,Correct Rejection,0.500468400074,False,True,stimulusRAMA04_2IFCnew_2019_Jun_12_1259_571,stimulusRAMA04_2IFCnew_2019_Jun_12_1259_572,True,2019_Jun_12_1259,2IFCnew,3,RAMA04,
2IFCnew,61,0,61,0,0.399084800156,2,Yes,3.8,-1,Correct Rejection,0.601275299909,False,True,stimulusRAMA04_2IFCnew_2019_Jun_12_1259_573,stimulusRAMA04_2IFCnew_2019_Jun_12_1259_574,True,2019_Jun_12_1259,2IFCnew,3,RAMA04,
2IFCnew,62,0,62,0,0.435132799903,2,Yes,2.6,-1,Correct Rejection,0.533715699799,False,True,stimulusRAMA04_2IFCnew_2019_Jun_12_1259_575,stimulusRAMA04_2IFCnew_2019_Jun_12_1259_576,True,2019_Jun_12_1259,2IFCnew,3,RAMA04,
2IFCnew,63,0,63,0,0.233693399932,1,No,9.7,-1,Hit,0.500287499977,True,False,stimulusRAMA04_2IFCnew_2019_Jun_12_1259_577,stimulusRAMA04_2IFCnew_2019_Jun_12_1259_578,True,2019_Jun_12_1259,2IFCnew,3,RAMA04,
2IFCnew,64,0,64,0,0.333838899853,1,No,2.6,-1,Hit,0.500460099895,True,False,stimulusRAMA04_2IFCnew_2019_Jun_12_1259_579,stimulusRAMA04_2IFCnew_2019_Jun_12_1259_580,True,2019_Jun_12_1259,2IFCnew,3,RAMA04,
2IFCnew,65,0,65,0,0.467009900138,3,No,5,-1,False Alarm,0.66751249996,False,True,stimulusRAMA04_2IFCnew_2019_Jun_12_1259_581,stimulusRAMA04_2IFCnew_2019_Jun_12_1259_582,True,2019_Jun_12_1259,2IFCnew,3,RAMA04,
2IFCnew,66,0,66,0,0.30064559984,2,Yes,3.8,-1,Correct Rejection,0.501688699936,False,True,stimulusRAMA04_2IFCnew_2019_Jun_12_1259_583,stimulusRAMA04_2IFCnew_2019_Jun_12_1259_584,True,2019_Jun_12_1259,2IFCnew,3,RAMA04,
2IFCnew,67,0,67,0,0.766564500052,1,No,2.5,-1,Hit,0.466900400119,True,False,stimulusRAMA04_2IFCnew_2019_Jun_12_1259_585,stimulusRAMA04_2IFCnew_2019_Jun_12_1259_586,True,2019_Jun_12_1259,2IFCnew,3,RAMA04,
2IFCnew,68,0,68,0,0.466875700047,2,Yes,9.7,-1,Correct Rejection,0.567349300021,False,True,stimulusRAMA04_2IFCnew_2019_Jun_12_1259_587,stimulusRAMA04_2IFCnew_2019_Jun_12_1259_588,True,2019_Jun_12_1259,2IFCnew,3,RAMA04,
2IFCnew,69,0,69,0,0.433460999979,6,No,8.2,-1,Miss,0.500686999876,True,False,stimulusRAMA04_2IFCnew_2019_Jun_12_1259_589,stimulusRAMA04_2IFCnew_2019_Jun_12_1259_590,True,2019_Jun_12_1259,2IFCnew,3,RAMA04,
2IFCnew,70,0,70,0,0.634397499962,6,No,5,-1,Miss,0.466930600116,True,False,stimulusRAMA04_2IFCnew_2019_Jun_12_1259_591,stimulusRAMA04_2IFCnew_2019_Jun_12_1259_592,True,2019_Jun_12_1259,2IFCnew,3,RAMA04,
2IFCnew,71,0,71,0,0.400374900084,6,No,9.7,-1,Miss,0.499076100066,True,False,stimulusRAMA04_2IFCnew_2019_Jun_12_1259_593,stimulusRAMA04_2IFCnew_2019_Jun_12_1259_594,True,2019_Jun_12_1259,2IFCnew,3,RAMA04,
2IFCnew,72,0,72,0,0.334554400062,1,No,6,-1,Hit,0.467827200191,True,False,stimulusRAMA04_2IFCnew_2019_Jun_12_1259_595,stimulusRAMA04_2IFCnew_2019_Jun_12_1259_596,True,2019_Jun_12_1259,2IFCnew,3,RAMA04,
2IFCnew,73,0,73,0,0.700765699847,4,Yes,2.6,-1,Miss,0.73404520005,True,False,stimulusRAMA04_2IFCnew_2019_Jun_12_1259_597,stimulusRAMA04_2IFCnew_2019_Jun_12_1259_598,True,2019_Jun_12_1259,2IFCnew,3,RAMA04,
2IFCnew,74,0,74,0,0.633739200188,1,No,2.6,-1,Hit,0.6675024,True,False,stimulusRAMA04_2IFCnew_2019_Jun_12_1259_599,stimulusRAMA04_2IFCnew_2019_Jun_12_1259_600,True,2019_Jun_12_1259,2IFCnew,3,RAMA04,
2IFCnew,0,0,0,0,0.500860000029,1,No,6,-1,Hit,0.601285499986,True,False,stimulusRAMA04_2IFCnew_2019_Jun_12_1259_601,stimulusRAMA04_2IFCnew_2019_Jun_12_1259_602,True,2019_Jun_12_1259,2IFCnew,3,RAMA04,
2IFCnew,1,0,1,0,0.366994099924,1,No,6,-1,Hit,0.4339683,True,False,stimulusRAMA04_2IFCnew_2019_Jun_12_1259_603,stimulusRAMA04_2IFCnew_2019_Jun_12_1259_604,True,2019_Jun_12_1259,2IFCnew,3,RAMA04,
2IFCnew,2,0,2,0,0.333190900041,1,No,5,-1,Hit,0.567822699901,True,False,stimulusRAMA04_2IFCnew_2019_Jun_12_1259_605,stimulusRAMA04_2IFCnew_2019_Jun_12_1259_606,True,2019_Jun_12_1259,2IFCnew,3,RAMA04,
2IFCnew,3,0,3,0,0.266950799851,3,No,6,-1,False Alarm,0.367145499913,False,True,stimulusRAMA04_2IFCnew_2019_Jun_12_1259_607,stimulusRAMA04_2IFCnew_2019_Jun_12_1259_608,True,2019_Jun_12_1259,2IFCnew,3,RAMA04,
2IFCnew,4,0,4,0,0.432499600109,4,Yes,5,-1,Miss,0.467173000099,True,False,stimulusRAMA04_2IFCnew_2019_Jun_12_1259_609,stimulusRAMA04_2IFCnew_2019_Jun_12_1259_610,True,2019_Jun_12_1259,2IFCnew,3,RAMA04,
2IFCnew,5,0,5,0,0.36735179997,3,No,2.5,-1,False Alarm,0.434060599888,False,True,stimulusRAMA04_2IFCnew_2019_Jun_12_1259_611,stimulusRAMA04_2IFCnew_2019_Jun_12_1259_612,True,2019_Jun_12_1259,2IFCnew,3,RAMA04,
2IFCnew,6,0,6,0,0.26710630022,2,Yes,9.7,-1,Correct Rejection,0.566630599787,False,True,stimulusRAMA04_2IFCnew_2019_Jun_12_1259_613,stimulusRAMA04_2IFCnew_2019_Jun_12_1259_614,True,2019_Jun_12_1259,2IFCnew,3,RAMA04,
2IFCnew,7,0,7,0,0.300766099943,2,Yes,2.6,-1,Correct Rejection,0.634958200157,False,True,stimulusRAMA04_2IFCnew_2019_Jun_12_1259_615,stimulusRAMA04_2IFCnew_2019_Jun_12_1259_616,True,2019_Jun_12_1259,2IFCnew,3,RAMA04,
2IFCnew,8,0,8,0,0.301242900081,3,No,2.6,-1,False Alarm,0.500821799971,False,True,stimulusRAMA04_2IFCnew_2019_Jun_12_1259_617,stimulusRAMA04_2IFCnew_2019_Jun_12_1259_618,True,2019_Jun_12_1259,2IFCnew,3,RAMA04,
2IFCnew,9,0,9,0,0.269331099931,5,Yes,8.2,-1,False Alarm,0.401716900058,False,True,stimulusRAMA04_2IFCnew_2019_Jun_12_1259_619,stimulusRAMA04_2IFCnew_2019_Jun_12_1259_620,True,2019_Jun_12_1259,2IFCnew,3,RAMA04,
2IFCnew,10,0,10,0,0.333064300008,4,Yes,2.6,-1,Miss,0.534429499879,True,False,stimulusRAMA04_2IFCnew_2019_Jun_12_1259_621,stimulusRAMA04_2IFCnew_2019_Jun_12_1259_622,True,2019_Jun_12_1259,2IFCnew,3,RAMA04,
2IFCnew,11,0,11,0,0.433791299816,2,Yes,6,-1,Correct Rejection,0.500332500087,False,True,stimulusRAMA04_2IFCnew_2019_Jun_12_1259_623,stimulusRAMA04_2IFCnew_2019_Jun_12_1259_624,True,2019_Jun_12_1259,2IFCnew,3,RAMA04,
2IFCnew,12,0,12,0,0.267221599817,1,No,9.7,-1,Hit,0.533873900073,True,False,stimulusRAMA04_2IFCnew_2019_Jun_12_1259_625,stimulusRAMA04_2IFCnew_2019_Jun_12_1259_626,True,2019_Jun_12_1259,2IFCnew,3,RAMA04,
2IFCnew,13,0,13,0,0.333677000133,2,Yes,3.8,-1,Correct Rejection,0.53422570019,False,True,stimulusRAMA04_2IFCnew_2019_Jun_12_1259_627,stimulusRAMA04_2IFCnew_2019_Jun_12_1259_628,True,2019_Jun_12_1259,2IFCnew,3,RAMA04,
2IFCnew,14,0,14,0,0.40080250008,2,Yes,5,-1,Correct Rejection,0.535829199944,False,True,stimulusRAMA04_2IFCnew_2019_Jun_12_1259_629,stimulusRAMA04_2IFCnew_2019_Jun_12_1259_630,True,2019_Jun_12_1259,2IFCnew,3,RAMA04,
2IFCnew,15,0,15,0,0.399238199927,1,No,3.8,-1,Hit,0.534253799822,True,False,stimulusRAMA04_2IFCnew_2019_Jun_12_1259_631,stimulusRAMA04_2IFCnew_2019_Jun_12_1259_632,True,2019_Jun_12_1259,2IFCnew,3,RAMA04,
2IFCnew,16,0,16,0,0.167007599957,2,Yes,3.8,-1,Correct Rejection,0.467620800016,False,True,stimulusRAMA04_2IFCnew_2019_Jun_12_1259_633,stimulusRAMA04_2IFCnew_2019_Jun_12_1259_634,True,2019_Jun_12_1259,2IFCnew,3,RAMA04,
2IFCnew,17,0,17,0,0.266779300058,4,Yes,2.6,-1,Miss,0.467673300067,True,False,stimulusRAMA04_2IFCnew_2019_Jun_12_1259_635,stimulusRAMA04_2IFCnew_2019_Jun_12_1259_636,True,2019_Jun_12_1259,2IFCnew,3,RAMA04,
2IFCnew,18,0,18,0,0.299192599952,3,No,9.7,-1,False Alarm,0.366379100131,False,True,stimulusRAMA04_2IFCnew_2019_Jun_12_1259_637,stimulusRAMA04_2IFCnew_2019_Jun_12_1259_638,True,2019_Jun_12_1259,2IFCnew,3,RAMA04,
2IFCnew,19,0,19,0,0.267080900026,4,Yes,2.6,-1,Miss,0.434847700177,True,False,stimulusRAMA04_2IFCnew_2019_Jun_12_1259_639,stimulusRAMA04_2IFCnew_2019_Jun_12_1259_640,True,2019_Jun_12_1259,2IFCnew,3,RAMA04,
2IFCnew,20,0,20,0,0.432695500087,2,Yes,8.2,-1,Correct Rejection,0.432371099945,False,True,stimulusRAMA04_2IFCnew_2019_Jun_12_1259_641,stimulusRAMA04_2IFCnew_2019_Jun_12_1259_642,True,2019_Jun_12_1259,2IFCnew,3,RAMA04,
2IFCnew,21,0,21,0,0.367299600039,2,Yes,3.8,-1,Correct Rejection,0.600490600104,False,True,stimulusRAMA04_2IFCnew_2019_Jun_12_1259_643,stimulusRAMA04_2IFCnew_2019_Jun_12_1259_644,True,2019_Jun_12_1259,2IFCnew,3,RAMA04,
2IFCnew,22,0,22,0,0.267424499849,4,Yes,2.6,-1,Miss,0.466823899886,True,False,stimulusRAMA04_2IFCnew_2019_Jun_12_1259_645,stimulusRAMA04_2IFCnew_2019_Jun_12_1259_646,True,2019_Jun_12_1259,2IFCnew,3,RAMA04,
2IFCnew,23,0,23,0,0.333430400118,3,No,5,-1,False Alarm,0.400351300137,False,True,stimulusRAMA04_2IFCnew_2019_Jun_12_1259_647,stimulusRAMA04_2IFCnew_2019_Jun_12_1259_648,True,2019_Jun_12_1259,2IFCnew,3,RAMA04,
2IFCnew,24,0,24,0,0.533857299946,1,No,7,-1,Hit,0.767377000069,True,False,stimulusRAMA04_2IFCnew_2019_Jun_12_1259_649,stimulusRAMA04_2IFCnew_2019_Jun_12_1259_650,True,2019_Jun_12_1259,2IFCnew,3,RAMA04,
2IFCnew,25,0,25,0,0.297119700117,4,Yes,3.8,-1,Miss,0.432273000013,True,False,stimulusRAMA04_2IFCnew_2019_Jun_12_1259_651,stimulusRAMA04_2IFCnew_2019_Jun_12_1259_652,True,2019_Jun_12_1259,2IFCnew,3,RAMA04,
2IFCnew,26,0,26,0,0.29918229999,6,No,5,-1,Miss,0.46738619986,True,False,stimulusRAMA04_2IFCnew_2019_Jun_12_1259_653,stimulusRAMA04_2IFCnew_2019_Jun_12_1259_654,True,2019_Jun_12_1259,2IFCnew,3,RAMA04,
2IFCnew,27,0,27,0,0.433878300013,2,Yes,5,-1,Correct Rejection,0.467319800053,False,True,stimulusRAMA04_2IFCnew_2019_Jun_12_1259_655,stimulusRAMA04_2IFCnew_2019_Jun_12_1259_656,True,2019_Jun_12_1259,2IFCnew,3,RAMA04,
2IFCnew,28,0,28,0,0.367081000004,2,Yes,8.2,-1,Correct Rejection,0.498838099884,False,True,stimulusRAMA04_2IFCnew_2019_Jun_12_1259_657,stimulusRAMA04_2IFCnew_2019_Jun_12_1259_658,True,2019_Jun_12_1259,2IFCnew,3,RAMA04,
2IFCnew,29,0,29,0,0.300982599845,2,Yes,9.7,-1,Correct Rejection,0.468411199981,False,True,stimulusRAMA04_2IFCnew_2019_Jun_12_1259_659,stimulusRAMA04_2IFCnew_2019_Jun_12_1259_660,True,2019_Jun_12_1259,2IFCnew,3,RAMA04,
2IFCnew,30,0,30,0,0.833901599981,2,Yes,8.2,-1,Correct Rejection,0.400552400155,False,True,stimulusRAMA04_2IFCnew_2019_Jun_12_1259_661,stimulusRAMA04_2IFCnew_2019_Jun_12_1259_662,True,2019_Jun_12_1259,2IFCnew,3,RAMA04,
2IFCnew,31,0,31,0,0.699134099996,2,Yes,2.6,-1,Correct Rejection,0.734814899974,False,True,stimulusRAMA04_2IFCnew_2019_Jun_12_1259_663,stimulusRAMA04_2IFCnew_2019_Jun_12_1259_664,True,2019_Jun_12_1259,2IFCnew,3,RAMA04,
2IFCnew,32,0,32,0,0.534993699985,6,No,2.6,-1,Miss,0.533149100142,True,False,stimulusRAMA04_2IFCnew_2019_Jun_12_1259_665,stimulusRAMA04_2IFCnew_2019_Jun_12_1259_666,True,2019_Jun_12_1259,2IFCnew,3,RAMA04,
2IFCnew,33,0,33,0,0.39985539997,2,Yes,9.7,-1,Correct Rejection,0.467176999897,False,True,stimulusRAMA04_2IFCnew_2019_Jun_12_1259_667,stimulusRAMA04_2IFCnew_2019_Jun_12_1259_668,True,2019_Jun_12_1259,2IFCnew,3,RAMA04,
2IFCnew,34,0,34,0,0.734223200008,3,No,9.7,-1,False Alarm,0.667280300055,False,True,stimulusRAMA04_2IFCnew_2019_Jun_12_1259_669,stimulusRAMA04_2IFCnew_2019_Jun_12_1259_670,True,2019_Jun_12_1259,2IFCnew,3,RAMA04,
2IFCnew,35,0,35,0,0.434038999956,2,Yes,2.5,-1,Correct Rejection,0.601845700061,False,True,stimulusRAMA04_2IFCnew_2019_Jun_12_1259_671,stimulusRAMA04_2IFCnew_2019_Jun_12_1259_672,True,2019_Jun_12_1259,2IFCnew,3,RAMA04,
2IFCnew,36,0,36,0,0.400474099908,2,Yes,3.8,-1,Correct Rejection,0.533698200015,False,True,stimulusRAMA04_2IFCnew_2019_Jun_12_1259_673,stimulusRAMA04_2IFCnew_2019_Jun_12_1259_674,True,2019_Jun_12_1259,2IFCnew,3,RAMA04,
2IFCnew,37,0,37,0,0.635060800007,6,No,3.8,-1,Miss,0.433773400029,True,False,stimulusRAMA04_2IFCnew_2019_Jun_12_1259_675,stimulusRAMA04_2IFCnew_2019_Jun_12_1259_676,True,2019_Jun_12_1259,2IFCnew,3,RAMA04,
2IFCnew,38,0,38,0,0.567875100067,6,No,2.5,-1,Miss,0.469407000113,True,False,stimulusRAMA04_2IFCnew_2019_Jun_12_1259_677,stimulusRAMA04_2IFCnew_2019_Jun_12_1259_678,True,2019_Jun_12_1259,2IFCnew,3,RAMA04,
2IFCnew,39,0,39,0,0.564432000043,2,Yes,5,-1,Correct Rejection,0.399797099875,False,True,stimulusRAMA04_2IFCnew_2019_Jun_12_1259_679,stimulusRAMA04_2IFCnew_2019_Jun_12_1259_680,True,2019_Jun_12_1259,2IFCnew,3,RAMA04,
2IFCnew,40,0,40,0,0.533706600079,6,No,2.5,-1,Miss,0.433880999917,True,False,stimulusRAMA04_2IFCnew_2019_Jun_12_1259_681,stimulusRAMA04_2IFCnew_2019_Jun_12_1259_682,True,2019_Jun_12_1259,2IFCnew,3,RAMA04,
2IFCnew,41,0,41,0,0.133690000046,6,No,8.2,-1,Miss,0.36675860011,True,False,stimulusRAMA04_2IFCnew_2019_Jun_12_1259_683,stimulusRAMA04_2IFCnew_2019_Jun_12_1259_684,True,2019_Jun_12_1259,2IFCnew,3,RAMA04,
2IFCnew,42,0,42,0,0.600962599972,6,No,6,-1,Miss,0.50050100009,True,False,stimulusRAMA04_2IFCnew_2019_Jun_12_1259_685,stimulusRAMA04_2IFCnew_2019_Jun_12_1259_686,True,2019_Jun_12_1259,2IFCnew,3,RAMA04,
2IFCnew,43,0,43,0,0.334055499872,1,No,8.2,-1,Hit,0.499917000066,True,False,stimulusRAMA04_2IFCnew_2019_Jun_12_1259_687,stimulusRAMA04_2IFCnew_2019_Jun_12_1259_688,True,2019_Jun_12_1259,2IFCnew,3,RAMA04,
2IFCnew,44,0,44,0,0.399855700089,2,Yes,2.6,-1,Correct Rejection,0.500406500185,False,True,stimulusRAMA04_2IFCnew_2019_Jun_12_1259_689,stimulusRAMA04_2IFCnew_2019_Jun_12_1259_690,True,2019_Jun_12_1259,2IFCnew,3,RAMA04,
2IFCnew,45,0,45,0,0.599901800044,2,Yes,9.7,-1,Correct Rejection,0.50054170005,False,True,stimulusRAMA04_2IFCnew_2019_Jun_12_1259_691,stimulusRAMA04_2IFCnew_2019_Jun_12_1259_692,True,2019_Jun_12_1259,2IFCnew,3,RAMA04,
2IFCnew,46,0,46,0,0.36491029989,2,Yes,6,-1,Correct Rejection,0.533867599908,False,True,stimulusRAMA04_2IFCnew_2019_Jun_12_1259_693,stimulusRAMA04_2IFCnew_2019_Jun_12_1259_694,True,2019_Jun_12_1259,2IFCnew,3,RAMA04,
2IFCnew,47,0,47,0,0.167333699996,1,No,6,-1,Hit,0.499117399799,True,False,stimulusRAMA04_2IFCnew_2019_Jun_12_1259_695,stimulusRAMA04_2IFCnew_2019_Jun_12_1259_696,True,2019_Jun_12_1259,2IFCnew,3,RAMA04,
2IFCnew,48,0,48,0,0.533857200062,1,No,2.6,-1,Hit,0.566534799989,True,False,stimulusRAMA04_2IFCnew_2019_Jun_12_1259_697,stimulusRAMA04_2IFCnew_2019_Jun_12_1259_698,True,2019_Jun_12_1259,2IFCnew,3,RAMA04,
2IFCnew,49,0,49,0,0.267446799902,1,No,6,-1,Hit,0.668740099994,True,False,stimulusRAMA04_2IFCnew_2019_Jun_12_1259_699,stimulusRAMA04_2IFCnew_2019_Jun_12_1259_700,True,2019_Jun_12_1259,2IFCnew,3,RAMA04,
2IFCnew,50,0,50,0,0.166499600047,1,No,3.8,-1,Hit,0.3670456002,True,False,stimulusRAMA04_2IFCnew_2019_Jun_12_1259_701,stimulusRAMA04_2IFCnew_2019_Jun_12_1259_702,True,2019_Jun_12_1259,2IFCnew,3,RAMA04,
2IFCnew,51,0,51,0,0.367724200012,5,Yes,8.2,-1,False Alarm,0.434478100156,False,True,stimulusRAMA04_2IFCnew_2019_Jun_12_1259_703,stimulusRAMA04_2IFCnew_2019_Jun_12_1259_704,True,2019_Jun_12_1259,2IFCnew,3,RAMA04,
2IFCnew,52,0,52,0,0.265814900165,2,Yes,5,-1,Correct Rejection,0.602343800012,False,True,stimulusRAMA04_2IFCnew_2019_Jun_12_1259_705,stimulusRAMA04_2IFCnew_2019_Jun_12_1259_706,True,2019_Jun_12_1259,2IFCnew,3,RAMA04,
2IFCnew,53,0,53,0,0.26725429995,1,No,9.7,-1,Hit,0.43570069992,True,False,stimulusRAMA04_2IFCnew_2019_Jun_12_1259_707,stimulusRAMA04_2IFCnew_2019_Jun_12_1259_708,True,2019_Jun_12_1259,2IFCnew,3,RAMA04,
2IFCnew,54,0,54,0,0.26721239998,2,Yes,2.6,-1,Correct Rejection,0.532042700099,False,True,stimulusRAMA04_2IFCnew_2019_Jun_12_1259_709,stimulusRAMA04_2IFCnew_2019_Jun_12_1259_710,True,2019_Jun_12_1259,2IFCnew,3,RAMA04,
2IFCnew,55,0,55,0,0.300484500127,2,Yes,8.2,-1,Correct Rejection,0.532520500012,False,True,stimulusRAMA04_2IFCnew_2019_Jun_12_1259_711,stimulusRAMA04_2IFCnew_2019_Jun_12_1259_712,True,2019_Jun_12_1259,2IFCnew,3,RAMA04,
2IFCnew,56,0,56,0,0.300050699851,1,No,2.5,-1,Hit,0.46732200007,True,False,stimulusRAMA04_2IFCnew_2019_Jun_12_1259_713,stimulusRAMA04_2IFCnew_2019_Jun_12_1259_714,True,2019_Jun_12_1259,2IFCnew,3,RAMA04,
2IFCnew,57,0,57,0,0.334784899838,1,No,7,-1,Hit,0.467247599969,True,False,stimulusRAMA04_2IFCnew_2019_Jun_12_1259_715,stimulusRAMA04_2IFCnew_2019_Jun_12_1259_716,True,2019_Jun_12_1259,2IFCnew,3,RAMA04,
2IFCnew,58,0,58,0,0.332640000153,1,No,2.5,-1,Hit,0.499926500022,True,False,stimulusRAMA04_2IFCnew_2019_Jun_12_1259_717,stimulusRAMA04_2IFCnew_2019_Jun_12_1259_718,True,2019_Jun_12_1259,2IFCnew,3,RAMA04,
2IFCnew,59,0,59,0,0.300440800143,2,Yes,6,-1,Correct Rejection,0.533867100021,False,True,stimulusRAMA04_2IFCnew_2019_Jun_12_1259_719,stimulusRAMA04_2IFCnew_2019_Jun_12_1259_720,True,2019_Jun_12_1259,2IFCnew,3,RAMA04,
2IFCnew,60,0,60,0,0.269978799857,2,Yes,3.8,-1,Correct Rejection,0.533730000025,False,True,stimulusRAMA04_2IFCnew_2019_Jun_12_1259_721,stimulusRAMA04_2IFCnew_2019_Jun_12_1259_722,True,2019_Jun_12_1259,2IFCnew,3,RAMA04,
2IFCnew,61,0,61,0,0.333908200031,1,No,8.2,-1,Hit,0.534051799914,True,False,stimulusRAMA04_2IFCnew_2019_Jun_12_1259_723,stimulusRAMA04_2IFCnew_2019_Jun_12_1259_724,True,2019_Jun_12_1259,2IFCnew,3,RAMA04,
2IFCnew,62,0,62,0,0.333910299931,2,Yes,6,-1,Correct Rejection,0.534115200164,False,True,stimulusRAMA04_2IFCnew_2019_Jun_12_1259_725,stimulusRAMA04_2IFCnew_2019_Jun_12_1259_726,True,2019_Jun_12_1259,2IFCnew,3,RAMA04,
2IFCnew,63,0,63,0,0.400161999976,1,No,6,-1,Hit,0.499998999992,True,False,stimulusRAMA04_2IFCnew_2019_Jun_12_1259_727,stimulusRAMA04_2IFCnew_2019_Jun_12_1259_728,True,2019_Jun_12_1259,2IFCnew,3,RAMA04,
2IFCnew,64,0,64,0,0.366684899898,8,No,3.8,-1,Correct Rejection,0.566962500103,False,True,stimulusRAMA04_2IFCnew_2019_Jun_12_1259_729,stimulusRAMA04_2IFCnew_2019_Jun_12_1259_730,True,2019_Jun_12_1259,2IFCnew,3,RAMA04,
2IFCnew,65,0,65,0,0.333744799951,1,No,7,-1,Hit,0.366058700019,True,False,stimulusRAMA04_2IFCnew_2019_Jun_12_1259_731,stimulusRAMA04_2IFCnew_2019_Jun_12_1259_732,True,2019_Jun_12_1259,2IFCnew,3,RAMA04,
2IFCnew,66,0,66,0,0.299470399972,2,Yes,3.8,-1,Correct Rejection,0.467487399932,False,True,stimulusRAMA04_2IFCnew_2019_Jun_12_1259_733,stimulusRAMA04_2IFCnew_2019_Jun_12_1259_734,True,2019_Jun_12_1259,2IFCnew,3,RAMA04,
2IFCnew,67,0,67,0,0.30111479992,2,Yes,9.7,-1,Correct Rejection,0.599214900052,False,True,stimulusRAMA04_2IFCnew_2019_Jun_12_1259_735,stimulusRAMA04_2IFCnew_2019_Jun_12_1259_736,True,2019_Jun_12_1259,2IFCnew,3,RAMA04,
2IFCnew,68,0,68,0,0.334284999873,1,No,2.6,-1,Hit,0.567502099788,True,False,stimulusRAMA04_2IFCnew_2019_Jun_12_1259_737,stimulusRAMA04_2IFCnew_2019_Jun_12_1259_738,True,2019_Jun_12_1259,2IFCnew,3,RAMA04,
2IFCnew,69,0,69,0,0.299842500128,4,Yes,3.8,-1,Miss,0.567115500104,True,False,stimulusRAMA04_2IFCnew_2019_Jun_12_1259_739,stimulusRAMA04_2IFCnew_2019_Jun_12_1259_740,True,2019_Jun_12_1259,2IFCnew,3,RAMA04,
2IFCnew,70,0,70,0,0.300505100051,1,No,8.2,-1,Hit,0.433353199856,True,False,stimulusRAMA04_2IFCnew_2019_Jun_12_1259_741,stimulusRAMA04_2IFCnew_2019_Jun_12_1259_742,True,2019_Jun_12_1259,2IFCnew,3,RAMA04,
2IFCnew,71,0,71,0,0.333489800105,1,No,8.2,-1,Hit,0.435899199918,True,False,stimulusRAMA04_2IFCnew_2019_Jun_12_1259_743,stimulusRAMA04_2IFCnew_2019_Jun_12_1259_744,True,2019_Jun_12_1259,2IFCnew,3,RAMA04,
2IFCnew,72,0,72,0,0.334070200101,5,Yes,9.7,-1,False Alarm,0.468186100014,False,True,stimulusRAMA04_2IFCnew_2019_Jun_12_1259_745,stimulusRAMA04_2IFCnew_2019_Jun_12_1259_746,True,2019_Jun_12_1259,2IFCnew,3,RAMA04,
2IFCnew,73,0,73,0,0.399387900019,4,Yes,3.8,-1,Miss,0.567505599931,True,False,stimulusRAMA04_2IFCnew_2019_Jun_12_1259_747,stimulusRAMA04_2IFCnew_2019_Jun_12_1259_748,True,2019_Jun_12_1259,2IFCnew,3,RAMA04,
2IFCnew,74,0,74,0,0.299282399938,2,Yes,2.6,-1,Correct Rejection,0.533854599809,False,True,stimulusRAMA04_2IFCnew_2019_Jun_12_1259_749,stimulusRAMA04_2IFCnew_2019_Jun_12_1259_750,True,2019_Jun_12_1259,2IFCnew,3,RAMA04,
2IFCnew,0,0,0,0,0.46677509998,1,No,9.7,-1,Hit,0.53406230011,True,False,stimulusRAMA04_2IFCnew_2019_Jun_12_1259_751,stimulusRAMA04_2IFCnew_2019_Jun_12_1259_752,True,2019_Jun_12_1259,2IFCnew,3,RAMA04,
2IFCnew,1,0,1,0,0.300424100133,4,Yes,2.5,-1,Miss,0.433572000125,True,False,stimulusRAMA04_2IFCnew_2019_Jun_12_1259_753,stimulusRAMA04_2IFCnew_2019_Jun_12_1259_754,True,2019_Jun_12_1259,2IFCnew,3,RAMA04,
2IFCnew,2,0,2,0,0.267147899838,1,No,5,-1,Hit,0.367504500085,True,False,stimulusRAMA04_2IFCnew_2019_Jun_12_1259_755,stimulusRAMA04_2IFCnew_2019_Jun_12_1259_756,True,2019_Jun_12_1259,2IFCnew,3,RAMA04,
2IFCnew,3,0,3,0,0.300732900156,2,Yes,5,-1,Correct Rejection,0.50092729996,False,True,stimulusRAMA04_2IFCnew_2019_Jun_12_1259_757,stimulusRAMA04_2IFCnew_2019_Jun_12_1259_758,True,2019_Jun_12_1259,2IFCnew,3,RAMA04,
2IFCnew,4,0,4,0,0.767418399919,3,No,2.6,-1,False Alarm,0.501269500004,False,True,stimulusRAMA04_2IFCnew_2019_Jun_12_1259_759,stimulusRAMA04_2IFCnew_2019_Jun_12_1259_760,True,2019_Jun_12_1259,2IFCnew,3,RAMA04,
2IFCnew,5,0,5,0,0.300433400087,4,Yes,2.5,-1,Miss,0.400464400183,True,False,stimulusRAMA04_2IFCnew_2019_Jun_12_1259_761,stimulusRAMA04_2IFCnew_2019_Jun_12_1259_762,True,2019_Jun_12_1259,2IFCnew,3,RAMA04,
2IFCnew,6,0,6,0,0.300739999861,4,Yes,2.5,-1,Miss,0.466487499885,True,False,stimulusRAMA04_2IFCnew_2019_Jun_12_1259_763,stimulusRAMA04_2IFCnew_2019_Jun_12_1259_764,True,2019_Jun_12_1259,2IFCnew,3,RAMA04,
2IFCnew,7,0,7,0,0.399295399897,2,Yes,7,-1,Correct Rejection,0.500610300107,False,True,stimulusRAMA04_2IFCnew_2019_Jun_12_1259_765,stimulusRAMA04_2IFCnew_2019_Jun_12_1259_766,True,2019_Jun_12_1259,2IFCnew,3,RAMA04,
2IFCnew,8,0,8,0,0.300703600049,2,Yes,5,-1,Correct Rejection,0.466010999866,False,True,stimulusRAMA04_2IFCnew_2019_Jun_12_1259_767,stimulusRAMA04_2IFCnew_2019_Jun_12_1259_768,True,2019_Jun_12_1259,2IFCnew,3,RAMA04,
2IFCnew,9,0,9,0,0.333190599922,2,Yes,8.2,-1,Correct Rejection,0.400694599841,False,True,stimulusRAMA04_2IFCnew_2019_Jun_12_1259_769,stimulusRAMA04_2IFCnew_2019_Jun_12_1259_770,True,2019_Jun_12_1259,2IFCnew,3,RAMA04,
2IFCnew,10,0,10,0,0.333950300002,2,Yes,3.8,-1,Correct Rejection,0.533879800001,False,True,stimulusRAMA04_2IFCnew_2019_Jun_12_1259_771,stimulusRAMA04_2IFCnew_2019_Jun_12_1259_772,True,2019_Jun_12_1259,2IFCnew,3,RAMA04,
2IFCnew,11,0,11,0,0.300585299963,2,Yes,7,-1,Correct Rejection,0.366488799918,False,True,stimulusRAMA04_2IFCnew_2019_Jun_12_1259_773,stimulusRAMA04_2IFCnew_2019_Jun_12_1259_774,True,2019_Jun_12_1259,2IFCnew,3,RAMA04,
2IFCnew,12,0,12,0,0.266903599957,1,No,6,-1,Hit,0.500336299883,True,False,stimulusRAMA04_2IFCnew_2019_Jun_12_1259_775,stimulusRAMA04_2IFCnew_2019_Jun_12_1259_776,True,2019_Jun_12_1259,2IFCnew,3,RAMA04,
2IFCnew,13,0,13,0,0.13362629991,1,No,8.2,-1,Hit,0.400753200054,True,False,stimulusRAMA04_2IFCnew_2019_Jun_12_1259_777,stimulusRAMA04_2IFCnew_2019_Jun_12_1259_778,True,2019_Jun_12_1259,2IFCnew,3,RAMA04,
2IFCnew,14,0,14,0,0.233852199977,5,Yes,3.8,-1,False Alarm,0.333607599838,False,True,stimulusRAMA04_2IFCnew_2019_Jun_12_1259_779,stimulusRAMA04_2IFCnew_2019_Jun_12_1259_780,True,2019_Jun_12_1259,2IFCnew,3,RAMA04,
2IFCnew,15,0,15,0,0.200568499975,1,No,9.7,-1,Hit,0.43505729991,True,False,stimulusRAMA04_2IFCnew_2019_Jun_12_1259_781,stimulusRAMA04_2IFCnew_2019_Jun_12_1259_782,True,2019_Jun_12_1259,2IFCnew,3,RAMA04,
2IFCnew,16,0,16,0,0.13290080009,2,Yes,7,-1,Correct Rejection,0.40094610001,False,True,stimulusRAMA04_2IFCnew_2019_Jun_12_1259_783,stimulusRAMA04_2IFCnew_2019_Jun_12_1259_784,True,2019_Jun_12_1259,2IFCnew,3,RAMA04,
2IFCnew,17,0,17,0,0.133919700049,2,Yes,8.2,-1,Correct Rejection,0.367196300067,False,True,stimulusRAMA04_2IFCnew_2019_Jun_12_1259_785,stimulusRAMA04_2IFCnew_2019_Jun_12_1259_786,True,2019_Jun_12_1259,2IFCnew,3,RAMA04,
2IFCnew,18,0,18,0,0.267850199947,2,Yes,5,-1,Correct Rejection,0.433953,False,True,stimulusRAMA04_2IFCnew_2019_Jun_12_1259_787,stimulusRAMA04_2IFCnew_2019_Jun_12_1259_788,True,2019_Jun_12_1259,2IFCnew,3,RAMA04,
2IFCnew,19,0,19,0,0.200272399932,6,No,7,-1,Miss,0.367705099983,True,False,stimulusRAMA04_2IFCnew_2019_Jun_12_1259_789,stimulusRAMA04_2IFCnew_2019_Jun_12_1259_790,True,2019_Jun_12_1259,2IFCnew,3,RAMA04,
2IFCnew,20,0,20,0,0.299242299981,2,Yes,7,-1,Correct Rejection,0.467787500005,False,True,stimulusRAMA04_2IFCnew_2019_Jun_12_1259_791,stimulusRAMA04_2IFCnew_2019_Jun_12_1259_792,True,2019_Jun_12_1259,2IFCnew,3,RAMA04,
2IFCnew,21,0,21,0,0.300533199916,1,No,8.2,-1,Hit,0.467498400016,True,False,stimulusRAMA04_2IFCnew_2019_Jun_12_1259_793,stimulusRAMA04_2IFCnew_2019_Jun_12_1259_794,True,2019_Jun_12_1259,2IFCnew,3,RAMA04,
2IFCnew,22,0,22,0,0.300348500023,1,No,6,-1,Hit,0.467717499938,True,False,stimulusRAMA04_2IFCnew_2019_Jun_12_1259_795,stimulusRAMA04_2IFCnew_2019_Jun_12_1259_796,True,2019_Jun_12_1259,2IFCnew,3,RAMA04,
2IFCnew,23,0,23,0,0.767600800144,5,Yes,7,-1,False Alarm,0.468524500029,False,True,stimulusRAMA04_2IFCnew_2019_Jun_12_1259_797,stimulusRAMA04_2IFCnew_2019_Jun_12_1259_798,True,2019_Jun_12_1259,2IFCnew,3,RAMA04,
2IFCnew,24,0,24,0,0.300359299872,1,No,9.7,-1,Hit,0.399123900104,True,False,stimulusRAMA04_2IFCnew_2019_Jun_12_1259_799,stimulusRAMA04_2IFCnew_2019_Jun_12_1259_800,True,2019_Jun_12_1259,2IFCnew,3,RAMA04,
2IFCnew,25,0,25,0,0.299773599952,4,Yes,2.6,-1,Miss,0.46724119992,True,False,stimulusRAMA04_2IFCnew_2019_Jun_12_1259_801,stimulusRAMA04_2IFCnew_2019_Jun_12_1259_802,True,2019_Jun_12_1259,2IFCnew,3,RAMA04,
2IFCnew,26,0,26,0,0.568106399849,5,Yes,2.5,-1,False Alarm,0.335255699931,False,True,stimulusRAMA04_2IFCnew_2019_Jun_12_1259_803,stimulusRAMA04_2IFCnew_2019_Jun_12_1259_804,True,2019_Jun_12_1259,2IFCnew,3,RAMA04,
2IFCnew,27,0,27,0,0.299887700006,2,Yes,5,-1,Correct Rejection,0.500981499907,False,True,stimulusRAMA04_2IFCnew_2019_Jun_12_1259_805,stimulusRAMA04_2IFCnew_2019_Jun_12_1259_806,True,2019_Jun_12_1259,2IFCnew,3,RAMA04,
2IFCnew,28,0,28,0,0.232296600007,2,Yes,7,-1,Correct Rejection,0.433888699859,False,True,stimulusRAMA04_2IFCnew_2019_Jun_12_1259_807,stimulusRAMA04_2IFCnew_2019_Jun_12_1259_808,True,2019_Jun_12_1259,2IFCnew,3,RAMA04,
2IFCnew,29,0,29,0,0.333414499881,2,Yes,8.2,-1,Correct Rejection,0.534425400198,False,True,stimulusRAMA04_2IFCnew_2019_Jun_12_1259_809,stimulusRAMA04_2IFCnew_2019_Jun_12_1259_810,True,2019_Jun_12_1259,2IFCnew,3,RAMA04,
2IFCnew,30,0,30,0,0.300344499992,1,No,3.8,-1,Hit,0.533812200185,True,False,stimulusRAMA04_2IFCnew_2019_Jun_12_1259_811,stimulusRAMA04_2IFCnew_2019_Jun_12_1259_812,True,2019_Jun_12_1259,2IFCnew,3,RAMA04,
2IFCnew,31,0,31,0,0.500642100116,1,No,8.2,-1,Hit,0.534072699957,True,False,stimulusRAMA04_2IFCnew_2019_Jun_12_1259_813,stimulusRAMA04_2IFCnew_2019_Jun_12_1259_814,True,2019_Jun_12_1259,2IFCnew,3,RAMA04,
2IFCnew,32,0,32,0,0.333868699847,4,Yes,2.5,-1,Miss,0.668153199833,True,False,stimulusRAMA04_2IFCnew_2019_Jun_12_1259_815,stimulusRAMA04_2IFCnew_2019_Jun_12_1259_816,True,2019_Jun_12_1259,2IFCnew,3,RAMA04,
2IFCnew,33,0,33,0,0.200115600135,1,No,9.7,-1,Hit,0.333798500011,True,False,stimulusRAMA04_2IFCnew_2019_Jun_12_1259_817,stimulusRAMA04_2IFCnew_2019_Jun_12_1259_818,True,2019_Jun_12_1259,2IFCnew,3,RAMA04,
2IFCnew,34,0,34,0,0.233543400187,1,No,6,-1,Hit,0.366459399927,True,False,stimulusRAMA04_2IFCnew_2019_Jun_12_1259_819,stimulusRAMA04_2IFCnew_2019_Jun_12_1259_820,True,2019_Jun_12_1259,2IFCnew,3,RAMA04,
2IFCnew,35,0,35,0,0.302475599805,2,Yes,3.8,-1,Correct Rejection,0.50094100018,False,True,stimulusRAMA04_2IFCnew_2019_Jun_12_1259_821,stimulusRAMA04_2IFCnew_2019_Jun_12_1259_822,True,2019_Jun_12_1259,2IFCnew,3,RAMA04,
2IFCnew,36,0,36,0,0.299762200098,1,No,6,-1,Hit,0.500888800016,True,False,stimulusRAMA04_2IFCnew_2019_Jun_12_1259_823,stimulusRAMA04_2IFCnew_2019_Jun_12_1259_824,True,2019_Jun_12_1259,2IFCnew,3,RAMA04,
2IFCnew,37,0,37,0,0.36752560013,2,Yes,8.2,-1,Correct Rejection,0.534483700059,False,True,stimulusRAMA04_2IFCnew_2019_Jun_12_1259_825,stimulusRAMA04_2IFCnew_2019_Jun_12_1259_826,True,2019_Jun_12_1259,2IFCnew,3,RAMA04,
2IFCnew,38,0,38,0,0.299168099882,1,No,7,-1,Hit,0.433640799951,True,False,stimulusRAMA04_2IFCnew_2019_Jun_12_1259_827,stimulusRAMA04_2IFCnew_2019_Jun_12_1259_828,True,2019_Jun_12_1259,2IFCnew,3,RAMA04,
2IFCnew,39,0,39,0,0.36612949986,1,No,7,-1,Hit,0.46741290018,True,False,stimulusRAMA04_2IFCnew_2019_Jun_12_1259_829,stimulusRAMA04_2IFCnew_2019_Jun_12_1259_830,True,2019_Jun_12_1259,2IFCnew,3,RAMA04,
2IFCnew,40,0,40,0,0.235466900049,2,Yes,2.5,-1,Correct Rejection,0.536327500129,False,True,stimulusRAMA04_2IFCnew_2019_Jun_12_1259_831,stimulusRAMA04_2IFCnew_2019_Jun_12_1259_832,True,2019_Jun_12_1259,2IFCnew,3,RAMA04,
2IFCnew,41,0,41,0,0.300671699923,4,Yes,6,-1,Miss,0.567567300051,True,False,stimulusRAMA04_2IFCnew_2019_Jun_12_1259_833,stimulusRAMA04_2IFCnew_2019_Jun_12_1259_834,True,2019_Jun_12_1259,2IFCnew,3,RAMA04,
2IFCnew,42,0,42,0,0.566744800191,7,Yes,2.6,-1,Hit,0.400979199912,True,False,stimulusRAMA04_2IFCnew_2019_Jun_12_1259_835,stimulusRAMA04_2IFCnew_2019_Jun_12_1259_836,True,2019_Jun_12_1259,2IFCnew,3,RAMA04,
2IFCnew,43,0,43,0,0.300330800004,1,No,5,-1,Hit,0.433666100027,True,False,stimulusRAMA04_2IFCnew_2019_Jun_12_1259_837,stimulusRAMA04_2IFCnew_2019_Jun_12_1259_838,True,2019_Jun_12_1259,2IFCnew,3,RAMA04,
2IFCnew,44,0,44,0,0.333806900075,2,Yes,9.7,-1,Correct Rejection,0.533823000034,False,True,stimulusRAMA04_2IFCnew_2019_Jun_12_1259_839,stimulusRAMA04_2IFCnew_2019_Jun_12_1259_840,True,2019_Jun_12_1259,2IFCnew,3,RAMA04,
2IFCnew,45,0,45,0,0.265776499873,2,Yes,3.8,-1,Correct Rejection,0.500213499879,False,True,stimulusRAMA04_2IFCnew_2019_Jun_12_1259_841,stimulusRAMA04_2IFCnew_2019_Jun_12_1259_842,True,2019_Jun_12_1259,2IFCnew,3,RAMA04,
2IFCnew,46,0,46,0,0.300226900028,1,No,5,-1,Hit,0.568229100201,True,False,stimulusRAMA04_2IFCnew_2019_Jun_12_1259_843,stimulusRAMA04_2IFCnew_2019_Jun_12_1259_844,True,2019_Jun_12_1259,2IFCnew,3,RAMA04,
2IFCnew,47,0,47,0,0.333850000054,2,Yes,6,-1,Correct Rejection,0.634925199905,False,True,stimulusRAMA04_2IFCnew_2019_Jun_12_1259_845,stimulusRAMA04_2IFCnew_2019_Jun_12_1259_846,True,2019_Jun_12_1259,2IFCnew,3,RAMA04,
2IFCnew,48,0,48,0,0.300525899976,1,No,2.5,-1,Hit,0.468079400016,True,False,stimulusRAMA04_2IFCnew_2019_Jun_12_1259_847,stimulusRAMA04_2IFCnew_2019_Jun_12_1259_848,True,2019_Jun_12_1259,2IFCnew,3,RAMA04,
2IFCnew,49,0,49,0,0.334169000154,2,Yes,9.7,-1,Correct Rejection,0.700904600089,False,True,stimulusRAMA04_2IFCnew_2019_Jun_12_1259_849,stimulusRAMA04_2IFCnew_2019_Jun_12_1259_850,True,2019_Jun_12_1259,2IFCnew,3,RAMA04,
2IFCnew,50,0,50,0,0.266760999803,2,Yes,2.6,-1,Correct Rejection,0.533545299899,False,True,stimulusRAMA04_2IFCnew_2019_Jun_12_1259_851,stimulusRAMA04_2IFCnew_2019_Jun_12_1259_852,True,2019_Jun_12_1259,2IFCnew,3,RAMA04,
2IFCnew,51,0,51,0,0.299981599906,4,Yes,2.6,-1,Miss,0.533730400028,True,False,stimulusRAMA04_2IFCnew_2019_Jun_12_1259_853,stimulusRAMA04_2IFCnew_2019_Jun_12_1259_854,True,2019_Jun_12_1259,2IFCnew,3,RAMA04,
2IFCnew,52,0,52,0,0.46680309996,3,No,3.8,-1,False Alarm,0.435371399857,False,True,stimulusRAMA04_2IFCnew_2019_Jun_12_1259_855,stimulusRAMA04_2IFCnew_2019_Jun_12_1259_856,True,2019_Jun_12_1259,2IFCnew,3,RAMA04,
2IFCnew,53,0,53,0,0.734127300093,3,No,6,-1,False Alarm,0.800604599994,False,True,stimulusRAMA04_2IFCnew_2019_Jun_12_1259_857,stimulusRAMA04_2IFCnew_2019_Jun_12_1259_858,True,2019_Jun_12_1259,2IFCnew,3,RAMA04,
2IFCnew,54,0,54,0,0.336624799995,2,Yes,9.7,-1,Correct Rejection,0.601091800025,False,True,stimulusRAMA04_2IFCnew_2019_Jun_12_1259_859,stimulusRAMA04_2IFCnew_2019_Jun_12_1259_860,True,2019_Jun_12_1259,2IFCnew,3,RAMA04,
2IFCnew,55,0,55,0,0.267109999899,1,No,8.2,-1,Hit,0.434063399909,True,False,stimulusRAMA04_2IFCnew_2019_Jun_12_1259_861,stimulusRAMA04_2IFCnew_2019_Jun_12_1259_862,True,2019_Jun_12_1259,2IFCnew,3,RAMA04,
2IFCnew,56,0,56,0,0.332653099904,2,Yes,8.2,-1,Correct Rejection,0.567547699902,False,True,stimulusRAMA04_2IFCnew_2019_Jun_12_1259_863,stimulusRAMA04_2IFCnew_2019_Jun_12_1259_864,True,2019_Jun_12_1259,2IFCnew,3,RAMA04,
2IFCnew,57,0,57,0,0.333937099902,2,Yes,2.5,-1,Correct Rejection,0.568022900028,False,True,stimulusRAMA04_2IFCnew_2019_Jun_12_1259_865,stimulusRAMA04_2IFCnew_2019_Jun_12_1259_866,True,2019_Jun_12_1259,2IFCnew,3,RAMA04,
2IFCnew,58,0,58,0,0.434093500022,6,No,2.5,-1,Miss,0.499662799994,True,False,stimulusRAMA04_2IFCnew_2019_Jun_12_1259_867,stimulusRAMA04_2IFCnew_2019_Jun_12_1259_868,True,2019_Jun_12_1259,2IFCnew,3,RAMA04,
2IFCnew,59,0,59,0,0.434479399817,6,No,8.2,-1,Miss,0.433121900074,True,False,stimulusRAMA04_2IFCnew_2019_Jun_12_1259_869,stimulusRAMA04_2IFCnew_2019_Jun_12_1259_870,True,2019_Jun_12_1259,2IFCnew,3,RAMA04,
2IFCnew,60,0,60,0,0.400853700005,6,No,2.6,-1,Miss,0.400592399994,True,False,stimulusRAMA04_2IFCnew_2019_Jun_12_1259_871,stimulusRAMA04_2IFCnew_2019_Jun_12_1259_872,True,2019_Jun_12_1259,2IFCnew,3,RAMA04,
2IFCnew,61,0,61,0,0.266517699929,2,Yes,5,-1,Correct Rejection,0.400831399951,False,True,stimulusRAMA04_2IFCnew_2019_Jun_12_1259_873,stimulusRAMA04_2IFCnew_2019_Jun_12_1259_874,True,2019_Jun_12_1259,2IFCnew,3,RAMA04,
2IFCnew,62,0,62,0,0.300114899874,2,Yes,7,-1,Correct Rejection,0.501432999969,False,True,stimulusRAMA04_2IFCnew_2019_Jun_12_1259_875,stimulusRAMA04_2IFCnew_2019_Jun_12_1259_876,True,2019_Jun_12_1259,2IFCnew,3,RAMA04,
2IFCnew,63,0,63,0,0.266243200051,1,No,9.7,-1,Hit,0.534193299944,True,False,stimulusRAMA04_2IFCnew_2019_Jun_12_1259_877,stimulusRAMA04_2IFCnew_2019_Jun_12_1259_878,True,2019_Jun_12_1259,2IFCnew,3,RAMA04,
2IFCnew,64,0,64,0,0.300724599976,4,Yes,2.5,-1,Miss,0.499922099989,True,False,stimulusRAMA04_2IFCnew_2019_Jun_12_1259_879,stimulusRAMA04_2IFCnew_2019_Jun_12_1259_880,True,2019_Jun_12_1259,2IFCnew,3,RAMA04,
2IFCnew,65,0,65,0,0.267222399823,2,Yes,2.5,-1,Correct Rejection,0.501306899823,False,True,stimulusRAMA04_2IFCnew_2019_Jun_12_1259_881,stimulusRAMA04_2IFCnew_2019_Jun_12_1259_882,True,2019_Jun_12_1259,2IFCnew,3,RAMA04,
2IFCnew,66,0,66,0,0.167329299962,2,Yes,6,-1,Correct Rejection,0.43441700004,False,True,stimulusRAMA04_2IFCnew_2019_Jun_12_1259_883,stimulusRAMA04_2IFCnew_2019_Jun_12_1259_884,True,2019_Jun_12_1259,2IFCnew,3,RAMA04,
2IFCnew,67,0,67,0,0.366517599905,7,Yes,2.5,-1,Hit,0.466710600071,True,False,stimulusRAMA04_2IFCnew_2019_Jun_12_1259_885,stimulusRAMA04_2IFCnew_2019_Jun_12_1259_886,True,2019_Jun_12_1259,2IFCnew,3,RAMA04,
2IFCnew,68,0,68,0,0.300618100213,2,Yes,5,-1,Correct Rejection,0.433661599876,False,True,stimulusRAMA04_2IFCnew_2019_Jun_12_1259_887,stimulusRAMA04_2IFCnew_2019_Jun_12_1259_888,True,2019_Jun_12_1259,2IFCnew,3,RAMA04,
2IFCnew,69,0,69,0,0.5671172,2,Yes,7,-1,Correct Rejection,0.500370499911,False,True,stimulusRAMA04_2IFCnew_2019_Jun_12_1259_889,stimulusRAMA04_2IFCnew_2019_Jun_12_1259_890,True,2019_Jun_12_1259,2IFCnew,3,RAMA04,
2IFCnew,70,0,70,0,0.43370529986,2,Yes,5,-1,Correct Rejection,0.502383799991,False,True,stimulusRAMA04_2IFCnew_2019_Jun_12_1259_891,stimulusRAMA04_2IFCnew_2019_Jun_12_1259_892,True,2019_Jun_12_1259,2IFCnew,3,RAMA04,
2IFCnew,71,0,71,0,0.267028599977,4,Yes,2.6,-1,Miss,0.434138000011,True,False,stimulusRAMA04_2IFCnew_2019_Jun_12_1259_893,stimulusRAMA04_2IFCnew_2019_Jun_12_1259_894,True,2019_Jun_12_1259,2IFCnew,3,RAMA04,
2IFCnew,72,0,72,0,0.20038259984,2,Yes,2.5,-1,Correct Rejection,0.435984099982,False,True,stimulusRAMA04_2IFCnew_2019_Jun_12_1259_895,stimulusRAMA04_2IFCnew_2019_Jun_12_1259_896,True,2019_Jun_12_1259,2IFCnew,3,RAMA04,
2IFCnew,73,0,73,0,0.300167499809,1,No,9.7,-1,Hit,0.500392399961,True,False,stimulusRAMA04_2IFCnew_2019_Jun_12_1259_897,stimulusRAMA04_2IFCnew_2019_Jun_12_1259_898,True,2019_Jun_12_1259,2IFCnew,3,RAMA04,
2IFCnew,74,0,74,0,0.46744040004,4,Yes,2.5,-1,Miss,0.500370899914,True,False,stimulusRAMA04_2IFCnew_2019_Jun_12_1259_899,stimulusRAMA04_2IFCnew_2019_Jun_12_1259_900,True,2019_Jun_12_1259,2IFCnew,3,RAMA04,
2IFCnew,0,0,0,0,0.433899399824,1,No,2.6,-1,Hit,0.53406700003,True,False,stimulusRAMA04_2IFCnew_2019_Jun_12_1259_901,stimulusRAMA04_2IFCnew_2019_Jun_12_1259_902,True,2019_Jun_12_1259,2IFCnew,3,RAMA04,
2IFCnew,1,0,1,0,0.334475699812,3,No,8.2,-1,False Alarm,0.467817399884,False,True,stimulusRAMA04_2IFCnew_2019_Jun_12_1259_903,stimulusRAMA04_2IFCnew_2019_Jun_12_1259_904,True,2019_Jun_12_1259,2IFCnew,3,RAMA04,
2IFCnew,2,0,2,0,0.133267400088,2,Yes,5,-1,Correct Rejection,0.366510299966,False,True,stimulusRAMA04_2IFCnew_2019_Jun_12_1259_905,stimulusRAMA04_2IFCnew_2019_Jun_12_1259_906,True,2019_Jun_12_1259,2IFCnew,3,RAMA04,
2IFCnew,3,0,3,0,0.267174200155,3,No,7,-1,False Alarm,0.500591999851,False,True,stimulusRAMA04_2IFCnew_2019_Jun_12_1259_907,stimulusRAMA04_2IFCnew_2019_Jun_12_1259_908,True,2019_Jun_12_1259,2IFCnew,3,RAMA04,
2IFCnew,4,0,4,0,0.199282200076,4,Yes,2.6,-1,Miss,0.400445800042,True,False,stimulusRAMA04_2IFCnew_2019_Jun_12_1259_909,stimulusRAMA04_2IFCnew_2019_Jun_12_1259_910,True,2019_Jun_12_1259,2IFCnew,3,RAMA04,
2IFCnew,5,0,5,0,0.233565500006,1,No,3.8,-1,Hit,0.466384699801,True,False,stimulusRAMA04_2IFCnew_2019_Jun_12_1259_911,stimulusRAMA04_2IFCnew_2019_Jun_12_1259_912,True,2019_Jun_12_1259,2IFCnew,3,RAMA04,
2IFCnew,6,0,6,0,0.267029699869,1,No,8.2,-1,Hit,0.500487300102,True,False,stimulusRAMA04_2IFCnew_2019_Jun_12_1259_913,stimulusRAMA04_2IFCnew_2019_Jun_12_1259_914,True,2019_Jun_12_1259,2IFCnew,3,RAMA04,
2IFCnew,7,0,7,0,0.267063200008,3,No,2.5,-1,False Alarm,0.367797600105,False,True,stimulusRAMA04_2IFCnew_2019_Jun_12_1259_915,stimulusRAMA04_2IFCnew_2019_Jun_12_1259_916,True,2019_Jun_12_1259,2IFCnew,3,RAMA04,
2IFCnew,8,0,8,0,0.266135399928,2,Yes,6,-1,Correct Rejection,0.467479899991,False,True,stimulusRAMA04_2IFCnew_2019_Jun_12_1259_917,stimulusRAMA04_2IFCnew_2019_Jun_12_1259_918,True,2019_Jun_12_1259,2IFCnew,3,RAMA04,
2IFCnew,9,0,9,0,0.400941299973,3,No,3.8,-1,False Alarm,0.469236199977,False,True,stimulusRAMA04_2IFCnew_2019_Jun_12_1259_919,stimulusRAMA04_2IFCnew_2019_Jun_12_1259_920,True,2019_Jun_12_1259,2IFCnew,3,RAMA04,
2IFCnew,10,0,10,0,0.30037000007,4,Yes,2.5,-1,Miss,0.334690699819,True,False,stimulusRAMA04_2IFCnew_2019_Jun_12_1259_921,stimulusRAMA04_2IFCnew_2019_Jun_12_1259_922,True,2019_Jun_12_1259,2IFCnew,3,RAMA04,
2IFCnew,11,0,11,0,0.332092000172,1,No,6,-1,Hit,0.368373599835,True,False,stimulusRAMA04_2IFCnew_2019_Jun_12_1259_923,stimulusRAMA04_2IFCnew_2019_Jun_12_1259_924,True,2019_Jun_12_1259,2IFCnew,3,RAMA04,
2IFCnew,12,0,12,0,0.333140299888,3,No,2.6,-1,False Alarm,0.432541100075,False,True,stimulusRAMA04_2IFCnew_2019_Jun_12_1259_925,stimulusRAMA04_2IFCnew_2019_Jun_12_1259_926,True,2019_Jun_12_1259,2IFCnew,3,RAMA04,
2IFCnew,13,0,13,0,0.567198599922,8,No,2.6,-1,Correct Rejection,0.403787600109,False,True,stimulusRAMA04_2IFCnew_2019_Jun_12_1259_927,stimulusRAMA04_2IFCnew_2019_Jun_12_1259_928,True,2019_Jun_12_1259,2IFCnew,3,RAMA04,
2IFCnew,14,0,14,0,0.300218099961,2,Yes,2.6,-1,Correct Rejection,0.433734199964,False,True,stimulusRAMA04_2IFCnew_2019_Jun_12_1259_929,stimulusRAMA04_2IFCnew_2019_Jun_12_1259_930,True,2019_Jun_12_1259,2IFCnew,3,RAMA04,
2IFCnew,15,0,15,0,0.367014399962,2,Yes,2.5,-1,Correct Rejection,0.467610399937,False,True,stimulusRAMA04_2IFCnew_2019_Jun_12_1259_931,stimulusRAMA04_2IFCnew_2019_Jun_12_1259_932,True,2019_Jun_12_1259,2IFCnew,3,RAMA04,
2IFCnew,16,0,16,0,0.80104699987,3,No,5,-1,False Alarm,0.833659800002,False,True,stimulusRAMA04_2IFCnew_2019_Jun_12_1259_933,stimulusRAMA04_2IFCnew_2019_Jun_12_1259_934,True,2019_Jun_12_1259,2IFCnew,3,RAMA04,
2IFCnew,17,0,17,0,0.301919199992,1,No,5,-1,Hit,0.601727299858,True,False,stimulusRAMA04_2IFCnew_2019_Jun_12_1259_935,stimulusRAMA04_2IFCnew_2019_Jun_12_1259_936,True,2019_Jun_12_1259,2IFCnew,3,RAMA04,
2IFCnew,18,0,18,0,0.367312300019,5,Yes,9.7,-1,False Alarm,0.401529400144,False,True,stimulusRAMA04_2IFCnew_2019_Jun_12_1259_937,stimulusRAMA04_2IFCnew_2019_Jun_12_1259_938,True,2019_Jun_12_1259,2IFCnew,3,RAMA04,
2IFCnew,19,0,19,0,0.399529799819,1,No,3.8,-1,Hit,0.401084400015,True,False,stimulusRAMA04_2IFCnew_2019_Jun_12_1259_939,stimulusRAMA04_2IFCnew_2019_Jun_12_1259_940,True,2019_Jun_12_1259,2IFCnew,3,RAMA04,
2IFCnew,20,0,20,0,0.400970000075,6,No,6,-1,Miss,0.501661899965,True,False,stimulusRAMA04_2IFCnew_2019_Jun_12_1259_941,stimulusRAMA04_2IFCnew_2019_Jun_12_1259_942,True,2019_Jun_12_1259,2IFCnew,3,RAMA04,
2IFCnew,21,0,21,0,0.33316860022,4,Yes,5,-1,Miss,0.467492599972,True,False,stimulusRAMA04_2IFCnew_2019_Jun_12_1259_943,stimulusRAMA04_2IFCnew_2019_Jun_12_1259_944,True,2019_Jun_12_1259,2IFCnew,3,RAMA04,
2IFCnew,22,0,22,0,0.366911699995,2,Yes,7,-1,Correct Rejection,0.500947399996,False,True,stimulusRAMA04_2IFCnew_2019_Jun_12_1259_945,stimulusRAMA04_2IFCnew_2019_Jun_12_1259_946,True,2019_Jun_12_1259,2IFCnew,3,RAMA04,
2IFCnew,23,0,23,0,0.334152099909,4,Yes,2.5,-1,Miss,0.60128640011,True,False,stimulusRAMA04_2IFCnew_2019_Jun_12_1259_947,stimulusRAMA04_2IFCnew_2019_Jun_12_1259_948,True,2019_Jun_12_1259,2IFCnew,3,RAMA04,
2IFCnew,24,0,24,0,0.3021627001,1,No,6,-1,Hit,0.469246700173,True,False,stimulusRAMA04_2IFCnew_2019_Jun_12_1259_949,stimulusRAMA04_2IFCnew_2019_Jun_12_1259_950,True,2019_Jun_12_1259,2IFCnew,3,RAMA04,
2IFCnew,25,0,25,0,0.300275399815,1,No,7,-1,Hit,0.50085880002,True,False,stimulusRAMA04_2IFCnew_2019_Jun_12_1259_951,stimulusRAMA04_2IFCnew_2019_Jun_12_1259_952,True,2019_Jun_12_1259,2IFCnew,3,RAMA04,
2IFCnew,26,0,26,0,0.400587399956,5,Yes,3.8,-1,False Alarm,0.400690600043,False,True,stimulusRAMA04_2IFCnew_2019_Jun_12_1259_953,stimulusRAMA04_2IFCnew_2019_Jun_12_1259_954,True,2019_Jun_12_1259,2IFCnew,3,RAMA04,
2IFCnew,27,0,27,0,0.366960799787,2,Yes,9.7,-1,Correct Rejection,0.500564499991,False,True,stimulusRAMA04_2IFCnew_2019_Jun_12_1259_955,stimulusRAMA04_2IFCnew_2019_Jun_12_1259_956,True,2019_Jun_12_1259,2IFCnew,3,RAMA04,
