Task,trials.thisRepN,trials.thisTrialN,trials.thisN,trials.thisIndex,signal_intensity,constant Value,response,time_response,signal_on_stimuluspos1,signal_on_stimuluspos2,stimulus_name_pos1,stimulus_name_pos2,random_intensity,date,expName,session,participant,
Yes-No Task,0,0,0,0,6,-1,Correct Rejection,0.300309499959,False,-1,stimulus_RAMA04_Yes-No Task_2019_Jun_12_1212_1,-1,True,2019_Jun_12_1212,Yes-No Task,3,RAMA04,
Yes-No Task,1,0,1,0,6,-1,Miss,0.466937900055,True,-1,stimulus_RAMA04_Yes-No Task_2019_Jun_12_1212_2,-1,True,2019_Jun_12_1212,Yes-No Task,3,RAMA04,
Yes-No Task,2,0,2,0,2.6,-1,Miss,0.367055499926,True,-1,stimulus_RAMA04_Yes-No Task_2019_Jun_12_1212_3,-1,True,2019_Jun_12_1212,Yes-No Task,3,RAMA04,
Yes-No Task,3,0,3,0,3.8,-1,Hit,0.433207900031,True,-1,stimulus_RAMA04_Yes-No Task_2019_Jun_12_1212_4,-1,True,2019_Jun_12_1212,Yes-No Task,3,RAMA04,
Yes-No Task,4,0,4,0,5,-1,False Alarm,0.434082399821,False,-1,stimulus_RAMA04_Yes-No Task_2019_Jun_12_1212_5,-1,True,2019_Jun_12_1212,Yes-No Task,3,RAMA04,
Yes-No Task,5,0,5,0,6,-1,Correct Rejection,0.400820299983,False,-1,stimulus_RAMA04_Yes-No Task_2019_Jun_12_1212_6,-1,True,2019_Jun_12_1212,Yes-No Task,3,RAMA04,
Yes-No Task,6,0,6,0,2.5,-1,Correct Rejection,0.533860400086,False,-1,stimulus_RAMA04_Yes-No Task_2019_Jun_12_1212_7,-1,True,2019_Jun_12_1212,Yes-No Task,3,RAMA04,
Yes-No Task,7,0,7,0,8.2,-1,Hit,0.501725000096,True,-1,stimulus_RAMA04_Yes-No Task_2019_Jun_12_1212_8,-1,True,2019_Jun_12_1212,Yes-No Task,3,RAMA04,
Yes-No Task,8,0,8,0,2.5,-1,Miss,0.46769859991,True,-1,stimulus_RAMA04_Yes-No Task_2019_Jun_12_1212_9,-1,True,2019_Jun_12_1212,Yes-No Task,3,RAMA04,
Yes-No Task,9,0,9,0,3.8,-1,False Alarm,0.600607099943,False,-1,stimulus_RAMA04_Yes-No Task_2019_Jun_12_1212_10,-1,True,2019_Jun_12_1212,Yes-No Task,3,RAMA04,
Yes-No Task,10,0,10,0,5,-1,Correct Rejection,0.466365,False,-1,stimulus_RAMA04_Yes-No Task_2019_Jun_12_1212_11,-1,True,2019_Jun_12_1212,Yes-No Task,3,RAMA04,
Yes-No Task,11,0,11,0,2.5,-1,False Alarm,0.502661699895,False,-1,stimulus_RAMA04_Yes-No Task_2019_Jun_12_1212_12,-1,True,2019_Jun_12_1212,Yes-No Task,3,RAMA04,
Yes-No Task,12,0,12,0,8.2,-1,Correct Rejection,0.500489099883,False,-1,stimulus_RAMA04_Yes-No Task_2019_Jun_12_1212_13,-1,True,2019_Jun_12_1212,Yes-No Task,3,RAMA04,
Yes-No Task,13,0,13,0,5,-1,Hit,0.60169879999,True,-1,stimulus_RAMA04_Yes-No Task_2019_Jun_12_1212_14,-1,True,2019_Jun_12_1212,Yes-No Task,3,RAMA04,
Yes-No Task,14,0,14,0,3.8,-1,False Alarm,0.600314799929,False,-1,stimulus_RAMA04_Yes-No Task_2019_Jun_12_1212_15,-1,True,2019_Jun_12_1212,Yes-No Task,3,RAMA04,
Yes-No Task,15,0,15,0,7,-1,Correct Rejection,0.500807800097,False,-1,stimulus_RAMA04_Yes-No Task_2019_Jun_12_1212_16,-1,True,2019_Jun_12_1212,Yes-No Task,3,RAMA04,
Yes-No Task,16,0,16,0,8.2,-1,Hit,0.500458700117,True,-1,stimulus_RAMA04_Yes-No Task_2019_Jun_12_1212_17,-1,True,2019_Jun_12_1212,Yes-No Task,3,RAMA04,
Yes-No Task,17,0,17,0,2.6,-1,False Alarm,0.767529899953,False,-1,stimulus_RAMA04_Yes-No Task_2019_Jun_12_1212_18,-1,True,2019_Jun_12_1212,Yes-No Task,3,RAMA04,
Yes-No Task,18,0,18,0,5,-1,False Alarm,0.467055599904,False,-1,stimulus_RAMA04_Yes-No Task_2019_Jun_12_1212_19,-1,True,2019_Jun_12_1212,Yes-No Task,3,RAMA04,
Yes-No Task,19,0,19,0,8.2,-1,Hit,0.402221099939,True,-1,stimulus_RAMA04_Yes-No Task_2019_Jun_12_1212_20,-1,True,2019_Jun_12_1212,Yes-No Task,3,RAMA04,
Yes-No Task,20,0,20,0,5,-1,Hit,0.466613299912,True,-1,stimulus_RAMA04_Yes-No Task_2019_Jun_12_1212_21,-1,True,2019_Jun_12_1212,Yes-No Task,3,RAMA04,
Yes-No Task,21,0,21,0,2.5,-1,Hit,0.500676299911,True,-1,stimulus_RAMA04_Yes-No Task_2019_Jun_12_1212_22,-1,True,2019_Jun_12_1212,Yes-No Task,3,RAMA04,
Yes-No Task,22,0,22,0,2.5,-1,False Alarm,0.400869499892,False,-1,stimulus_RAMA04_Yes-No Task_2019_Jun_12_1212_23,-1,True,2019_Jun_12_1212,Yes-No Task,3,RAMA04,
Yes-No Task,23,0,23,0,5,-1,Hit,0.400466900086,True,-1,stimulus_RAMA04_Yes-No Task_2019_Jun_12_1212_24,-1,True,2019_Jun_12_1212,Yes-No Task,3,RAMA04,
Yes-No Task,24,0,24,0,3.8,-1,Hit,0.433037900133,True,-1,stimulus_RAMA04_Yes-No Task_2019_Jun_12_1212_25,-1,True,2019_Jun_12_1212,Yes-No Task,3,RAMA04,
Yes-No Task,25,0,25,0,9.7,-1,Hit,0.468380500097,True,-1,stimulus_RAMA04_Yes-No Task_2019_Jun_12_1212_26,-1,True,2019_Jun_12_1212,Yes-No Task,3,RAMA04,
Yes-No Task,26,0,26,0,2.5,-1,Hit,0.467229699949,True,-1,stimulus_RAMA04_Yes-No Task_2019_Jun_12_1212_27,-1,True,2019_Jun_12_1212,Yes-No Task,3,RAMA04,
Yes-No Task,27,0,27,0,9.7,-1,False Alarm,0.400366799906,False,-1,stimulus_RAMA04_Yes-No Task_2019_Jun_12_1212_28,-1,True,2019_Jun_12_1212,Yes-No Task,3,RAMA04,
Yes-No Task,28,0,28,0,2.5,-1,False Alarm,0.433913200162,False,-1,stimulus_RAMA04_Yes-No Task_2019_Jun_12_1212_29,-1,True,2019_Jun_12_1212,Yes-No Task,3,RAMA04,
Yes-No Task,29,0,29,0,9.7,-1,False Alarm,0.601093400037,False,-1,stimulus_RAMA04_Yes-No Task_2019_Jun_12_1212_30,-1,True,2019_Jun_12_1212,Yes-No Task,3,RAMA04,
Yes-No Task,30,0,30,0,6,-1,Correct Rejection,0.499434199883,False,-1,stimulus_RAMA04_Yes-No Task_2019_Jun_12_1212_31,-1,True,2019_Jun_12_1212,Yes-No Task,3,RAMA04,
Yes-No Task,31,0,31,0,3.8,-1,Hit,0.533788099885,True,-1,stimulus_RAMA04_Yes-No Task_2019_Jun_12_1212_32,-1,True,2019_Jun_12_1212,Yes-No Task,3,RAMA04,
Yes-No Task,32,0,32,0,9.7,-1,Correct Rejection,0.535250999965,False,-1,stimulus_RAMA04_Yes-No Task_2019_Jun_12_1212_33,-1,True,2019_Jun_12_1212,Yes-No Task,3,RAMA04,
Yes-No Task,33,0,33,0,3.8,-1,False Alarm,0.79955710005,False,-1,stimulus_RAMA04_Yes-No Task_2019_Jun_12_1212_34,-1,True,2019_Jun_12_1212,Yes-No Task,3,RAMA04,
Yes-No Task,34,0,34,0,7,-1,Correct Rejection,0.467202800093,False,-1,stimulus_RAMA04_Yes-No Task_2019_Jun_12_1212_35,-1,True,2019_Jun_12_1212,Yes-No Task,3,RAMA04,
Yes-No Task,35,0,35,0,2.5,-1,Hit,0.567679600092,True,-1,stimulus_RAMA04_Yes-No Task_2019_Jun_12_1212_36,-1,True,2019_Jun_12_1212,Yes-No Task,3,RAMA04,
Yes-No Task,36,0,36,0,9.7,-1,False Alarm,0.566909299931,False,-1,stimulus_RAMA04_Yes-No Task_2019_Jun_12_1212_37,-1,True,2019_Jun_12_1212,Yes-No Task,3,RAMA04,
Yes-No Task,37,0,37,0,2.6,-1,Correct Rejection,0.467411299935,False,-1,stimulus_RAMA04_Yes-No Task_2019_Jun_12_1212_38,-1,True,2019_Jun_12_1212,Yes-No Task,3,RAMA04,
Yes-No Task,38,0,38,0,2.5,-1,Hit,0.533199199941,True,-1,stimulus_RAMA04_Yes-No Task_2019_Jun_12_1212_39,-1,True,2019_Jun_12_1212,Yes-No Task,3,RAMA04,
Yes-No Task,39,0,39,0,8.2,-1,False Alarm,0.800900299801,False,-1,stimulus_RAMA04_Yes-No Task_2019_Jun_12_1212_40,-1,True,2019_Jun_12_1212,Yes-No Task,3,RAMA04,
Yes-No Task,40,0,40,0,7,-1,False Alarm,0.43389370013,False,-1,stimulus_RAMA04_Yes-No Task_2019_Jun_12_1212_41,-1,True,2019_Jun_12_1212,Yes-No Task,3,RAMA04,
Yes-No Task,41,0,41,0,5,-1,Correct Rejection,0.602389599895,False,-1,stimulus_RAMA04_Yes-No Task_2019_Jun_12_1212_42,-1,True,2019_Jun_12_1212,Yes-No Task,3,RAMA04,
Yes-No Task,42,0,42,0,2.5,-1,Miss,0.466279999819,True,-1,stimulus_RAMA04_Yes-No Task_2019_Jun_12_1212_43,-1,True,2019_Jun_12_1212,Yes-No Task,3,RAMA04,
Yes-No Task,43,0,43,0,7,-1,False Alarm,0.467357599875,False,-1,stimulus_RAMA04_Yes-No Task_2019_Jun_12_1212_44,-1,True,2019_Jun_12_1212,Yes-No Task,3,RAMA04,
Yes-No Task,44,0,44,0,8.2,-1,Correct Rejection,0.366357499966,False,-1,stimulus_RAMA04_Yes-No Task_2019_Jun_12_1212_45,-1,True,2019_Jun_12_1212,Yes-No Task,3,RAMA04,
Yes-No Task,45,0,45,0,2.5,-1,Miss,0.600460799877,True,-1,stimulus_RAMA04_Yes-No Task_2019_Jun_12_1212_46,-1,True,2019_Jun_12_1212,Yes-No Task,3,RAMA04,
Yes-No Task,46,0,46,0,2.6,-1,Correct Rejection,0.366725699976,False,-1,stimulus_RAMA04_Yes-No Task_2019_Jun_12_1212_47,-1,True,2019_Jun_12_1212,Yes-No Task,3,RAMA04,
Yes-No Task,47,0,47,0,6,-1,Hit,0.532057399862,True,-1,stimulus_RAMA04_Yes-No Task_2019_Jun_12_1212_48,-1,True,2019_Jun_12_1212,Yes-No Task,3,RAMA04,
Yes-No Task,48,0,48,0,6,-1,Correct Rejection,0.500864699949,False,-1,stimulus_RAMA04_Yes-No Task_2019_Jun_12_1212_49,-1,True,2019_Jun_12_1212,Yes-No Task,3,RAMA04,
Yes-No Task,49,0,49,0,3.8,-1,False Alarm,0.601165900007,False,-1,stimulus_RAMA04_Yes-No Task_2019_Jun_12_1212_50,-1,True,2019_Jun_12_1212,Yes-No Task,3,RAMA04,
Yes-No Task,50,0,50,0,6,-1,Correct Rejection,0.433331900043,False,-1,stimulus_RAMA04_Yes-No Task_2019_Jun_12_1212_51,-1,True,2019_Jun_12_1212,Yes-No Task,3,RAMA04,
Yes-No Task,51,0,51,0,2.5,-1,Miss,0.534064099891,True,-1,stimulus_RAMA04_Yes-No Task_2019_Jun_12_1212_52,-1,True,2019_Jun_12_1212,Yes-No Task,3,RAMA04,
Yes-No Task,52,0,52,0,7,-1,Hit,0.500456100097,True,-1,stimulus_RAMA04_Yes-No Task_2019_Jun_12_1212_53,-1,True,2019_Jun_12_1212,Yes-No Task,3,RAMA04,
Yes-No Task,53,0,53,0,8.2,-1,False Alarm,0.435381399933,False,-1,stimulus_RAMA04_Yes-No Task_2019_Jun_12_1212_54,-1,True,2019_Jun_12_1212,Yes-No Task,3,RAMA04,
Yes-No Task,54,0,54,0,2.5,-1,False Alarm,0.567946400028,False,-1,stimulus_RAMA04_Yes-No Task_2019_Jun_12_1212_55,-1,True,2019_Jun_12_1212,Yes-No Task,3,RAMA04,
Yes-No Task,55,0,55,0,2.6,-1,Miss,0.365614100127,True,-1,stimulus_RAMA04_Yes-No Task_2019_Jun_12_1212_56,-1,True,2019_Jun_12_1212,Yes-No Task,3,RAMA04,
Yes-No Task,56,0,56,0,2.6,-1,Correct Rejection,0.43484640005,False,-1,stimulus_RAMA04_Yes-No Task_2019_Jun_12_1212_57,-1,True,2019_Jun_12_1212,Yes-No Task,3,RAMA04,
Yes-No Task,57,0,57,0,2.5,-1,Miss,0.566881100181,True,-1,stimulus_RAMA04_Yes-No Task_2019_Jun_12_1212_58,-1,True,2019_Jun_12_1212,Yes-No Task,3,RAMA04,
Yes-No Task,58,0,58,0,5,-1,Miss,0.500540199922,True,-1,stimulus_RAMA04_Yes-No Task_2019_Jun_12_1212_59,-1,True,2019_Jun_12_1212,Yes-No Task,3,RAMA04,
Yes-No Task,59,0,59,0,5,-1,Correct Rejection,0.300731099909,False,-1,stimulus_RAMA04_Yes-No Task_2019_Jun_12_1212_60,-1,True,2019_Jun_12_1212,Yes-No Task,3,RAMA04,
Yes-No Task,60,0,60,0,2.6,-1,Miss,0.53225779999,True,-1,stimulus_RAMA04_Yes-No Task_2019_Jun_12_1212_61,-1,True,2019_Jun_12_1212,Yes-No Task,3,RAMA04,
Yes-No Task,61,0,61,0,6,-1,Miss,0.335833500139,True,-1,stimulus_RAMA04_Yes-No Task_2019_Jun_12_1212_62,-1,True,2019_Jun_12_1212,Yes-No Task,3,RAMA04,
Yes-No Task,62,0,62,0,3.8,-1,False Alarm,0.267075499985,False,-1,stimulus_RAMA04_Yes-No Task_2019_Jun_12_1212_63,-1,True,2019_Jun_12_1212,Yes-No Task,3,RAMA04,
Yes-No Task,63,0,63,0,3.8,-1,False Alarm,0.332341899863,False,-1,stimulus_RAMA04_Yes-No Task_2019_Jun_12_1212_64,-1,True,2019_Jun_12_1212,Yes-No Task,3,RAMA04,
Yes-No Task,64,0,64,0,7,-1,Hit,0.300878399983,True,-1,stimulus_RAMA04_Yes-No Task_2019_Jun_12_1212_65,-1,True,2019_Jun_12_1212,Yes-No Task,3,RAMA04,
Yes-No Task,65,0,65,0,8.2,-1,Hit,0.434055600083,True,-1,stimulus_RAMA04_Yes-No Task_2019_Jun_12_1212_66,-1,True,2019_Jun_12_1212,Yes-No Task,3,RAMA04,
Yes-No Task,66,0,66,0,3.8,-1,False Alarm,0.400472300127,False,-1,stimulus_RAMA04_Yes-No Task_2019_Jun_12_1212_67,-1,True,2019_Jun_12_1212,Yes-No Task,3,RAMA04,
Yes-No Task,67,0,67,0,2.5,-1,False Alarm,0.33412289992,False,-1,stimulus_RAMA04_Yes-No Task_2019_Jun_12_1212_68,-1,True,2019_Jun_12_1212,Yes-No Task,3,RAMA04,
Yes-No Task,68,0,68,0,6,-1,Hit,0.499276499962,True,-1,stimulus_RAMA04_Yes-No Task_2019_Jun_12_1212_69,-1,True,2019_Jun_12_1212,Yes-No Task,3,RAMA04,
Yes-No Task,69,0,69,0,3.8,-1,Correct Rejection,0.533651900012,False,-1,stimulus_RAMA04_Yes-No Task_2019_Jun_12_1212_70,-1,True,2019_Jun_12_1212,Yes-No Task,3,RAMA04,
Yes-No Task,70,0,70,0,8.2,-1,Hit,0.53508699988,True,-1,stimulus_RAMA04_Yes-No Task_2019_Jun_12_1212_71,-1,True,2019_Jun_12_1212,Yes-No Task,3,RAMA04,
Yes-No Task,71,0,71,0,5,-1,False Alarm,0.433489199961,False,-1,stimulus_RAMA04_Yes-No Task_2019_Jun_12_1212_72,-1,True,2019_Jun_12_1212,Yes-No Task,3,RAMA04,
Yes-No Task,72,0,72,0,3.8,-1,False Alarm,0.397614900023,False,-1,stimulus_RAMA04_Yes-No Task_2019_Jun_12_1212_73,-1,True,2019_Jun_12_1212,Yes-No Task,3,RAMA04,
Yes-No Task,73,0,73,0,6,-1,Correct Rejection,0.23383679986,False,-1,stimulus_RAMA04_Yes-No Task_2019_Jun_12_1212_74,-1,True,2019_Jun_12_1212,Yes-No Task,3,RAMA04,
Yes-No Task,74,0,74,0,7,-1,Hit,0.500534500228,True,-1,stimulus_RAMA04_Yes-No Task_2019_Jun_12_1212_75,-1,True,2019_Jun_12_1212,Yes-No Task,3,RAMA04,
Yes-No Task,0,0,0,0,2.6,-1,Hit,0.534900600091,True,-1,stimulus_RAMA04_Yes-No Task_2019_Jun_12_1212_76,-1,True,2019_Jun_12_1212,Yes-No Task,3,RAMA04,
Yes-No Task,1,0,1,0,6,-1,False Alarm,0.400474099908,False,-1,stimulus_RAMA04_Yes-No Task_2019_Jun_12_1212_77,-1,True,2019_Jun_12_1212,Yes-No Task,3,RAMA04,
Yes-No Task,2,0,2,0,2.6,-1,Hit,0.368147399975,True,-1,stimulus_RAMA04_Yes-No Task_2019_Jun_12_1212_78,-1,True,2019_Jun_12_1212,Yes-No Task,3,RAMA04,
Yes-No Task,3,0,3,0,3.8,-1,Miss,0.400216999929,True,-1,stimulus_RAMA04_Yes-No Task_2019_Jun_12_1212_79,-1,True,2019_Jun_12_1212,Yes-No Task,3,RAMA04,
Yes-No Task,4,0,4,0,2.5,-1,False Alarm,0.401272099931,False,-1,stimulus_RAMA04_Yes-No Task_2019_Jun_12_1212_80,-1,True,2019_Jun_12_1212,Yes-No Task,3,RAMA04,
Yes-No Task,5,0,5,0,8.2,-1,Hit,0.399814300006,True,-1,stimulus_RAMA04_Yes-No Task_2019_Jun_12_1212_81,-1,True,2019_Jun_12_1212,Yes-No Task,3,RAMA04,
Yes-No Task,6,0,6,0,9.7,-1,False Alarm,0.469567900058,False,-1,stimulus_RAMA04_Yes-No Task_2019_Jun_12_1212_82,-1,True,2019_Jun_12_1212,Yes-No Task,3,RAMA04,
Yes-No Task,7,0,7,0,8.2,-1,False Alarm,0.300110500073,False,-1,stimulus_RAMA04_Yes-No Task_2019_Jun_12_1212_83,-1,True,2019_Jun_12_1212,Yes-No Task,3,RAMA04,
Yes-No Task,8,0,8,0,2.5,-1,Miss,0.3671242001,True,-1,stimulus_RAMA04_Yes-No Task_2019_Jun_12_1212_84,-1,True,2019_Jun_12_1212,Yes-No Task,3,RAMA04,
Yes-No Task,9,0,9,0,6,-1,False Alarm,0.335033599986,False,-1,stimulus_RAMA04_Yes-No Task_2019_Jun_12_1212_85,-1,True,2019_Jun_12_1212,Yes-No Task,3,RAMA04,
Yes-No Task,10,0,10,0,2.6,-1,False Alarm,0.266735600075,False,-1,stimulus_RAMA04_Yes-No Task_2019_Jun_12_1212_86,-1,True,2019_Jun_12_1212,Yes-No Task,3,RAMA04,
Yes-No Task,11,0,11,0,6,-1,False Alarm,0.332917300053,False,-1,stimulus_RAMA04_Yes-No Task_2019_Jun_12_1212_87,-1,True,2019_Jun_12_1212,Yes-No Task,3,RAMA04,
Yes-No Task,12,0,12,0,2.5,-1,Hit,0.301942900056,True,-1,stimulus_RAMA04_Yes-No Task_2019_Jun_12_1212_88,-1,True,2019_Jun_12_1212,Yes-No Task,3,RAMA04,
Yes-No Task,13,0,13,0,9.7,-1,Correct Rejection,0.599299699999,False,-1,stimulus_RAMA04_Yes-No Task_2019_Jun_12_1212_89,-1,True,2019_Jun_12_1212,Yes-No Task,3,RAMA04,
Yes-No Task,14,0,14,0,2.5,-1,Miss,0.367221000139,True,-1,stimulus_RAMA04_Yes-No Task_2019_Jun_12_1212_90,-1,True,2019_Jun_12_1212,Yes-No Task,3,RAMA04,
Yes-No Task,15,0,15,0,6,-1,Miss,0.366038099863,True,-1,stimulus_RAMA04_Yes-No Task_2019_Jun_12_1212_91,-1,True,2019_Jun_12_1212,Yes-No Task,3,RAMA04,
Yes-No Task,16,0,16,0,7,-1,Miss,0.333291399991,True,-1,stimulus_RAMA04_Yes-No Task_2019_Jun_12_1212_92,-1,True,2019_Jun_12_1212,Yes-No Task,3,RAMA04,
Yes-No Task,17,0,17,0,2.6,-1,Hit,0.233402200043,True,-1,stimulus_RAMA04_Yes-No Task_2019_Jun_12_1212_93,-1,True,2019_Jun_12_1212,Yes-No Task,3,RAMA04,
Yes-No Task,18,0,18,0,6,-1,False Alarm,0.40044719982,False,-1,stimulus_RAMA04_Yes-No Task_2019_Jun_12_1212_94,-1,True,2019_Jun_12_1212,Yes-No Task,3,RAMA04,
Yes-No Task,19,0,19,0,8.2,-1,Hit,0.268102899892,True,-1,stimulus_RAMA04_Yes-No Task_2019_Jun_12_1212_95,-1,True,2019_Jun_12_1212,Yes-No Task,3,RAMA04,
Yes-No Task,20,0,20,0,2.5,-1,Hit,0.466187400045,True,-1,stimulus_RAMA04_Yes-No Task_2019_Jun_12_1212_96,-1,True,2019_Jun_12_1212,Yes-No Task,3,RAMA04,
Yes-No Task,21,0,21,0,5,-1,Hit,0.466744400095,True,-1,stimulus_RAMA04_Yes-No Task_2019_Jun_12_1212_97,-1,True,2019_Jun_12_1212,Yes-No Task,3,RAMA04,
Yes-No Task,22,0,22,0,5,-1,Hit,0.435513300123,True,-1,stimulus_RAMA04_Yes-No Task_2019_Jun_12_1212_98,-1,True,2019_Jun_12_1212,Yes-No Task,3,RAMA04,
Yes-No Task,23,0,23,0,7,-1,Hit,0.401049599983,True,-1,stimulus_RAMA04_Yes-No Task_2019_Jun_12_1212_99,-1,True,2019_Jun_12_1212,Yes-No Task,3,RAMA04,
Yes-No Task,24,0,24,0,9.7,-1,Hit,0.433962600073,True,-1,stimulus_RAMA04_Yes-No Task_2019_Jun_12_1212_100,-1,True,2019_Jun_12_1212,Yes-No Task,3,RAMA04,
Yes-No Task,25,0,25,0,7,-1,Hit,0.36617399985,True,-1,stimulus_RAMA04_Yes-No Task_2019_Jun_12_1212_101,-1,True,2019_Jun_12_1212,Yes-No Task,3,RAMA04,
Yes-No Task,26,0,26,0,3.8,-1,Correct Rejection,0.568085200153,False,-1,stimulus_RAMA04_Yes-No Task_2019_Jun_12_1212_102,-1,True,2019_Jun_12_1212,Yes-No Task,3,RAMA04,
Yes-No Task,27,0,27,0,2.5,-1,Miss,0.501032499829,True,-1,stimulus_RAMA04_Yes-No Task_2019_Jun_12_1212_103,-1,True,2019_Jun_12_1212,Yes-No Task,3,RAMA04,
Yes-No Task,28,0,28,0,5,-1,Hit,0.49968810007,True,-1,stimulus_RAMA04_Yes-No Task_2019_Jun_12_1212_104,-1,True,2019_Jun_12_1212,Yes-No Task,3,RAMA04,
Yes-No Task,29,0,29,0,8.2,-1,Correct Rejection,0.533666800009,False,-1,stimulus_RAMA04_Yes-No Task_2019_Jun_12_1212_105,-1,True,2019_Jun_12_1212,Yes-No Task,3,RAMA04,
Yes-No Task,30,0,30,0,5,-1,Correct Rejection,0.500557799824,False,-1,stimulus_RAMA04_Yes-No Task_2019_Jun_12_1212_106,-1,True,2019_Jun_12_1212,Yes-No Task,3,RAMA04,
Yes-No Task,31,0,31,0,7,-1,Correct Rejection,0.500165400095,False,-1,stimulus_RAMA04_Yes-No Task_2019_Jun_12_1212_107,-1,True,2019_Jun_12_1212,Yes-No Task,3,RAMA04,
Yes-No Task,32,0,32,0,7,-1,Miss,0.434084200067,True,-1,stimulus_RAMA04_Yes-No Task_2019_Jun_12_1212_108,-1,True,2019_Jun_12_1212,Yes-No Task,3,RAMA04,
Yes-No Task,33,0,33,0,9.7,-1,Hit,0.434470500099,True,-1,stimulus_RAMA04_Yes-No Task_2019_Jun_12_1212_109,-1,True,2019_Jun_12_1212,Yes-No Task,3,RAMA04,
Yes-No Task,34,0,34,0,8.2,-1,Correct Rejection,0.533594100038,False,-1,stimulus_RAMA04_Yes-No Task_2019_Jun_12_1212_110,-1,True,2019_Jun_12_1212,Yes-No Task,3,RAMA04,
Yes-No Task,35,0,35,0,6,-1,Correct Rejection,0.567326199962,False,-1,stimulus_RAMA04_Yes-No Task_2019_Jun_12_1212_111,-1,True,2019_Jun_12_1212,Yes-No Task,3,RAMA04,
Yes-No Task,36,0,36,0,9.7,-1,Miss,0.365952400025,True,-1,stimulus_RAMA04_Yes-No Task_2019_Jun_12_1212_112,-1,True,2019_Jun_12_1212,Yes-No Task,3,RAMA04,
Yes-No Task,37,0,37,0,8.2,-1,False Alarm,0.466835299972,False,-1,stimulus_RAMA04_Yes-No Task_2019_Jun_12_1212_113,-1,True,2019_Jun_12_1212,Yes-No Task,3,RAMA04,
Yes-No Task,38,0,38,0,7,-1,Hit,0.634310900001,True,-1,stimulus_RAMA04_Yes-No Task_2019_Jun_12_1212_114,-1,True,2019_Jun_12_1212,Yes-No Task,3,RAMA04,
Yes-No Task,39,0,39,0,7,-1,Correct Rejection,0.501972200116,False,-1,stimulus_RAMA04_Yes-No Task_2019_Jun_12_1212_115,-1,True,2019_Jun_12_1212,Yes-No Task,3,RAMA04,
Yes-No Task,40,0,40,0,5,-1,Miss,0.60082120006,True,-1,stimulus_RAMA04_Yes-No Task_2019_Jun_12_1212_116,-1,True,2019_Jun_12_1212,Yes-No Task,3,RAMA04,
Yes-No Task,41,0,41,0,2.5,-1,Correct Rejection,0.501414699946,False,-1,stimulus_RAMA04_Yes-No Task_2019_Jun_12_1212_117,-1,True,2019_Jun_12_1212,Yes-No Task,3,RAMA04,
Yes-No Task,42,0,42,0,6,-1,Miss,0.534052500036,True,-1,stimulus_RAMA04_Yes-No Task_2019_Jun_12_1212_118,-1,True,2019_Jun_12_1212,Yes-No Task,3,RAMA04,
Yes-No Task,43,0,43,0,7,-1,Hit,0.566868400201,True,-1,stimulus_RAMA04_Yes-No Task_2019_Jun_12_1212_119,-1,True,2019_Jun_12_1212,Yes-No Task,3,RAMA04,
Yes-No Task,44,0,44,0,7,-1,Miss,0.534965799889,True,-1,stimulus_RAMA04_Yes-No Task_2019_Jun_12_1212_120,-1,True,2019_Jun_12_1212,Yes-No Task,3,RAMA04,
Yes-No Task,45,0,45,0,7,-1,Correct Rejection,0.665602599969,False,-1,stimulus_RAMA04_Yes-No Task_2019_Jun_12_1212_121,-1,True,2019_Jun_12_1212,Yes-No Task,3,RAMA04,
Yes-No Task,46,0,46,0,7,-1,Correct Rejection,0.600765600102,False,-1,stimulus_RAMA04_Yes-No Task_2019_Jun_12_1212_122,-1,True,2019_Jun_12_1212,Yes-No Task,3,RAMA04,
Yes-No Task,47,0,47,0,5,-1,Correct Rejection,0.70114540006,False,-1,stimulus_RAMA04_Yes-No Task_2019_Jun_12_1212_123,-1,True,2019_Jun_12_1212,Yes-No Task,3,RAMA04,
Yes-No Task,48,0,48,0,9.7,-1,Hit,0.534116300056,True,-1,stimulus_RAMA04_Yes-No Task_2019_Jun_12_1212_124,-1,True,2019_Jun_12_1212,Yes-No Task,3,RAMA04,
Yes-No Task,49,0,49,0,6,-1,Miss,0.669352599885,True,-1,stimulus_RAMA04_Yes-No Task_2019_Jun_12_1212_125,-1,True,2019_Jun_12_1212,Yes-No Task,3,RAMA04,
Yes-No Task,50,0,50,0,2.6,-1,Correct Rejection,0.534142700024,False,-1,stimulus_RAMA04_Yes-No Task_2019_Jun_12_1212_126,-1,True,2019_Jun_12_1212,Yes-No Task,3,RAMA04,
Yes-No Task,51,0,51,0,2.6,-1,Miss,0.768408600008,True,-1,stimulus_RAMA04_Yes-No Task_2019_Jun_12_1212_127,-1,True,2019_Jun_12_1212,Yes-No Task,3,RAMA04,
Yes-No Task,52,0,52,0,7,-1,Correct Rejection,0.534078500001,False,-1,stimulus_RAMA04_Yes-No Task_2019_Jun_12_1212_128,-1,True,2019_Jun_12_1212,Yes-No Task,3,RAMA04,
Yes-No Task,53,0,53,0,5,-1,Correct Rejection,0.602026600158,False,-1,stimulus_RAMA04_Yes-No Task_2019_Jun_12_1212_129,-1,True,2019_Jun_12_1212,Yes-No Task,3,RAMA04,
Yes-No Task,54,0,54,0,3.8,-1,Correct Rejection,0.601704200031,False,-1,stimulus_RAMA04_Yes-No Task_2019_Jun_12_1212_130,-1,True,2019_Jun_12_1212,Yes-No Task,3,RAMA04,
Yes-No Task,55,0,55,0,5,-1,Correct Rejection,0.535836300114,False,-1,stimulus_RAMA04_Yes-No Task_2019_Jun_12_1212_131,-1,True,2019_Jun_12_1212,Yes-No Task,3,RAMA04,
Yes-No Task,56,0,56,0,8.2,-1,Correct Rejection,0.636198200053,False,-1,stimulus_RAMA04_Yes-No Task_2019_Jun_12_1212_132,-1,True,2019_Jun_12_1212,Yes-No Task,3,RAMA04,
Yes-No Task,57,0,57,0,5,-1,Correct Rejection,0.5672853,False,-1,stimulus_RAMA04_Yes-No Task_2019_Jun_12_1212_133,-1,True,2019_Jun_12_1212,Yes-No Task,3,RAMA04,
Yes-No Task,58,0,58,0,5,-1,Correct Rejection,0.599624899914,False,-1,stimulus_RAMA04_Yes-No Task_2019_Jun_12_1212_134,-1,True,2019_Jun_12_1212,Yes-No Task,3,RAMA04,
Yes-No Task,59,0,59,0,6,-1,Miss,0.767488199985,True,-1,stimulus_RAMA04_Yes-No Task_2019_Jun_12_1212_135,-1,True,2019_Jun_12_1212,Yes-No Task,3,RAMA04,
Yes-No Task,60,0,60,0,7,-1,Hit,0.434109900147,True,-1,stimulus_RAMA04_Yes-No Task_2019_Jun_12_1212_136,-1,True,2019_Jun_12_1212,Yes-No Task,3,RAMA04,
Yes-No Task,61,0,61,0,9.7,-1,Hit,0.534163400065,True,-1,stimulus_RAMA04_Yes-No Task_2019_Jun_12_1212_137,-1,True,2019_Jun_12_1212,Yes-No Task,3,RAMA04,
Yes-No Task,62,0,62,0,2.6,-1,Correct Rejection,0.668525000103,False,-1,stimulus_RAMA04_Yes-No Task_2019_Jun_12_1212_138,-1,True,2019_Jun_12_1212,Yes-No Task,3,RAMA04,
Yes-No Task,63,0,63,0,8.2,-1,Correct Rejection,0.534498799825,False,-1,stimulus_RAMA04_Yes-No Task_2019_Jun_12_1212_139,-1,True,2019_Jun_12_1212,Yes-No Task,3,RAMA04,
Yes-No Task,64,0,64,0,7,-1,Correct Rejection,0.500502099982,False,-1,stimulus_RAMA04_Yes-No Task_2019_Jun_12_1212_140,-1,True,2019_Jun_12_1212,Yes-No Task,3,RAMA04,
Yes-No Task,65,0,65,0,9.7,-1,Correct Rejection,0.768012200017,False,-1,stimulus_RAMA04_Yes-No Task_2019_Jun_12_1212_141,-1,True,2019_Jun_12_1212,Yes-No Task,3,RAMA04,
Yes-No Task,66,0,66,0,3.8,-1,Hit,0.5673638999,True,-1,stimulus_RAMA04_Yes-No Task_2019_Jun_12_1212_142,-1,True,2019_Jun_12_1212,Yes-No Task,3,RAMA04,
Yes-No Task,67,0,67,0,5,-1,Hit,0.56787239993,True,-1,stimulus_RAMA04_Yes-No Task_2019_Jun_12_1212_143,-1,True,2019_Jun_12_1212,Yes-No Task,3,RAMA04,
Yes-No Task,68,0,68,0,6,-1,Correct Rejection,0.533918200061,False,-1,stimulus_RAMA04_Yes-No Task_2019_Jun_12_1212_144,-1,True,2019_Jun_12_1212,Yes-No Task,3,RAMA04,
Yes-No Task,69,0,69,0,2.5,-1,Miss,0.534459300106,True,-1,stimulus_RAMA04_Yes-No Task_2019_Jun_12_1212_145,-1,True,2019_Jun_12_1212,Yes-No Task,3,RAMA04,
Yes-No Task,70,0,70,0,2.6,-1,Miss,0.501272700028,True,-1,stimulus_RAMA04_Yes-No Task_2019_Jun_12_1212_146,-1,True,2019_Jun_12_1212,Yes-No Task,3,RAMA04,
Yes-No Task,71,0,71,0,9.7,-1,Correct Rejection,0.634343600133,False,-1,stimulus_RAMA04_Yes-No Task_2019_Jun_12_1212_147,-1,True,2019_Jun_12_1212,Yes-No Task,3,RAMA04,
Yes-No Task,72,0,72,0,8.2,-1,Correct Rejection,0.634095799876,False,-1,stimulus_RAMA04_Yes-No Task_2019_Jun_12_1212_148,-1,True,2019_Jun_12_1212,Yes-No Task,3,RAMA04,
Yes-No Task,73,0,73,0,5,-1,Hit,0.633667400107,True,-1,stimulus_RAMA04_Yes-No Task_2019_Jun_12_1212_149,-1,True,2019_Jun_12_1212,Yes-No Task,3,RAMA04,
Yes-No Task,74,0,74,0,6,-1,Hit,0.60066230013,True,-1,stimulus_RAMA04_Yes-No Task_2019_Jun_12_1212_150,-1,True,2019_Jun_12_1212,Yes-No Task,3,RAMA04,
Yes-No Task,0,0,0,0,5,-1,Hit,0.43402860011,True,-1,stimulus_RAMA04_Yes-No Task_2019_Jun_12_1212_151,-1,True,2019_Jun_12_1212,Yes-No Task,3,RAMA04,
Yes-No Task,1,0,1,0,6,-1,Hit,0.500549499877,True,-1,stimulus_RAMA04_Yes-No Task_2019_Jun_12_1212_152,-1,True,2019_Jun_12_1212,Yes-No Task,3,RAMA04,
Yes-No Task,2,0,2,0,7,-1,Hit,0.600814000005,True,-1,stimulus_RAMA04_Yes-No Task_2019_Jun_12_1212_153,-1,True,2019_Jun_12_1212,Yes-No Task,3,RAMA04,
Yes-No Task,3,0,3,0,9.7,-1,Hit,0.43303129985,True,-1,stimulus_RAMA04_Yes-No Task_2019_Jun_12_1212_154,-1,True,2019_Jun_12_1212,Yes-No Task,3,RAMA04,
Yes-No Task,4,0,4,0,7,-1,Correct Rejection,0.700851999922,False,-1,stimulus_RAMA04_Yes-No Task_2019_Jun_12_1212_155,-1,True,2019_Jun_12_1212,Yes-No Task,3,RAMA04,
Yes-No Task,5,0,5,0,5,-1,Correct Rejection,0.500306200003,False,-1,stimulus_RAMA04_Yes-No Task_2019_Jun_12_1212_156,-1,True,2019_Jun_12_1212,Yes-No Task,3,RAMA04,
Yes-No Task,6,0,6,0,6,-1,Correct Rejection,0.533854699926,False,-1,stimulus_RAMA04_Yes-No Task_2019_Jun_12_1212_157,-1,True,2019_Jun_12_1212,Yes-No Task,3,RAMA04,
Yes-No Task,7,0,7,0,7,-1,Correct Rejection,0.500522099901,False,-1,stimulus_RAMA04_Yes-No Task_2019_Jun_12_1212_158,-1,True,2019_Jun_12_1212,Yes-No Task,3,RAMA04,
Yes-No Task,8,0,8,0,3.8,-1,Miss,0.467807499925,True,-1,stimulus_RAMA04_Yes-No Task_2019_Jun_12_1212_159,-1,True,2019_Jun_12_1212,Yes-No Task,3,RAMA04,
Yes-No Task,9,0,9,0,3.8,-1,Hit,0.600080900127,True,-1,stimulus_RAMA04_Yes-No Task_2019_Jun_12_1212_160,-1,True,2019_Jun_12_1212,Yes-No Task,3,RAMA04,
Yes-No Task,10,0,10,0,8.2,-1,Correct Rejection,0.567162699997,False,-1,stimulus_RAMA04_Yes-No Task_2019_Jun_12_1212_161,-1,True,2019_Jun_12_1212,Yes-No Task,3,RAMA04,
Yes-No Task,11,0,11,0,8.2,-1,Correct Rejection,0.567113999976,False,-1,stimulus_RAMA04_Yes-No Task_2019_Jun_12_1212_162,-1,True,2019_Jun_12_1212,Yes-No Task,3,RAMA04,
Yes-No Task,12,0,12,0,9.7,-1,Correct Rejection,0.535064999945,False,-1,stimulus_RAMA04_Yes-No Task_2019_Jun_12_1212_163,-1,True,2019_Jun_12_1212,Yes-No Task,3,RAMA04,
Yes-No Task,13,0,13,0,5,-1,Hit,0.600721500115,True,-1,stimulus_RAMA04_Yes-No Task_2019_Jun_12_1212_164,-1,True,2019_Jun_12_1212,Yes-No Task,3,RAMA04,
Yes-No Task,14,0,14,0,9.7,-1,Hit,0.434078199789,True,-1,stimulus_RAMA04_Yes-No Task_2019_Jun_12_1212_165,-1,True,2019_Jun_12_1212,Yes-No Task,3,RAMA04,
Yes-No Task,15,0,15,0,3.8,-1,Hit,0.532575599849,True,-1,stimulus_RAMA04_Yes-No Task_2019_Jun_12_1212_166,-1,True,2019_Jun_12_1212,Yes-No Task,3,RAMA04,
Yes-No Task,16,0,16,0,3.8,-1,False Alarm,0.601167399902,False,-1,stimulus_RAMA04_Yes-No Task_2019_Jun_12_1212_167,-1,True,2019_Jun_12_1212,Yes-No Task,3,RAMA04,
Yes-No Task,17,0,17,0,3.8,-1,Correct Rejection,0.500599399908,False,-1,stimulus_RAMA04_Yes-No Task_2019_Jun_12_1212_168,-1,True,2019_Jun_12_1212,Yes-No Task,3,RAMA04,
Yes-No Task,18,0,18,0,6,-1,Correct Rejection,0.63366299984,False,-1,stimulus_RAMA04_Yes-No Task_2019_Jun_12_1212_169,-1,True,2019_Jun_12_1212,Yes-No Task,3,RAMA04,
Yes-No Task,19,0,19,0,2.6,-1,Correct Rejection,0.601764500141,False,-1,stimulus_RAMA04_Yes-No Task_2019_Jun_12_1212_170,-1,True,2019_Jun_12_1212,Yes-No Task,3,RAMA04,
Yes-No Task,20,0,20,0,7,-1,Correct Rejection,0.601336600026,False,-1,stimulus_RAMA04_Yes-No Task_2019_Jun_12_1212_171,-1,True,2019_Jun_12_1212,Yes-No Task,3,RAMA04,
Yes-No Task,21,0,21,0,8.2,-1,Correct Rejection,0.467909199884,False,-1,stimulus_RAMA04_Yes-No Task_2019_Jun_12_1212_172,-1,True,2019_Jun_12_1212,Yes-No Task,3,RAMA04,
Yes-No Task,22,0,22,0,9.7,-1,Hit,0.533809500048,True,-1,stimulus_RAMA04_Yes-No Task_2019_Jun_12_1212_173,-1,True,2019_Jun_12_1212,Yes-No Task,3,RAMA04,
Yes-No Task,23,0,23,0,3.8,-1,Correct Rejection,0.56707650004,False,-1,stimulus_RAMA04_Yes-No Task_2019_Jun_12_1212_174,-1,True,2019_Jun_12_1212,Yes-No Task,3,RAMA04,
Yes-No Task,24,0,24,0,6,-1,Correct Rejection,0.533015499823,False,-1,stimulus_RAMA04_Yes-No Task_2019_Jun_12_1212_175,-1,True,2019_Jun_12_1212,Yes-No Task,3,RAMA04,
Yes-No Task,25,0,25,0,6,-1,Hit,0.63589029992,True,-1,stimulus_RAMA04_Yes-No Task_2019_Jun_12_1212_176,-1,True,2019_Jun_12_1212,Yes-No Task,3,RAMA04,
Yes-No Task,26,0,26,0,7,-1,Correct Rejection,0.46734740003,False,-1,stimulus_RAMA04_Yes-No Task_2019_Jun_12_1212_177,-1,True,2019_Jun_12_1212,Yes-No Task,3,RAMA04,
Yes-No Task,27,0,27,0,3.8,-1,Correct Rejection,0.532525700051,False,-1,stimulus_RAMA04_Yes-No Task_2019_Jun_12_1212_178,-1,True,2019_Jun_12_1212,Yes-No Task,3,RAMA04,
Yes-No Task,28,0,28,0,5,-1,Correct Rejection,0.566947899992,False,-1,stimulus_RAMA04_Yes-No Task_2019_Jun_12_1212_179,-1,True,2019_Jun_12_1212,Yes-No Task,3,RAMA04,
Yes-No Task,29,0,29,0,6,-1,Miss,0.600737599889,True,-1,stimulus_RAMA04_Yes-No Task_2019_Jun_12_1212_180,-1,True,2019_Jun_12_1212,Yes-No Task,3,RAMA04,
Yes-No Task,30,0,30,0,3.8,-1,False Alarm,0.367106900085,False,-1,stimulus_RAMA04_Yes-No Task_2019_Jun_12_1212_181,-1,True,2019_Jun_12_1212,Yes-No Task,3,RAMA04,
Yes-No Task,31,0,31,0,2.5,-1,Correct Rejection,0.46689749998,False,-1,stimulus_RAMA04_Yes-No Task_2019_Jun_12_1212_182,-1,True,2019_Jun_12_1212,Yes-No Task,3,RAMA04,
Yes-No Task,32,0,32,0,7,-1,Correct Rejection,0.734291299945,False,-1,stimulus_RAMA04_Yes-No Task_2019_Jun_12_1212_183,-1,True,2019_Jun_12_1212,Yes-No Task,3,RAMA04,
Yes-No Task,33,0,33,0,8.2,-1,Correct Rejection,0.535087700002,False,-1,stimulus_RAMA04_Yes-No Task_2019_Jun_12_1212_184,-1,True,2019_Jun_12_1212,Yes-No Task,3,RAMA04,
Yes-No Task,34,0,34,0,9.7,-1,Correct Rejection,0.468518699985,False,-1,stimulus_RAMA04_Yes-No Task_2019_Jun_12_1212_185,-1,True,2019_Jun_12_1212,Yes-No Task,3,RAMA04,
Yes-No Task,35,0,35,0,3.8,-1,Hit,0.633521300042,True,-1,stimulus_RAMA04_Yes-No Task_2019_Jun_12_1212_186,-1,True,2019_Jun_12_1212,Yes-No Task,3,RAMA04,
Yes-No Task,36,0,36,0,8.2,-1,Hit,0.634179099929,True,-1,stimulus_RAMA04_Yes-No Task_2019_Jun_12_1212_187,-1,True,2019_Jun_12_1212,Yes-No Task,3,RAMA04,
Yes-No Task,37,0,37,0,9.7,-1,Hit,0.667421699967,True,-1,stimulus_RAMA04_Yes-No Task_2019_Jun_12_1212_188,-1,True,2019_Jun_12_1212,Yes-No Task,3,RAMA04,
Yes-No Task,38,0,38,0,5,-1,Hit,0.635477800155,True,-1,stimulus_RAMA04_Yes-No Task_2019_Jun_12_1212_189,-1,True,2019_Jun_12_1212,Yes-No Task,3,RAMA04,
Yes-No Task,39,0,39,0,6,-1,Correct Rejection,0.63511579996,False,-1,stimulus_RAMA04_Yes-No Task_2019_Jun_12_1212_190,-1,True,2019_Jun_12_1212,Yes-No Task,3,RAMA04,
Yes-No Task,40,0,40,0,8.2,-1,Hit,0.633980500046,True,-1,stimulus_RAMA04_Yes-No Task_2019_Jun_12_1212_191,-1,True,2019_Jun_12_1212,Yes-No Task,3,RAMA04,
Yes-No Task,41,0,41,0,2.5,-1,Miss,0.567419300089,True,-1,stimulus_RAMA04_Yes-No Task_2019_Jun_12_1212_192,-1,True,2019_Jun_12_1212,Yes-No Task,3,RAMA04,
Yes-No Task,42,0,42,0,3.8,-1,Correct Rejection,0.566468299832,False,-1,stimulus_RAMA04_Yes-No Task_2019_Jun_12_1212_193,-1,True,2019_Jun_12_1212,Yes-No Task,3,RAMA04,
Yes-No Task,43,0,43,0,6,-1,Miss,0.568394599948,True,-1,stimulus_RAMA04_Yes-No Task_2019_Jun_12_1212_194,-1,True,2019_Jun_12_1212,Yes-No Task,3,RAMA04,
Yes-No Task,44,0,44,0,9.7,-1,Correct Rejection,0.434148199856,False,-1,stimulus_RAMA04_Yes-No Task_2019_Jun_12_1212_195,-1,True,2019_Jun_12_1212,Yes-No Task,3,RAMA04,
Yes-No Task,45,0,45,0,6,-1,Hit,0.601102799876,True,-1,stimulus_RAMA04_Yes-No Task_2019_Jun_12_1212_196,-1,True,2019_Jun_12_1212,Yes-No Task,3,RAMA04,
Yes-No Task,46,0,46,0,5,-1,Correct Rejection,0.500453599961,False,-1,stimulus_RAMA04_Yes-No Task_2019_Jun_12_1212_197,-1,True,2019_Jun_12_1212,Yes-No Task,3,RAMA04,
Yes-No Task,47,0,47,0,6,-1,Hit,0.668375500012,True,-1,stimulus_RAMA04_Yes-No Task_2019_Jun_12_1212_198,-1,True,2019_Jun_12_1212,Yes-No Task,3,RAMA04,
Yes-No Task,48,0,48,0,6,-1,Correct Rejection,0.533919000067,False,-1,stimulus_RAMA04_Yes-No Task_2019_Jun_12_1212_199,-1,True,2019_Jun_12_1212,Yes-No Task,3,RAMA04,
Yes-No Task,49,0,49,0,5,-1,Correct Rejection,0.498778000008,False,-1,stimulus_RAMA04_Yes-No Task_2019_Jun_12_1212_200,-1,True,2019_Jun_12_1212,Yes-No Task,3,RAMA04,
Yes-No Task,50,0,50,0,8.2,-1,Hit,0.500456799986,True,-1,stimulus_RAMA04_Yes-No Task_2019_Jun_12_1212_201,-1,True,2019_Jun_12_1212,Yes-No Task,3,RAMA04,
Yes-No Task,51,0,51,0,3.8,-1,Miss,0.467552100075,True,-1,stimulus_RAMA04_Yes-No Task_2019_Jun_12_1212_202,-1,True,2019_Jun_12_1212,Yes-No Task,3,RAMA04,
Yes-No Task,52,0,52,0,6,-1,Hit,0.533426800044,True,-1,stimulus_RAMA04_Yes-No Task_2019_Jun_12_1212_203,-1,True,2019_Jun_12_1212,Yes-No Task,3,RAMA04,
Yes-No Task,53,0,53,0,7,-1,No Answer,-1,False,-1,stimulus_RAMA04_Yes-No Task_2019_Jun_12_1212_204,-1,True,2019_Jun_12_1212,Yes-No Task,3,RAMA04,
Yes-No Task,54,0,54,0,8.2,-1,False Alarm,0.300647000084,False,-1,stimulus_RAMA04_Yes-No Task_2019_Jun_12_1212_205,-1,True,2019_Jun_12_1212,Yes-No Task,3,RAMA04,
Yes-No Task,55,0,55,0,5,-1,Miss,0.433169699972,True,-1,stimulus_RAMA04_Yes-No Task_2019_Jun_12_1212_206,-1,True,2019_Jun_12_1212,Yes-No Task,3,RAMA04,
Yes-No Task,56,0,56,0,2.5,-1,Correct Rejection,0.467330700019,False,-1,stimulus_RAMA04_Yes-No Task_2019_Jun_12_1212_207,-1,True,2019_Jun_12_1212,Yes-No Task,3,RAMA04,
Yes-No Task,57,0,57,0,7,-1,False Alarm,0.500956599833,False,-1,stimulus_RAMA04_Yes-No Task_2019_Jun_12_1212_208,-1,True,2019_Jun_12_1212,Yes-No Task,3,RAMA04,
Yes-No Task,58,0,58,0,5,-1,Miss,0.334572799969,True,-1,stimulus_RAMA04_Yes-No Task_2019_Jun_12_1212_209,-1,True,2019_Jun_12_1212,Yes-No Task,3,RAMA04,
Yes-No Task,59,0,59,0,5,-1,Correct Rejection,0.300093400059,False,-1,stimulus_RAMA04_Yes-No Task_2019_Jun_12_1212_210,-1,True,2019_Jun_12_1212,Yes-No Task,3,RAMA04,
Yes-No Task,60,0,60,0,8.2,-1,Correct Rejection,0.400300699985,False,-1,stimulus_RAMA04_Yes-No Task_2019_Jun_12_1212_211,-1,True,2019_Jun_12_1212,Yes-No Task,3,RAMA04,
Yes-No Task,61,0,61,0,8.2,-1,Hit,0.500574100064,True,-1,stimulus_RAMA04_Yes-No Task_2019_Jun_12_1212_212,-1,True,2019_Jun_12_1212,Yes-No Task,3,RAMA04,
Yes-No Task,62,0,62,0,7,-1,Hit,0.432988999877,True,-1,stimulus_RAMA04_Yes-No Task_2019_Jun_12_1212_213,-1,True,2019_Jun_12_1212,Yes-No Task,3,RAMA04,
Yes-No Task,63,0,63,0,8.2,-1,Correct Rejection,0.50005199993,False,-1,stimulus_RAMA04_Yes-No Task_2019_Jun_12_1212_214,-1,True,2019_Jun_12_1212,Yes-No Task,3,RAMA04,
Yes-No Task,64,0,64,0,7,-1,Correct Rejection,0.499450200005,False,-1,stimulus_RAMA04_Yes-No Task_2019_Jun_12_1212_215,-1,True,2019_Jun_12_1212,Yes-No Task,3,RAMA04,
Yes-No Task,65,0,65,0,2.5,-1,Correct Rejection,0.433307599975,False,-1,stimulus_RAMA04_Yes-No Task_2019_Jun_12_1212_216,-1,True,2019_Jun_12_1212,Yes-No Task,3,RAMA04,
Yes-No Task,66,0,66,0,9.7,-1,Miss,0.400646599941,True,-1,stimulus_RAMA04_Yes-No Task_2019_Jun_12_1212_217,-1,True,2019_Jun_12_1212,Yes-No Task,3,RAMA04,
Yes-No Task,67,0,67,0,8.2,-1,Correct Rejection,0.734437700128,False,-1,stimulus_RAMA04_Yes-No Task_2019_Jun_12_1212_218,-1,True,2019_Jun_12_1212,Yes-No Task,3,RAMA04,
Yes-No Task,68,0,68,0,2.5,-1,Correct Rejection,0.467533499934,False,-1,stimulus_RAMA04_Yes-No Task_2019_Jun_12_1212_219,-1,True,2019_Jun_12_1212,Yes-No Task,3,RAMA04,
Yes-No Task,69,0,69,0,3.8,-1,Miss,0.400037400192,True,-1,stimulus_RAMA04_Yes-No Task_2019_Jun_12_1212_220,-1,True,2019_Jun_12_1212,Yes-No Task,3,RAMA04,
Yes-No Task,70,0,70,0,2.5,-1,Miss,0.534102199832,True,-1,stimulus_RAMA04_Yes-No Task_2019_Jun_12_1212_221,-1,True,2019_Jun_12_1212,Yes-No Task,3,RAMA04,
Yes-No Task,71,0,71,0,6,-1,Correct Rejection,0.634797800099,False,-1,stimulus_RAMA04_Yes-No Task_2019_Jun_12_1212_222,-1,True,2019_Jun_12_1212,Yes-No Task,3,RAMA04,
Yes-No Task,72,0,72,0,3.8,-1,Hit,0.567462899955,True,-1,stimulus_RAMA04_Yes-No Task_2019_Jun_12_1212_223,-1,True,2019_Jun_12_1212,Yes-No Task,3,RAMA04,
Yes-No Task,73,0,73,0,5,-1,Correct Rejection,0.533787599998,False,-1,stimulus_RAMA04_Yes-No Task_2019_Jun_12_1212_224,-1,True,2019_Jun_12_1212,Yes-No Task,3,RAMA04,
Yes-No Task,74,0,74,0,9.7,-1,Correct Rejection,0.499879699899,False,-1,stimulus_RAMA04_Yes-No Task_2019_Jun_12_1212_225,-1,True,2019_Jun_12_1212,Yes-No Task,3,RAMA04,
Yes-No Task,0,0,0,0,5,-1,Miss,0.500533799874,True,-1,stimulus_RAMA04_Yes-No Task_2019_Jun_12_1212_226,-1,True,2019_Jun_12_1212,Yes-No Task,3,RAMA04,
Yes-No Task,1,0,1,0,2.5,-1,Miss,0.734422199894,True,-1,stimulus_RAMA04_Yes-No Task_2019_Jun_12_1212_227,-1,True,2019_Jun_12_1212,Yes-No Task,3,RAMA04,
Yes-No Task,2,0,2,0,5,-1,Hit,0.400336700026,True,-1,stimulus_RAMA04_Yes-No Task_2019_Jun_12_1212_228,-1,True,2019_Jun_12_1212,Yes-No Task,3,RAMA04,
Yes-No Task,3,0,3,0,7,-1,Hit,0.533776900033,True,-1,stimulus_RAMA04_Yes-No Task_2019_Jun_12_1212_229,-1,True,2019_Jun_12_1212,Yes-No Task,3,RAMA04,
Yes-No Task,4,0,4,0,5,-1,Miss,0.667826300021,True,-1,stimulus_RAMA04_Yes-No Task_2019_Jun_12_1212_230,-1,True,2019_Jun_12_1212,Yes-No Task,3,RAMA04,
Yes-No Task,5,0,5,0,6,-1,Hit,0.534074999858,True,-1,stimulus_RAMA04_Yes-No Task_2019_Jun_12_1212_231,-1,True,2019_Jun_12_1212,Yes-No Task,3,RAMA04,
Yes-No Task,6,0,6,0,9.7,-1,Correct Rejection,0.534184299875,False,-1,stimulus_RAMA04_Yes-No Task_2019_Jun_12_1212_232,-1,True,2019_Jun_12_1212,Yes-No Task,3,RAMA04,
Yes-No Task,7,0,7,0,6,-1,Hit,0.533632100094,True,-1,stimulus_RAMA04_Yes-No Task_2019_Jun_12_1212_233,-1,True,2019_Jun_12_1212,Yes-No Task,3,RAMA04,
Yes-No Task,8,0,8,0,3.8,-1,Correct Rejection,0.466435499955,False,-1,stimulus_RAMA04_Yes-No Task_2019_Jun_12_1212_234,-1,True,2019_Jun_12_1212,Yes-No Task,3,RAMA04,
Yes-No Task,9,0,9,0,8.2,-1,Hit,0.535479000071,True,-1,stimulus_RAMA04_Yes-No Task_2019_Jun_12_1212_235,-1,True,2019_Jun_12_1212,Yes-No Task,3,RAMA04,
Yes-No Task,10,0,10,0,2.5,-1,Miss,0.467119500041,True,-1,stimulus_RAMA04_Yes-No Task_2019_Jun_12_1212_236,-1,True,2019_Jun_12_1212,Yes-No Task,3,RAMA04,
Yes-No Task,11,0,11,0,7,-1,Miss,0.501791800139,True,-1,stimulus_RAMA04_Yes-No Task_2019_Jun_12_1212_237,-1,True,2019_Jun_12_1212,Yes-No Task,3,RAMA04,
Yes-No Task,12,0,12,0,6,-1,Correct Rejection,0.601112600183,False,-1,stimulus_RAMA04_Yes-No Task_2019_Jun_12_1212_238,-1,True,2019_Jun_12_1212,Yes-No Task,3,RAMA04,
Yes-No Task,13,0,13,0,3.8,-1,Miss,0.466891899938,True,-1,stimulus_RAMA04_Yes-No Task_2019_Jun_12_1212_239,-1,True,2019_Jun_12_1212,Yes-No Task,3,RAMA04,
Yes-No Task,14,0,14,0,9.7,-1,Correct Rejection,0.600643200101,False,-1,stimulus_RAMA04_Yes-No Task_2019_Jun_12_1212_240,-1,True,2019_Jun_12_1212,Yes-No Task,3,RAMA04,
Yes-No Task,15,0,15,0,5,-1,Correct Rejection,0.767696699826,False,-1,stimulus_RAMA04_Yes-No Task_2019_Jun_12_1212_241,-1,True,2019_Jun_12_1212,Yes-No Task,3,RAMA04,
Yes-No Task,16,0,16,0,8.2,-1,Correct Rejection,0.500546199968,False,-1,stimulus_RAMA04_Yes-No Task_2019_Jun_12_1212_242,-1,True,2019_Jun_12_1212,Yes-No Task,3,RAMA04,
Yes-No Task,17,0,17,0,8.2,-1,Hit,0.533993500052,True,-1,stimulus_RAMA04_Yes-No Task_2019_Jun_12_1212_243,-1,True,2019_Jun_12_1212,Yes-No Task,3,RAMA04,
Yes-No Task,18,0,18,0,2.5,-1,Miss,0.532074599992,True,-1,stimulus_RAMA04_Yes-No Task_2019_Jun_12_1212_244,-1,True,2019_Jun_12_1212,Yes-No Task,3,RAMA04,
Yes-No Task,19,0,19,0,8.2,-1,Correct Rejection,0.500029999996,False,-1,stimulus_RAMA04_Yes-No Task_2019_Jun_12_1212_245,-1,True,2019_Jun_12_1212,Yes-No Task,3,RAMA04,
Yes-No Task,20,0,20,0,9.7,-1,Correct Rejection,0.600127999904,False,-1,stimulus_RAMA04_Yes-No Task_2019_Jun_12_1212_246,-1,True,2019_Jun_12_1212,Yes-No Task,3,RAMA04,
Yes-No Task,21,0,21,0,2.6,-1,Miss,0.467865600018,True,-1,stimulus_RAMA04_Yes-No Task_2019_Jun_12_1212_247,-1,True,2019_Jun_12_1212,Yes-No Task,3,RAMA04,
Yes-No Task,22,0,22,0,5,-1,Hit,0.53341230005,True,-1,stimulus_RAMA04_Yes-No Task_2019_Jun_12_1212_248,-1,True,2019_Jun_12_1212,Yes-No Task,3,RAMA04,
Yes-No Task,23,0,23,0,7,-1,Correct Rejection,0.534138099989,False,-1,stimulus_RAMA04_Yes-No Task_2019_Jun_12_1212_249,-1,True,2019_Jun_12_1212,Yes-No Task,3,RAMA04,
Yes-No Task,24,0,24,0,8.2,-1,False Alarm,0.633873300161,False,-1,stimulus_RAMA04_Yes-No Task_2019_Jun_12_1212_250,-1,True,2019_Jun_12_1212,Yes-No Task,3,RAMA04,
Yes-No Task,25,0,25,0,3.8,-1,Correct Rejection,0.500754000153,False,-1,stimulus_RAMA04_Yes-No Task_2019_Jun_12_1212_251,-1,True,2019_Jun_12_1212,Yes-No Task,3,RAMA04,
Yes-No Task,26,0,26,0,6,-1,Correct Rejection,0.533845900092,False,-1,stimulus_RAMA04_Yes-No Task_2019_Jun_12_1212_252,-1,True,2019_Jun_12_1212,Yes-No Task,3,RAMA04,
Yes-No Task,27,0,27,0,8.2,-1,Hit,0.533293500077,True,-1,stimulus_RAMA04_Yes-No Task_2019_Jun_12_1212_253,-1,True,2019_Jun_12_1212,Yes-No Task,3,RAMA04,
Yes-No Task,28,0,28,0,2.6,-1,Correct Rejection,0.467394399922,False,-1,stimulus_RAMA04_Yes-No Task_2019_Jun_12_1212_254,-1,True,2019_Jun_12_1212,Yes-No Task,3,RAMA04,
Yes-No Task,29,0,29,0,6,-1,Hit,0.600930500077,True,-1,stimulus_RAMA04_Yes-No Task_2019_Jun_12_1212_255,-1,True,2019_Jun_12_1212,Yes-No Task,3,RAMA04,
Yes-No Task,30,0,30,0,5,-1,Correct Rejection,0.534108799882,False,-1,stimulus_RAMA04_Yes-No Task_2019_Jun_12_1212_256,-1,True,2019_Jun_12_1212,Yes-No Task,3,RAMA04,
Yes-No Task,31,0,31,0,2.6,-1,Hit,0.56675160001,True,-1,stimulus_RAMA04_Yes-No Task_2019_Jun_12_1212_257,-1,True,2019_Jun_12_1212,Yes-No Task,3,RAMA04,
Yes-No Task,32,0,32,0,6,-1,Hit,0.600193300052,True,-1,stimulus_RAMA04_Yes-No Task_2019_Jun_12_1212_258,-1,True,2019_Jun_12_1212,Yes-No Task,3,RAMA04,
Yes-No Task,33,0,33,0,5,-1,Hit,0.500515399966,True,-1,stimulus_RAMA04_Yes-No Task_2019_Jun_12_1212_259,-1,True,2019_Jun_12_1212,Yes-No Task,3,RAMA04,
Yes-No Task,34,0,34,0,5,-1,Hit,0.468284800183,True,-1,stimulus_RAMA04_Yes-No Task_2019_Jun_12_1212_260,-1,True,2019_Jun_12_1212,Yes-No Task,3,RAMA04,
Yes-No Task,35,0,35,0,7,-1,Hit,0.535584599944,True,-1,stimulus_RAMA04_Yes-No Task_2019_Jun_12_1212_261,-1,True,2019_Jun_12_1212,Yes-No Task,3,RAMA04,
Yes-No Task,36,0,36,0,2.6,-1,Correct Rejection,0.500722399913,False,-1,stimulus_RAMA04_Yes-No Task_2019_Jun_12_1212_262,-1,True,2019_Jun_12_1212,Yes-No Task,3,RAMA04,
Yes-No Task,37,0,37,0,9.7,-1,Hit,0.466278000036,True,-1,stimulus_RAMA04_Yes-No Task_2019_Jun_12_1212_263,-1,True,2019_Jun_12_1212,Yes-No Task,3,RAMA04,
Yes-No Task,38,0,38,0,6,-1,Hit,0.534236199921,True,-1,stimulus_RAMA04_Yes-No Task_2019_Jun_12_1212_264,-1,True,2019_Jun_12_1212,Yes-No Task,3,RAMA04,
Yes-No Task,39,0,39,0,3.8,-1,Miss,0.533208900131,True,-1,stimulus_RAMA04_Yes-No Task_2019_Jun_12_1212_265,-1,True,2019_Jun_12_1212,Yes-No Task,3,RAMA04,
Yes-No Task,40,0,40,0,9.7,-1,Correct Rejection,0.499547399813,False,-1,stimulus_RAMA04_Yes-No Task_2019_Jun_12_1212_266,-1,True,2019_Jun_12_1212,Yes-No Task,3,RAMA04,
Yes-No Task,41,0,41,0,7,-1,False Alarm,0.534271999961,False,-1,stimulus_RAMA04_Yes-No Task_2019_Jun_12_1212_267,-1,True,2019_Jun_12_1212,Yes-No Task,3,RAMA04,
Yes-No Task,42,0,42,0,3.8,-1,Hit,0.534122199984,True,-1,stimulus_RAMA04_Yes-No Task_2019_Jun_12_1212_268,-1,True,2019_Jun_12_1212,Yes-No Task,3,RAMA04,
Yes-No Task,43,0,43,0,8.2,-1,Hit,0.466953700176,True,-1,stimulus_RAMA04_Yes-No Task_2019_Jun_12_1212_269,-1,True,2019_Jun_12_1212,Yes-No Task,3,RAMA04,
Yes-No Task,44,0,44,0,9.7,-1,Correct Rejection,0.533782099839,False,-1,stimulus_RAMA04_Yes-No Task_2019_Jun_12_1212_270,-1,True,2019_Jun_12_1212,Yes-No Task,3,RAMA04,
Yes-No Task,45,0,45,0,8.2,-1,Hit,0.567856800044,True,-1,stimulus_RAMA04_Yes-No Task_2019_Jun_12_1212_271,-1,True,2019_Jun_12_1212,Yes-No Task,3,RAMA04,
Yes-No Task,46,0,46,0,2.6,-1,Miss,0.534561400069,True,-1,stimulus_RAMA04_Yes-No Task_2019_Jun_12_1212_272,-1,True,2019_Jun_12_1212,Yes-No Task,3,RAMA04,
Yes-No Task,47,0,47,0,7,-1,Hit,0.599981899839,True,-1,stimulus_RAMA04_Yes-No Task_2019_Jun_12_1212_273,-1,True,2019_Jun_12_1212,Yes-No Task,3,RAMA04,
Yes-No Task,48,0,48,0,8.2,-1,Correct Rejection,0.533793400042,False,-1,stimulus_RAMA04_Yes-No Task_2019_Jun_12_1212_274,-1,True,2019_Jun_12_1212,Yes-No Task,3,RAMA04,
Yes-No Task,49,0,49,0,2.5,-1,Miss,0.666711200029,True,-1,stimulus_RAMA04_Yes-No Task_2019_Jun_12_1212_275,-1,True,2019_Jun_12_1212,Yes-No Task,3,RAMA04,
Yes-No Task,50,0,50,0,3.8,-1,Hit,0.56561759999,True,-1,stimulus_RAMA04_Yes-No Task_2019_Jun_12_1212_276,-1,True,2019_Jun_12_1212,Yes-No Task,3,RAMA04,
Yes-No Task,51,0,51,0,8.2,-1,Hit,0.600612000097,True,-1,stimulus_RAMA04_Yes-No Task_2019_Jun_12_1212_277,-1,True,2019_Jun_12_1212,Yes-No Task,3,RAMA04,
Yes-No Task,52,0,52,0,7,-1,False Alarm,0.467323899968,False,-1,stimulus_RAMA04_Yes-No Task_2019_Jun_12_1212_278,-1,True,2019_Jun_12_1212,Yes-No Task,3,RAMA04,
Yes-No Task,53,0,53,0,9.7,-1,Correct Rejection,0.536041999934,False,-1,stimulus_RAMA04_Yes-No Task_2019_Jun_12_1212_279,-1,True,2019_Jun_12_1212,Yes-No Task,3,RAMA04,
Yes-No Task,54,0,54,0,7,-1,Correct Rejection,0.634253300028,False,-1,stimulus_RAMA04_Yes-No Task_2019_Jun_12_1212_280,-1,True,2019_Jun_12_1212,Yes-No Task,3,RAMA04,
Yes-No Task,55,0,55,0,2.5,-1,Correct Rejection,0.534564899979,False,-1,stimulus_RAMA04_Yes-No Task_2019_Jun_12_1212_281,-1,True,2019_Jun_12_1212,Yes-No Task,3,RAMA04,
Yes-No Task,56,0,56,0,2.5,-1,Correct Rejection,0.600733599858,False,-1,stimulus_RAMA04_Yes-No Task_2019_Jun_12_1212_282,-1,True,2019_Jun_12_1212,Yes-No Task,3,RAMA04,
Yes-No Task,57,0,57,0,9.7,-1,Correct Rejection,0.533141299849,False,-1,stimulus_RAMA04_Yes-No Task_2019_Jun_12_1212_283,-1,True,2019_Jun_12_1212,Yes-No Task,3,RAMA04,
Yes-No Task,58,0,58,0,2.5,-1,Miss,0.46743119997,True,-1,stimulus_RAMA04_Yes-No Task_2019_Jun_12_1212_284,-1,True,2019_Jun_12_1212,Yes-No Task,3,RAMA04,
Yes-No Task,59,0,59,0,2.6,-1,Miss,0.633053899975,True,-1,stimulus_RAMA04_Yes-No Task_2019_Jun_12_1212_285,-1,True,2019_Jun_12_1212,Yes-No Task,3,RAMA04,
Yes-No Task,60,0,60,0,5,-1,Correct Rejection,0.632610100089,False,-1,stimulus_RAMA04_Yes-No Task_2019_Jun_12_1212_286,-1,True,2019_Jun_12_1212,Yes-No Task,3,RAMA04,
Yes-No Task,61,0,61,0,6,-1,Miss,0.634803599911,True,-1,stimulus_RAMA04_Yes-No Task_2019_Jun_12_1212_287,-1,True,2019_Jun_12_1212,Yes-No Task,3,RAMA04,
Yes-No Task,62,0,62,0,5,-1,Correct Rejection,0.600716599962,False,-1,stimulus_RAMA04_Yes-No Task_2019_Jun_12_1212_288,-1,True,2019_Jun_12_1212,Yes-No Task,3,RAMA04,
Yes-No Task,63,0,63,0,5,-1,Hit,0.867732500192,True,-1,stimulus_RAMA04_Yes-No Task_2019_Jun_12_1212_289,-1,True,2019_Jun_12_1212,Yes-No Task,3,RAMA04,
Yes-No Task,64,0,64,0,6,-1,Correct Rejection,0.568769800011,False,-1,stimulus_RAMA04_Yes-No Task_2019_Jun_12_1212_290,-1,True,2019_Jun_12_1212,Yes-No Task,3,RAMA04,
Yes-No Task,65,0,65,0,2.5,-1,Correct Rejection,0.600581699982,False,-1,stimulus_RAMA04_Yes-No Task_2019_Jun_12_1212_291,-1,True,2019_Jun_12_1212,Yes-No Task,3,RAMA04,
Yes-No Task,66,0,66,0,2.5,-1,Correct Rejection,0.633813600056,False,-1,stimulus_RAMA04_Yes-No Task_2019_Jun_12_1212_292,-1,True,2019_Jun_12_1212,Yes-No Task,3,RAMA04,
Yes-No Task,67,0,67,0,8.2,-1,Correct Rejection,0.601017700043,False,-1,stimulus_RAMA04_Yes-No Task_2019_Jun_12_1212_293,-1,True,2019_Jun_12_1212,Yes-No Task,3,RAMA04,
Yes-No Task,68,0,68,0,3.8,-1,Correct Rejection,0.533900100039,False,-1,stimulus_RAMA04_Yes-No Task_2019_Jun_12_1212_294,-1,True,2019_Jun_12_1212,Yes-No Task,3,RAMA04,
Yes-No Task,69,0,69,0,9.7,-1,Correct Rejection,0.53390550008,False,-1,stimulus_RAMA04_Yes-No Task_2019_Jun_12_1212_295,-1,True,2019_Jun_12_1212,Yes-No Task,3,RAMA04,
Yes-No Task,70,0,70,0,7,-1,Correct Rejection,0.467852800153,False,-1,stimulus_RAMA04_Yes-No Task_2019_Jun_12_1212_296,-1,True,2019_Jun_12_1212,Yes-No Task,3,RAMA04,
Yes-No Task,71,0,71,0,2.5,-1,Miss,0.467267000116,True,-1,stimulus_RAMA04_Yes-No Task_2019_Jun_12_1212_297,-1,True,2019_Jun_12_1212,Yes-No Task,3,RAMA04,
Yes-No Task,72,0,72,0,5,-1,Correct Rejection,0.400646199938,False,-1,stimulus_RAMA04_Yes-No Task_2019_Jun_12_1212_298,-1,True,2019_Jun_12_1212,Yes-No Task,3,RAMA04,
Yes-No Task,73,0,73,0,6,-1,Correct Rejection,0.567565099802,False,-1,stimulus_RAMA04_Yes-No Task_2019_Jun_12_1212_299,-1,True,2019_Jun_12_1212,Yes-No Task,3,RAMA04,
Yes-No Task,74,0,74,0,3.8,-1,Correct Rejection,0.533222999889,False,-1,stimulus_RAMA04_Yes-No Task_2019_Jun_12_1212_300,-1,True,2019_Jun_12_1212,Yes-No Task,3,RAMA04,
Yes-No Task,0,0,0,0,2.6,-1,Hit,0.534129499923,True,-1,stimulus_RAMA04_Yes-No Task_2019_Jun_12_1212_301,-1,True,2019_Jun_12_1212,Yes-No Task,3,RAMA04,
Yes-No Task,1,0,1,0,2.5,-1,Correct Rejection,0.500466599828,False,-1,stimulus_RAMA04_Yes-No Task_2019_Jun_12_1212_302,-1,True,2019_Jun_12_1212,Yes-No Task,3,RAMA04,
Yes-No Task,2,0,2,0,2.6,-1,Miss,0.567278299946,True,-1,stimulus_RAMA04_Yes-No Task_2019_Jun_12_1212_303,-1,True,2019_Jun_12_1212,Yes-No Task,3,RAMA04,
Yes-No Task,3,0,3,0,5,-1,Correct Rejection,0.533495500218,False,-1,stimulus_RAMA04_Yes-No Task_2019_Jun_12_1212_304,-1,True,2019_Jun_12_1212,Yes-No Task,3,RAMA04,
Yes-No Task,4,0,4,0,2.6,-1,Miss,0.49608079996,True,-1,stimulus_RAMA04_Yes-No Task_2019_Jun_12_1212_305,-1,True,2019_Jun_12_1212,Yes-No Task,3,RAMA04,
Yes-No Task,5,0,5,0,2.5,-1,Miss,0.432724500075,True,-1,stimulus_RAMA04_Yes-No Task_2019_Jun_12_1212_306,-1,True,2019_Jun_12_1212,Yes-No Task,3,RAMA04,
Yes-No Task,6,0,6,0,7,-1,Hit,0.50020359992,True,-1,stimulus_RAMA04_Yes-No Task_2019_Jun_12_1212_307,-1,True,2019_Jun_12_1212,Yes-No Task,3,RAMA04,
Yes-No Task,7,0,7,0,3.8,-1,Miss,0.670178600121,True,-1,stimulus_RAMA04_Yes-No Task_2019_Jun_12_1212_308,-1,True,2019_Jun_12_1212,Yes-No Task,3,RAMA04,
Yes-No Task,8,0,8,0,8.2,-1,Hit,0.500432699919,True,-1,stimulus_RAMA04_Yes-No Task_2019_Jun_12_1212_309,-1,True,2019_Jun_12_1212,Yes-No Task,3,RAMA04,
Yes-No Task,9,0,9,0,9.7,-1,Correct Rejection,0.535522300052,False,-1,stimulus_RAMA04_Yes-No Task_2019_Jun_12_1212_310,-1,True,2019_Jun_12_1212,Yes-No Task,3,RAMA04,
Yes-No Task,10,0,10,0,9.7,-1,Correct Rejection,0.601678899955,False,-1,stimulus_RAMA04_Yes-No Task_2019_Jun_12_1212_311,-1,True,2019_Jun_12_1212,Yes-No Task,3,RAMA04,
Yes-No Task,11,0,11,0,6,-1,Hit,0.535833299858,True,-1,stimulus_RAMA04_Yes-No Task_2019_Jun_12_1212_312,-1,True,2019_Jun_12_1212,Yes-No Task,3,RAMA04,
Yes-No Task,12,0,12,0,8.2,-1,Hit,0.569198400015,True,-1,stimulus_RAMA04_Yes-No Task_2019_Jun_12_1212_313,-1,True,2019_Jun_12_1212,Yes-No Task,3,RAMA04,
Yes-No Task,13,0,13,0,2.6,-1,Correct Rejection,0.532533000223,False,-1,stimulus_RAMA04_Yes-No Task_2019_Jun_12_1212_314,-1,True,2019_Jun_12_1212,Yes-No Task,3,RAMA04,
Yes-No Task,14,0,14,0,8.2,-1,False Alarm,0.70082779997,False,-1,stimulus_RAMA04_Yes-No Task_2019_Jun_12_1212_315,-1,True,2019_Jun_12_1212,Yes-No Task,3,RAMA04,
Yes-No Task,15,0,15,0,2.5,-1,Correct Rejection,0.502359499922,False,-1,stimulus_RAMA04_Yes-No Task_2019_Jun_12_1212_316,-1,True,2019_Jun_12_1212,Yes-No Task,3,RAMA04,
Yes-No Task,16,0,16,0,5,-1,Hit,0.631099699996,True,-1,stimulus_RAMA04_Yes-No Task_2019_Jun_12_1212_317,-1,True,2019_Jun_12_1212,Yes-No Task,3,RAMA04,
Yes-No Task,17,0,17,0,7,-1,Correct Rejection,0.634005800122,False,-1,stimulus_RAMA04_Yes-No Task_2019_Jun_12_1212_318,-1,True,2019_Jun_12_1212,Yes-No Task,3,RAMA04,
Yes-No Task,18,0,18,0,2.6,-1,Miss,0.566956100054,True,-1,stimulus_RAMA04_Yes-No Task_2019_Jun_12_1212_319,-1,True,2019_Jun_12_1212,Yes-No Task,3,RAMA04,
Yes-No Task,19,0,19,0,7,-1,Hit,0.500811600126,True,-1,stimulus_RAMA04_Yes-No Task_2019_Jun_12_1212_320,-1,True,2019_Jun_12_1212,Yes-No Task,3,RAMA04,
Yes-No Task,20,0,20,0,2.5,-1,Correct Rejection,0.600993199972,False,-1,stimulus_RAMA04_Yes-No Task_2019_Jun_12_1212_321,-1,True,2019_Jun_12_1212,Yes-No Task,3,RAMA04,
Yes-No Task,21,0,21,0,6,-1,Miss,0.46745830006,True,-1,stimulus_RAMA04_Yes-No Task_2019_Jun_12_1212_322,-1,True,2019_Jun_12_1212,Yes-No Task,3,RAMA04,
Yes-No Task,22,0,22,0,2.5,-1,Correct Rejection,0.668010800146,False,-1,stimulus_RAMA04_Yes-No Task_2019_Jun_12_1212_323,-1,True,2019_Jun_12_1212,Yes-No Task,3,RAMA04,
Yes-No Task,23,0,23,0,9.7,-1,Hit,0.534200099995,True,-1,stimulus_RAMA04_Yes-No Task_2019_Jun_12_1212_324,-1,True,2019_Jun_12_1212,Yes-No Task,3,RAMA04,
Yes-No Task,24,0,24,0,3.8,-1,Hit,0.533827899955,True,-1,stimulus_RAMA04_Yes-No Task_2019_Jun_12_1212_325,-1,True,2019_Jun_12_1212,Yes-No Task,3,RAMA04,
Yes-No Task,25,0,25,0,5,-1,Hit,0.600572699914,True,-1,stimulus_RAMA04_Yes-No Task_2019_Jun_12_1212_326,-1,True,2019_Jun_12_1212,Yes-No Task,3,RAMA04,
Yes-No Task,26,0,26,0,5,-1,Hit,0.466387500055,True,-1,stimulus_RAMA04_Yes-No Task_2019_Jun_12_1212_327,-1,True,2019_Jun_12_1212,Yes-No Task,3,RAMA04,
Yes-No Task,27,0,27,0,7,-1,Hit,0.601372699952,True,-1,stimulus_RAMA04_Yes-No Task_2019_Jun_12_1212_328,-1,True,2019_Jun_12_1212,Yes-No Task,3,RAMA04,
Yes-No Task,28,0,28,0,5,-1,Miss,0.534588600043,True,-1,stimulus_RAMA04_Yes-No Task_2019_Jun_12_1212_329,-1,True,2019_Jun_12_1212,Yes-No Task,3,RAMA04,
Yes-No Task,29,0,29,0,3.8,-1,Hit,0.467381600058,True,-1,stimulus_RAMA04_Yes-No Task_2019_Jun_12_1212_330,-1,True,2019_Jun_12_1212,Yes-No Task,3,RAMA04,
Yes-No Task,30,0,30,0,6,-1,Hit,0.500871700002,True,-1,stimulus_RAMA04_Yes-No Task_2019_Jun_12_1212_331,-1,True,2019_Jun_12_1212,Yes-No Task,3,RAMA04,
Yes-No Task,31,0,31,0,7,-1,Hit,0.635726599954,True,-1,stimulus_RAMA04_Yes-No Task_2019_Jun_12_1212_332,-1,True,2019_Jun_12_1212,Yes-No Task,3,RAMA04,
Yes-No Task,32,0,32,0,2.5,-1,False Alarm,0.4686693002,False,-1,stimulus_RAMA04_Yes-No Task_2019_Jun_12_1212_333,-1,True,2019_Jun_12_1212,Yes-No Task,3,RAMA04,
Yes-No Task,33,0,33,0,2.6,-1,Hit,0.333301200066,True,-1,stimulus_RAMA04_Yes-No Task_2019_Jun_12_1212_334,-1,True,2019_Jun_12_1212,Yes-No Task,3,RAMA04,
Yes-No Task,34,0,34,0,5,-1,False Alarm,0.46706870012,False,-1,stimulus_RAMA04_Yes-No Task_2019_Jun_12_1212_335,-1,True,2019_Jun_12_1212,Yes-No Task,3,RAMA04,
Yes-No Task,35,0,35,0,7,-1,Hit,0.400660400046,True,-1,stimulus_RAMA04_Yes-No Task_2019_Jun_12_1212_336,-1,True,2019_Jun_12_1212,Yes-No Task,3,RAMA04,
Yes-No Task,36,0,36,0,9.7,-1,Hit,0.466567299794,True,-1,stimulus_RAMA04_Yes-No Task_2019_Jun_12_1212_337,-1,True,2019_Jun_12_1212,Yes-No Task,3,RAMA04,
Yes-No Task,37,0,37,0,7,-1,Hit,0.66768459999,True,-1,stimulus_RAMA04_Yes-No Task_2019_Jun_12_1212_338,-1,True,2019_Jun_12_1212,Yes-No Task,3,RAMA04,
Yes-No Task,38,0,38,0,5,-1,Correct Rejection,0.567288900027,False,-1,stimulus_RAMA04_Yes-No Task_2019_Jun_12_1212_339,-1,True,2019_Jun_12_1212,Yes-No Task,3,RAMA04,
Yes-No Task,39,0,39,0,3.8,-1,Hit,0.534537600121,True,-1,stimulus_RAMA04_Yes-No Task_2019_Jun_12_1212_340,-1,True,2019_Jun_12_1212,Yes-No Task,3,RAMA04,
Yes-No Task,40,0,40,0,7,-1,Correct Rejection,0.532445000019,False,-1,stimulus_RAMA04_Yes-No Task_2019_Jun_12_1212_341,-1,True,2019_Jun_12_1212,Yes-No Task,3,RAMA04,
Yes-No Task,41,0,41,0,2.5,-1,Correct Rejection,0.568242100067,False,-1,stimulus_RAMA04_Yes-No Task_2019_Jun_12_1212_342,-1,True,2019_Jun_12_1212,Yes-No Task,3,RAMA04,
Yes-No Task,42,0,42,0,6,-1,Correct Rejection,0.467470899923,False,-1,stimulus_RAMA04_Yes-No Task_2019_Jun_12_1212_343,-1,True,2019_Jun_12_1212,Yes-No Task,3,RAMA04,
Yes-No Task,43,0,43,0,2.5,-1,Miss,0.500484800199,True,-1,stimulus_RAMA04_Yes-No Task_2019_Jun_12_1212_344,-1,True,2019_Jun_12_1212,Yes-No Task,3,RAMA04,
Yes-No Task,44,0,44,0,2.6,-1,Hit,0.60286650015,True,-1,stimulus_RAMA04_Yes-No Task_2019_Jun_12_1212_345,-1,True,2019_Jun_12_1212,Yes-No Task,3,RAMA04,
Yes-No Task,45,0,45,0,5,-1,Hit,0.500568500021,True,-1,stimulus_RAMA04_Yes-No Task_2019_Jun_12_1212_346,-1,True,2019_Jun_12_1212,Yes-No Task,3,RAMA04,
Yes-No Task,46,0,46,0,8.2,-1,Hit,0.500730099855,True,-1,stimulus_RAMA04_Yes-No Task_2019_Jun_12_1212_347,-1,True,2019_Jun_12_1212,Yes-No Task,3,RAMA04,
Yes-No Task,47,0,47,0,2.5,-1,Miss,0.568105499959,True,-1,stimulus_RAMA04_Yes-No Task_2019_Jun_12_1212_348,-1,True,2019_Jun_12_1212,Yes-No Task,3,RAMA04,
Yes-No Task,48,0,48,0,2.6,-1,Correct Rejection,0.535184200155,False,-1,stimulus_RAMA04_Yes-No Task_2019_Jun_12_1212_349,-1,True,2019_Jun_12_1212,Yes-No Task,3,RAMA04,
Yes-No Task,49,0,49,0,3.8,-1,Correct Rejection,0.500987900188,False,-1,stimulus_RAMA04_Yes-No Task_2019_Jun_12_1212_350,-1,True,2019_Jun_12_1212,Yes-No Task,3,RAMA04,
Yes-No Task,50,0,50,0,7,-1,Correct Rejection,0.533853700152,False,-1,stimulus_RAMA04_Yes-No Task_2019_Jun_12_1212_351,-1,True,2019_Jun_12_1212,Yes-No Task,3,RAMA04,
Yes-No Task,51,0,51,0,6,-1,Hit,0.534750699997,True,-1,stimulus_RAMA04_Yes-No Task_2019_Jun_12_1212_352,-1,True,2019_Jun_12_1212,Yes-No Task,3,RAMA04,
Yes-No Task,52,0,52,0,5,-1,Hit,0.567680099979,True,-1,stimulus_RAMA04_Yes-No Task_2019_Jun_12_1212_353,-1,True,2019_Jun_12_1212,Yes-No Task,3,RAMA04,
Yes-No Task,53,0,53,0,7,-1,Hit,0.633198899915,True,-1,stimulus_RAMA04_Yes-No Task_2019_Jun_12_1212_354,-1,True,2019_Jun_12_1212,Yes-No Task,3,RAMA04,
Yes-No Task,54,0,54,0,2.6,-1,False Alarm,0.633360300213,False,-1,stimulus_RAMA04_Yes-No Task_2019_Jun_12_1212_355,-1,True,2019_Jun_12_1212,Yes-No Task,3,RAMA04,
Yes-No Task,55,0,55,0,5,-1,False Alarm,0.467279400211,False,-1,stimulus_RAMA04_Yes-No Task_2019_Jun_12_1212_356,-1,True,2019_Jun_12_1212,Yes-No Task,3,RAMA04,
Yes-No Task,56,0,56,0,2.6,-1,Hit,0.500641700113,True,-1,stimulus_RAMA04_Yes-No Task_2019_Jun_12_1212_357,-1,True,2019_Jun_12_1212,Yes-No Task,3,RAMA04,
Yes-No Task,57,0,57,0,6,-1,Hit,0.533984499983,True,-1,stimulus_RAMA04_Yes-No Task_2019_Jun_12_1212_358,-1,True,2019_Jun_12_1212,Yes-No Task,3,RAMA04,
Yes-No Task,58,0,58,0,6,-1,Hit,0.567708200077,True,-1,stimulus_RAMA04_Yes-No Task_2019_Jun_12_1212_359,-1,True,2019_Jun_12_1212,Yes-No Task,3,RAMA04,
Yes-No Task,59,0,59,0,8.2,-1,Correct Rejection,0.634183299961,False,-1,stimulus_RAMA04_Yes-No Task_2019_Jun_12_1212_360,-1,True,2019_Jun_12_1212,Yes-No Task,3,RAMA04,
Yes-No Task,60,0,60,0,5,-1,Hit,0.567105600145,True,-1,stimulus_RAMA04_Yes-No Task_2019_Jun_12_1212_361,-1,True,2019_Jun_12_1212,Yes-No Task,3,RAMA04,
Yes-No Task,61,0,61,0,2.5,-1,Correct Rejection,0.600654400187,False,-1,stimulus_RAMA04_Yes-No Task_2019_Jun_12_1212_362,-1,True,2019_Jun_12_1212,Yes-No Task,3,RAMA04,
Yes-No Task,62,0,62,0,2.6,-1,Correct Rejection,0.566986199934,False,-1,stimulus_RAMA04_Yes-No Task_2019_Jun_12_1212_363,-1,True,2019_Jun_12_1212,Yes-No Task,3,RAMA04,
Yes-No Task,63,0,63,0,9.7,-1,Correct Rejection,0.500843400136,False,-1,stimulus_RAMA04_Yes-No Task_2019_Jun_12_1212_364,-1,True,2019_Jun_12_1212,Yes-No Task,3,RAMA04,
Yes-No Task,64,0,64,0,2.6,-1,Hit,0.601413000142,True,-1,stimulus_RAMA04_Yes-No Task_2019_Jun_12_1212_365,-1,True,2019_Jun_12_1212,Yes-No Task,3,RAMA04,
Yes-No Task,65,0,65,0,5,-1,Hit,0.49853569991,True,-1,stimulus_RAMA04_Yes-No Task_2019_Jun_12_1212_366,-1,True,2019_Jun_12_1212,Yes-No Task,3,RAMA04,
Yes-No Task,66,0,66,0,2.5,-1,Miss,0.600388100138,True,-1,stimulus_RAMA04_Yes-No Task_2019_Jun_12_1212_367,-1,True,2019_Jun_12_1212,Yes-No Task,3,RAMA04,
Yes-No Task,67,0,67,0,7,-1,False Alarm,0.434590300079,False,-1,stimulus_RAMA04_Yes-No Task_2019_Jun_12_1212_368,-1,True,2019_Jun_12_1212,Yes-No Task,3,RAMA04,
Yes-No Task,68,0,68,0,2.6,-1,False Alarm,0.334624300012,False,-1,stimulus_RAMA04_Yes-No Task_2019_Jun_12_1212_369,-1,True,2019_Jun_12_1212,Yes-No Task,3,RAMA04,
Yes-No Task,69,0,69,0,9.7,-1,Correct Rejection,0.600459299982,False,-1,stimulus_RAMA04_Yes-No Task_2019_Jun_12_1212_370,-1,True,2019_Jun_12_1212,Yes-No Task,3,RAMA04,
Yes-No Task,70,0,70,0,9.7,-1,Hit,0.700531299924,True,-1,stimulus_RAMA04_Yes-No Task_2019_Jun_12_1212_371,-1,True,2019_Jun_12_1212,Yes-No Task,3,RAMA04,
Yes-No Task,71,0,71,0,3.8,-1,Correct Rejection,0.600388300139,False,-1,stimulus_RAMA04_Yes-No Task_2019_Jun_12_1212_372,-1,True,2019_Jun_12_1212,Yes-No Task,3,RAMA04,
Yes-No Task,72,0,72,0,2.6,-1,Miss,0.567022499861,True,-1,stimulus_RAMA04_Yes-No Task_2019_Jun_12_1212_373,-1,True,2019_Jun_12_1212,Yes-No Task,3,RAMA04,
Yes-No Task,73,0,73,0,2.5,-1,Correct Rejection,0.600430099992,False,-1,stimulus_RAMA04_Yes-No Task_2019_Jun_12_1212_374,-1,True,2019_Jun_12_1212,Yes-No Task,3,RAMA04,
Yes-No Task,74,0,74,0,2.5,-1,Miss,0.634917699965,True,-1,stimulus_RAMA04_Yes-No Task_2019_Jun_12_1212_375,-1,True,2019_Jun_12_1212,Yes-No Task,3,RAMA04,
Yes-No Task,0,0,0,0,2.6,-1,False Alarm,0.400300499983,False,-1,stimulus_RAMA04_Yes-No Task_2019_Jun_12_1212_376,-1,True,2019_Jun_12_1212,Yes-No Task,3,RAMA04,
Yes-No Task,1,0,1,0,3.8,-1,Hit,0.434221500065,True,-1,stimulus_RAMA04_Yes-No Task_2019_Jun_12_1212_377,-1,True,2019_Jun_12_1212,Yes-No Task,3,RAMA04,
Yes-No Task,2,0,2,0,5,-1,Hit,0.500515400199,True,-1,stimulus_RAMA04_Yes-No Task_2019_Jun_12_1212_378,-1,True,2019_Jun_12_1212,Yes-No Task,3,RAMA04,
Yes-No Task,3,0,3,0,6,-1,Hit,0.567059400026,True,-1,stimulus_RAMA04_Yes-No Task_2019_Jun_12_1212_379,-1,True,2019_Jun_12_1212,Yes-No Task,3,RAMA04,
Yes-No Task,4,0,4,0,5,-1,Correct Rejection,0.533917499939,False,-1,stimulus_RAMA04_Yes-No Task_2019_Jun_12_1212_380,-1,True,2019_Jun_12_1212,Yes-No Task,3,RAMA04,
Yes-No Task,5,0,5,0,7,-1,Correct Rejection,0.500242499867,False,-1,stimulus_RAMA04_Yes-No Task_2019_Jun_12_1212_381,-1,True,2019_Jun_12_1212,Yes-No Task,3,RAMA04,
Yes-No Task,6,0,6,0,5,-1,Correct Rejection,0.500795400003,False,-1,stimulus_RAMA04_Yes-No Task_2019_Jun_12_1212_382,-1,True,2019_Jun_12_1212,Yes-No Task,3,RAMA04,
Yes-No Task,7,0,7,0,9.7,-1,Hit,0.533977600047,True,-1,stimulus_RAMA04_Yes-No Task_2019_Jun_12_1212_383,-1,True,2019_Jun_12_1212,Yes-No Task,3,RAMA04,
Yes-No Task,8,0,8,0,8.2,-1,False Alarm,0.433839600068,False,-1,stimulus_RAMA04_Yes-No Task_2019_Jun_12_1212_384,-1,True,2019_Jun_12_1212,Yes-No Task,3,RAMA04,
Yes-No Task,9,0,9,0,7,-1,Correct Rejection,0.533655799925,False,-1,stimulus_RAMA04_Yes-No Task_2019_Jun_12_1212_385,-1,True,2019_Jun_12_1212,Yes-No Task,3,RAMA04,
Yes-No Task,10,0,10,0,2.6,-1,Correct Rejection,0.600192600163,False,-1,stimulus_RAMA04_Yes-No Task_2019_Jun_12_1212_386,-1,True,2019_Jun_12_1212,Yes-No Task,3,RAMA04,
Yes-No Task,11,0,11,0,5,-1,Correct Rejection,0.499111700105,False,-1,stimulus_RAMA04_Yes-No Task_2019_Jun_12_1212_387,-1,True,2019_Jun_12_1212,Yes-No Task,3,RAMA04,
Yes-No Task,12,0,12,0,6,-1,Hit,0.568058300065,True,-1,stimulus_RAMA04_Yes-No Task_2019_Jun_12_1212_388,-1,True,2019_Jun_12_1212,Yes-No Task,3,RAMA04,
Yes-No Task,13,0,13,0,5,-1,Correct Rejection,0.567239500117,False,-1,stimulus_RAMA04_Yes-No Task_2019_Jun_12_1212_389,-1,True,2019_Jun_12_1212,Yes-No Task,3,RAMA04,
Yes-No Task,14,0,14,0,6,-1,Miss,0.567138799932,True,-1,stimulus_RAMA04_Yes-No Task_2019_Jun_12_1212_390,-1,True,2019_Jun_12_1212,Yes-No Task,3,RAMA04,
Yes-No Task,15,0,15,0,9.7,-1,False Alarm,0.667209899984,False,-1,stimulus_RAMA04_Yes-No Task_2019_Jun_12_1212_391,-1,True,2019_Jun_12_1212,Yes-No Task,3,RAMA04,
Yes-No Task,16,0,16,0,7,-1,Correct Rejection,0.367335899966,False,-1,stimulus_RAMA04_Yes-No Task_2019_Jun_12_1212_392,-1,True,2019_Jun_12_1212,Yes-No Task,3,RAMA04,
Yes-No Task,17,0,17,0,2.6,-1,Correct Rejection,0.502063899999,False,-1,stimulus_RAMA04_Yes-No Task_2019_Jun_12_1212_393,-1,True,2019_Jun_12_1212,Yes-No Task,3,RAMA04,
Yes-No Task,18,0,18,0,8.2,-1,Hit,0.567559199873,True,-1,stimulus_RAMA04_Yes-No Task_2019_Jun_12_1212_394,-1,True,2019_Jun_12_1212,Yes-No Task,3,RAMA04,
Yes-No Task,19,0,19,0,9.7,-1,Hit,0.467007300118,True,-1,stimulus_RAMA04_Yes-No Task_2019_Jun_12_1212_395,-1,True,2019_Jun_12_1212,Yes-No Task,3,RAMA04,
Yes-No Task,20,0,20,0,2.6,-1,Miss,0.500395199982,True,-1,stimulus_RAMA04_Yes-No Task_2019_Jun_12_1212_396,-1,True,2019_Jun_12_1212,Yes-No Task,3,RAMA04,
Yes-No Task,21,0,21,0,6,-1,Hit,0.50064340001,True,-1,stimulus_RAMA04_Yes-No Task_2019_Jun_12_1212_397,-1,True,2019_Jun_12_1212,Yes-No Task,3,RAMA04,
Yes-No Task,22,0,22,0,2.5,-1,Miss,0.501576700015,True,-1,stimulus_RAMA04_Yes-No Task_2019_Jun_12_1212_398,-1,True,2019_Jun_12_1212,Yes-No Task,3,RAMA04,
Yes-No Task,23,0,23,0,2.6,-1,Correct Rejection,0.567130200099,False,-1,stimulus_RAMA04_Yes-No Task_2019_Jun_12_1212_399,-1,True,2019_Jun_12_1212,Yes-No Task,3,RAMA04,
Yes-No Task,24,0,24,0,6,-1,Correct Rejection,0.533508999972,False,-1,stimulus_RAMA04_Yes-No Task_2019_Jun_12_1212_400,-1,True,2019_Jun_12_1212,Yes-No Task,3,RAMA04,
Yes-No Task,25,0,25,0,8.2,-1,Hit,0.533907499863,True,-1,stimulus_RAMA04_Yes-No Task_2019_Jun_12_1212_401,-1,True,2019_Jun_12_1212,Yes-No Task,3,RAMA04,
Yes-No Task,26,0,26,0,5,-1,Correct Rejection,0.533901300048,False,-1,stimulus_RAMA04_Yes-No Task_2019_Jun_12_1212_402,-1,True,2019_Jun_12_1212,Yes-No Task,3,RAMA04,
Yes-No Task,27,0,27,0,7,-1,Correct Rejection,0.500603500055,False,-1,stimulus_RAMA04_Yes-No Task_2019_Jun_12_1212_403,-1,True,2019_Jun_12_1212,Yes-No Task,3,RAMA04,
Yes-No Task,28,0,28,0,2.6,-1,Hit,0.468418000033,True,-1,stimulus_RAMA04_Yes-No Task_2019_Jun_12_1212_404,-1,True,2019_Jun_12_1212,Yes-No Task,3,RAMA04,
Yes-No Task,29,0,29,0,8.2,-1,Correct Rejection,0.567380300025,False,-1,stimulus_RAMA04_Yes-No Task_2019_Jun_12_1212_405,-1,True,2019_Jun_12_1212,Yes-No Task,3,RAMA04,
Yes-No Task,30,0,30,0,8.2,-1,Correct Rejection,0.499535100069,False,-1,stimulus_RAMA04_Yes-No Task_2019_Jun_12_1212_406,-1,True,2019_Jun_12_1212,Yes-No Task,3,RAMA04,
Yes-No Task,31,0,31,0,9.7,-1,Correct Rejection,0.46712590009,False,-1,stimulus_RAMA04_Yes-No Task_2019_Jun_12_1212_407,-1,True,2019_Jun_12_1212,Yes-No Task,3,RAMA04,
Yes-No Task,32,0,32,0,2.6,-1,Correct Rejection,0.500348899979,False,-1,stimulus_RAMA04_Yes-No Task_2019_Jun_12_1212_408,-1,True,2019_Jun_12_1212,Yes-No Task,3,RAMA04,
Yes-No Task,33,0,33,0,2.6,-1,Miss,0.501286400016,True,-1,stimulus_RAMA04_Yes-No Task_2019_Jun_12_1212_409,-1,True,2019_Jun_12_1212,Yes-No Task,3,RAMA04,
Yes-No Task,34,0,34,0,8.2,-1,Hit,0.433781299973,True,-1,stimulus_RAMA04_Yes-No Task_2019_Jun_12_1212_410,-1,True,2019_Jun_12_1212,Yes-No Task,3,RAMA04,
Yes-No Task,35,0,35,0,2.6,-1,Miss,0.701530500082,True,-1,stimulus_RAMA04_Yes-No Task_2019_Jun_12_1212_411,-1,True,2019_Jun_12_1212,Yes-No Task,3,RAMA04,
Yes-No Task,36,0,36,0,6,-1,Miss,0.663178200135,True,-1,stimulus_RAMA04_Yes-No Task_2019_Jun_12_1212_412,-1,True,2019_Jun_12_1212,Yes-No Task,3,RAMA04,
Yes-No Task,37,0,37,0,6,-1,Hit,0.734071199782,True,-1,stimulus_RAMA04_Yes-No Task_2019_Jun_12_1212_413,-1,True,2019_Jun_12_1212,Yes-No Task,3,RAMA04,
Yes-No Task,38,0,38,0,2.6,-1,Miss,0.567215699935,True,-1,stimulus_RAMA04_Yes-No Task_2019_Jun_12_1212_414,-1,True,2019_Jun_12_1212,Yes-No Task,3,RAMA04,
Yes-No Task,39,0,39,0,2.5,-1,Miss,0.567034299951,True,-1,stimulus_RAMA04_Yes-No Task_2019_Jun_12_1212_415,-1,True,2019_Jun_12_1212,Yes-No Task,3,RAMA04,
Yes-No Task,40,0,40,0,6,-1,Hit,0.501661799848,True,-1,stimulus_RAMA04_Yes-No Task_2019_Jun_12_1212_416,-1,True,2019_Jun_12_1212,Yes-No Task,3,RAMA04,
Yes-No Task,41,0,41,0,3.8,-1,Hit,0.500869200099,True,-1,stimulus_RAMA04_Yes-No Task_2019_Jun_12_1212_417,-1,True,2019_Jun_12_1212,Yes-No Task,3,RAMA04,
Yes-No Task,42,0,42,0,2.5,-1,False Alarm,0.600571899908,False,-1,stimulus_RAMA04_Yes-No Task_2019_Jun_12_1212_418,-1,True,2019_Jun_12_1212,Yes-No Task,3,RAMA04,
Yes-No Task,43,0,43,0,2.6,-1,Correct Rejection,0.700719000073,False,-1,stimulus_RAMA04_Yes-No Task_2019_Jun_12_1212_419,-1,True,2019_Jun_12_1212,Yes-No Task,3,RAMA04,
Yes-No Task,44,0,44,0,5,-1,Correct Rejection,0.465730100172,False,-1,stimulus_RAMA04_Yes-No Task_2019_Jun_12_1212_420,-1,True,2019_Jun_12_1212,Yes-No Task,3,RAMA04,
Yes-No Task,45,0,45,0,2.5,-1,Miss,0.500252600061,True,-1,stimulus_RAMA04_Yes-No Task_2019_Jun_12_1212_421,-1,True,2019_Jun_12_1212,Yes-No Task,3,RAMA04,
Yes-No Task,46,0,46,0,7,-1,Hit,0.532944999868,True,-1,stimulus_RAMA04_Yes-No Task_2019_Jun_12_1212_422,-1,True,2019_Jun_12_1212,Yes-No Task,3,RAMA04,
Yes-No Task,47,0,47,0,9.7,-1,Hit,0.500098299934,True,-1,stimulus_RAMA04_Yes-No Task_2019_Jun_12_1212_423,-1,True,2019_Jun_12_1212,Yes-No Task,3,RAMA04,
Yes-No Task,48,0,48,0,8.2,-1,Correct Rejection,0.532693800051,False,-1,stimulus_RAMA04_Yes-No Task_2019_Jun_12_1212_424,-1,True,2019_Jun_12_1212,Yes-No Task,3,RAMA04,
Yes-No Task,49,0,49,0,6,-1,Correct Rejection,0.733286600094,False,-1,stimulus_RAMA04_Yes-No Task_2019_Jun_12_1212_425,-1,True,2019_Jun_12_1212,Yes-No Task,3,RAMA04,
Yes-No Task,50,0,50,0,3.8,-1,Correct Rejection,0.633197600022,False,-1,stimulus_RAMA04_Yes-No Task_2019_Jun_12_1212_426,-1,True,2019_Jun_12_1212,Yes-No Task,3,RAMA04,
Yes-No Task,51,0,51,0,2.5,-1,False Alarm,0.600316900061,False,-1,stimulus_RAMA04_Yes-No Task_2019_Jun_12_1212_427,-1,True,2019_Jun_12_1212,Yes-No Task,3,RAMA04,
Yes-No Task,52,0,52,0,5,-1,False Alarm,0.467124799965,False,-1,stimulus_RAMA04_Yes-No Task_2019_Jun_12_1212_428,-1,True,2019_Jun_12_1212,Yes-No Task,3,RAMA04,
Yes-No Task,53,0,53,0,6,-1,Hit,0.400999899954,True,-1,stimulus_RAMA04_Yes-No Task_2019_Jun_12_1212_429,-1,True,2019_Jun_12_1212,Yes-No Task,3,RAMA04,
Yes-No Task,54,0,54,0,5,-1,Hit,0.600590300048,True,-1,stimulus_RAMA04_Yes-No Task_2019_Jun_12_1212_430,-1,True,2019_Jun_12_1212,Yes-No Task,3,RAMA04,
Yes-No Task,55,0,55,0,9.7,-1,Correct Rejection,0.73414480011,False,-1,stimulus_RAMA04_Yes-No Task_2019_Jun_12_1212_431,-1,True,2019_Jun_12_1212,Yes-No Task,3,RAMA04,
Yes-No Task,56,0,56,0,8.2,-1,Hit,0.670662699966,True,-1,stimulus_RAMA04_Yes-No Task_2019_Jun_12_1212_432,-1,True,2019_Jun_12_1212,Yes-No Task,3,RAMA04,
Yes-No Task,57,0,57,0,7,-1,Hit,0.633847799851,True,-1,stimulus_RAMA04_Yes-No Task_2019_Jun_12_1212_433,-1,True,2019_Jun_12_1212,Yes-No Task,3,RAMA04,
Yes-No Task,58,0,58,0,9.7,-1,Correct Rejection,0.567179200007,False,-1,stimulus_RAMA04_Yes-No Task_2019_Jun_12_1212_434,-1,True,2019_Jun_12_1212,Yes-No Task,3,RAMA04,
Yes-No Task,59,0,59,0,9.7,-1,False Alarm,0.6011671999,False,-1,stimulus_RAMA04_Yes-No Task_2019_Jun_12_1212_435,-1,True,2019_Jun_12_1212,Yes-No Task,3,RAMA04,
Yes-No Task,60,0,60,0,2.6,-1,Hit,0.66725519998,True,-1,stimulus_RAMA04_Yes-No Task_2019_Jun_12_1212_436,-1,True,2019_Jun_12_1212,Yes-No Task,3,RAMA04,
Yes-No Task,61,0,61,0,3.8,-1,Hit,0.500595899997,True,-1,stimulus_RAMA04_Yes-No Task_2019_Jun_12_1212_437,-1,True,2019_Jun_12_1212,Yes-No Task,3,RAMA04,
Yes-No Task,62,0,62,0,6,-1,Hit,0.600334200077,True,-1,stimulus_RAMA04_Yes-No Task_2019_Jun_12_1212_438,-1,True,2019_Jun_12_1212,Yes-No Task,3,RAMA04,
Yes-No Task,63,0,63,0,6,-1,Hit,0.466312099947,True,-1,stimulus_RAMA04_Yes-No Task_2019_Jun_12_1212_439,-1,True,2019_Jun_12_1212,Yes-No Task,3,RAMA04,
Yes-No Task,64,0,64,0,2.6,-1,Miss,0.602326499997,True,-1,stimulus_RAMA04_Yes-No Task_2019_Jun_12_1212_440,-1,True,2019_Jun_12_1212,Yes-No Task,3,RAMA04,
Yes-No Task,65,0,65,0,8.2,-1,Correct Rejection,0.500617899932,False,-1,stimulus_RAMA04_Yes-No Task_2019_Jun_12_1212_441,-1,True,2019_Jun_12_1212,Yes-No Task,3,RAMA04,
Yes-No Task,66,0,66,0,7,-1,Hit,0.500710400054,True,-1,stimulus_RAMA04_Yes-No Task_2019_Jun_12_1212_442,-1,True,2019_Jun_12_1212,Yes-No Task,3,RAMA04,
Yes-No Task,67,0,67,0,8.2,-1,Hit,0.467963099945,True,-1,stimulus_RAMA04_Yes-No Task_2019_Jun_12_1212_443,-1,True,2019_Jun_12_1212,Yes-No Task,3,RAMA04,
Yes-No Task,68,0,68,0,6,-1,Correct Rejection,0.600535900099,False,-1,stimulus_RAMA04_Yes-No Task_2019_Jun_12_1212_444,-1,True,2019_Jun_12_1212,Yes-No Task,3,RAMA04,
Yes-No Task,69,0,69,0,3.8,-1,Hit,0.633447300177,True,-1,stimulus_RAMA04_Yes-No Task_2019_Jun_12_1212_445,-1,True,2019_Jun_12_1212,Yes-No Task,3,RAMA04,
Yes-No Task,70,0,70,0,2.6,-1,Hit,0.533245099941,True,-1,stimulus_RAMA04_Yes-No Task_2019_Jun_12_1212_446,-1,True,2019_Jun_12_1212,Yes-No Task,3,RAMA04,
Yes-No Task,71,0,71,0,9.7,-1,False Alarm,0.534900999861,False,-1,stimulus_RAMA04_Yes-No Task_2019_Jun_12_1212_447,-1,True,2019_Jun_12_1212,Yes-No Task,3,RAMA04,
Yes-No Task,72,0,72,0,6,-1,Hit,0.46747189993,True,-1,stimulus_RAMA04_Yes-No Task_2019_Jun_12_1212_448,-1,True,2019_Jun_12_1212,Yes-No Task,3,RAMA04,
Yes-No Task,73,0,73,0,5,-1,Hit,0.532915899996,True,-1,stimulus_RAMA04_Yes-No Task_2019_Jun_12_1212_449,-1,True,2019_Jun_12_1212,Yes-No Task,3,RAMA04,
Yes-No Task,74,0,74,0,8.2,-1,No Answer,-1,False,-1,stimulus_RAMA04_Yes-No Task_2019_Jun_12_1212_450,-1,True,2019_Jun_12_1212,Yes-No Task,3,RAMA04,
Yes-No Task,0,0,0,0,5,-1,False Alarm,0.334458500147,False,-1,stimulus_RAMA04_Yes-No Task_2019_Jun_12_1212_451,-1,True,2019_Jun_12_1212,Yes-No Task,3,RAMA04,
Yes-No Task,1,0,1,0,9.7,-1,Hit,0.300258100033,True,-1,stimulus_RAMA04_Yes-No Task_2019_Jun_12_1212_452,-1,True,2019_Jun_12_1212,Yes-No Task,3,RAMA04,
Yes-No Task,2,0,2,0,6,-1,Hit,0.333769500023,True,-1,stimulus_RAMA04_Yes-No Task_2019_Jun_12_1212_453,-1,True,2019_Jun_12_1212,Yes-No Task,3,RAMA04,
Yes-No Task,3,0,3,0,3.8,-1,False Alarm,0.367168799974,False,-1,stimulus_RAMA04_Yes-No Task_2019_Jun_12_1212_454,-1,True,2019_Jun_12_1212,Yes-No Task,3,RAMA04,
Yes-No Task,4,0,4,0,5,-1,False Alarm,0.33348869998,False,-1,stimulus_RAMA04_Yes-No Task_2019_Jun_12_1212_455,-1,True,2019_Jun_12_1212,Yes-No Task,3,RAMA04,
Yes-No Task,5,0,5,0,2.6,-1,Hit,0.500706000021,True,-1,stimulus_RAMA04_Yes-No Task_2019_Jun_12_1212_456,-1,True,2019_Jun_12_1212,Yes-No Task,3,RAMA04,
Yes-No Task,6,0,6,0,3.8,-1,Miss,0.633004100062,True,-1,stimulus_RAMA04_Yes-No Task_2019_Jun_12_1212_457,-1,True,2019_Jun_12_1212,Yes-No Task,3,RAMA04,
Yes-No Task,7,0,7,0,9.7,-1,Correct Rejection,0.433919999981,False,-1,stimulus_RAMA04_Yes-No Task_2019_Jun_12_1212_458,-1,True,2019_Jun_12_1212,Yes-No Task,3,RAMA04,
Yes-No Task,8,0,8,0,9.7,-1,Correct Rejection,0.466811199905,False,-1,stimulus_RAMA04_Yes-No Task_2019_Jun_12_1212_459,-1,True,2019_Jun_12_1212,Yes-No Task,3,RAMA04,
Yes-No Task,9,0,9,0,6,-1,Hit,0.56877709995,True,-1,stimulus_RAMA04_Yes-No Task_2019_Jun_12_1212_460,-1,True,2019_Jun_12_1212,Yes-No Task,3,RAMA04,
Yes-No Task,10,0,10,0,5,-1,Correct Rejection,0.567477300065,False,-1,stimulus_RAMA04_Yes-No Task_2019_Jun_12_1212_461,-1,True,2019_Jun_12_1212,Yes-No Task,3,RAMA04,
Yes-No Task,11,0,11,0,2.5,-1,Correct Rejection,0.567806300009,False,-1,stimulus_RAMA04_Yes-No Task_2019_Jun_12_1212_462,-1,True,2019_Jun_12_1212,Yes-No Task,3,RAMA04,
Yes-No Task,12,0,12,0,2.5,-1,Hit,0.466680100188,True,-1,stimulus_RAMA04_Yes-No Task_2019_Jun_12_1212_463,-1,True,2019_Jun_12_1212,Yes-No Task,3,RAMA04,
Yes-No Task,13,0,13,0,6,-1,Hit,0.466396000003,True,-1,stimulus_RAMA04_Yes-No Task_2019_Jun_12_1212_464,-1,True,2019_Jun_12_1212,Yes-No Task,3,RAMA04,
Yes-No Task,14,0,14,0,3.8,-1,Hit,0.466998999938,True,-1,stimulus_RAMA04_Yes-No Task_2019_Jun_12_1212_465,-1,True,2019_Jun_12_1212,Yes-No Task,3,RAMA04,
Yes-No Task,15,0,15,0,3.8,-1,Hit,0.500955799827,True,-1,stimulus_RAMA04_Yes-No Task_2019_Jun_12_1212_466,-1,True,2019_Jun_12_1212,Yes-No Task,3,RAMA04,
Yes-No Task,16,0,16,0,9.7,-1,Correct Rejection,0.467494599987,False,-1,stimulus_RAMA04_Yes-No Task_2019_Jun_12_1212_467,-1,True,2019_Jun_12_1212,Yes-No Task,3,RAMA04,
Yes-No Task,17,0,17,0,2.6,-1,Miss,0.568678600015,True,-1,stimulus_RAMA04_Yes-No Task_2019_Jun_12_1212_468,-1,True,2019_Jun_12_1212,Yes-No Task,3,RAMA04,
Yes-No Task,18,0,18,0,3.8,-1,Correct Rejection,0.50035290001,False,-1,stimulus_RAMA04_Yes-No Task_2019_Jun_12_1212_469,-1,True,2019_Jun_12_1212,Yes-No Task,3,RAMA04,
Yes-No Task,19,0,19,0,3.8,-1,Correct Rejection,0.568985299906,False,-1,stimulus_RAMA04_Yes-No Task_2019_Jun_12_1212_470,-1,True,2019_Jun_12_1212,Yes-No Task,3,RAMA04,
Yes-No Task,20,0,20,0,2.6,-1,Correct Rejection,0.467234300217,False,-1,stimulus_RAMA04_Yes-No Task_2019_Jun_12_1212_471,-1,True,2019_Jun_12_1212,Yes-No Task,3,RAMA04,
Yes-No Task,21,0,21,0,2.6,-1,Miss,0.433765499853,True,-1,stimulus_RAMA04_Yes-No Task_2019_Jun_12_1212_472,-1,True,2019_Jun_12_1212,Yes-No Task,3,RAMA04,
Yes-No Task,22,0,22,0,3.8,-1,Correct Rejection,0.465925200144,False,-1,stimulus_RAMA04_Yes-No Task_2019_Jun_12_1212_473,-1,True,2019_Jun_12_1212,Yes-No Task,3,RAMA04,
Yes-No Task,23,0,23,0,5,-1,Miss,0.50068840012,True,-1,stimulus_RAMA04_Yes-No Task_2019_Jun_12_1212_474,-1,True,2019_Jun_12_1212,Yes-No Task,3,RAMA04,
Yes-No Task,24,0,24,0,9.7,-1,Correct Rejection,0.600855000084,False,-1,stimulus_RAMA04_Yes-No Task_2019_Jun_12_1212_475,-1,True,2019_Jun_12_1212,Yes-No Task,3,RAMA04,
Yes-No Task,25,0,25,0,2.5,-1,Correct Rejection,0.53387090005,False,-1,stimulus_RAMA04_Yes-No Task_2019_Jun_12_1212_476,-1,True,2019_Jun_12_1212,Yes-No Task,3,RAMA04,
Yes-No Task,26,0,26,0,6,-1,Hit,0.535053600091,True,-1,stimulus_RAMA04_Yes-No Task_2019_Jun_12_1212_477,-1,True,2019_Jun_12_1212,Yes-No Task,3,RAMA04,
Yes-No Task,27,0,27,0,9.7,-1,False Alarm,0.533303299919,False,-1,stimulus_RAMA04_Yes-No Task_2019_Jun_12_1212_478,-1,True,2019_Jun_12_1212,Yes-No Task,3,RAMA04,
Yes-No Task,28,0,28,0,9.7,-1,Hit,0.332382999826,True,-1,stimulus_RAMA04_Yes-No Task_2019_Jun_12_1212_479,-1,True,2019_Jun_12_1212,Yes-No Task,3,RAMA04,
Yes-No Task,29,0,29,0,9.7,-1,Hit,0.468794999877,True,-1,stimulus_RAMA04_Yes-No Task_2019_Jun_12_1212_480,-1,True,2019_Jun_12_1212,Yes-No Task,3,RAMA04,
Yes-No Task,30,0,30,0,2.5,-1,Miss,0.634165199939,True,-1,stimulus_RAMA04_Yes-No Task_2019_Jun_12_1212_481,-1,True,2019_Jun_12_1212,Yes-No Task,3,RAMA04,
Yes-No Task,31,0,31,0,3.8,-1,Correct Rejection,0.466394500108,False,-1,stimulus_RAMA04_Yes-No Task_2019_Jun_12_1212_482,-1,True,2019_Jun_12_1212,Yes-No Task,3,RAMA04,
Yes-No Task,32,0,32,0,5,-1,Hit,0.467962800059,True,-1,stimulus_RAMA04_Yes-No Task_2019_Jun_12_1212_483,-1,True,2019_Jun_12_1212,Yes-No Task,3,RAMA04,
Yes-No Task,33,0,33,0,9.7,-1,Hit,0.500246200012,True,-1,stimulus_RAMA04_Yes-No Task_2019_Jun_12_1212_484,-1,True,2019_Jun_12_1212,Yes-No Task,3,RAMA04,
Yes-No Task,34,0,34,0,2.5,-1,Hit,0.468411699869,True,-1,stimulus_RAMA04_Yes-No Task_2019_Jun_12_1212_485,-1,True,2019_Jun_12_1212,Yes-No Task,3,RAMA04,
Yes-No Task,35,0,35,0,5,-1,False Alarm,0.467132400023,False,-1,stimulus_RAMA04_Yes-No Task_2019_Jun_12_1212_486,-1,True,2019_Jun_12_1212,Yes-No Task,3,RAMA04,
Yes-No Task,36,0,36,0,7,-1,Hit,0.399990400067,True,-1,stimulus_RAMA04_Yes-No Task_2019_Jun_12_1212_487,-1,True,2019_Jun_12_1212,Yes-No Task,3,RAMA04,
Yes-No Task,37,0,37,0,2.6,-1,Hit,0.434246599907,True,-1,stimulus_RAMA04_Yes-No Task_2019_Jun_12_1212_488,-1,True,2019_Jun_12_1212,Yes-No Task,3,RAMA04,
Yes-No Task,38,0,38,0,3.8,-1,Hit,0.63402560004,True,-1,stimulus_RAMA04_Yes-No Task_2019_Jun_12_1212_489,-1,True,2019_Jun_12_1212,Yes-No Task,3,RAMA04,
Yes-No Task,39,0,39,0,6,-1,False Alarm,0.500427699881,False,-1,stimulus_RAMA04_Yes-No Task_2019_Jun_12_1212_490,-1,True,2019_Jun_12_1212,Yes-No Task,3,RAMA04,
Yes-No Task,40,0,40,0,9.7,-1,Hit,0.400696600089,True,-1,stimulus_RAMA04_Yes-No Task_2019_Jun_12_1212_491,-1,True,2019_Jun_12_1212,Yes-No Task,3,RAMA04,
Yes-No Task,41,0,41,0,7,-1,Correct Rejection,0.633654199773,False,-1,stimulus_RAMA04_Yes-No Task_2019_Jun_12_1212_492,-1,True,2019_Jun_12_1212,Yes-No Task,3,RAMA04,
Yes-No Task,42,0,42,0,7,-1,Hit,0.535565500148,True,-1,stimulus_RAMA04_Yes-No Task_2019_Jun_12_1212_493,-1,True,2019_Jun_12_1212,Yes-No Task,3,RAMA04,
Yes-No Task,43,0,43,0,2.5,-1,Correct Rejection,0.566452299943,False,-1,stimulus_RAMA04_Yes-No Task_2019_Jun_12_1212_494,-1,True,2019_Jun_12_1212,Yes-No Task,3,RAMA04,
Yes-No Task,44,0,44,0,2.5,-1,Correct Rejection,0.500942000188,False,-1,stimulus_RAMA04_Yes-No Task_2019_Jun_12_1212_495,-1,True,2019_Jun_12_1212,Yes-No Task,3,RAMA04,
Yes-No Task,45,0,45,0,7,-1,Correct Rejection,0.50243400014,False,-1,stimulus_RAMA04_Yes-No Task_2019_Jun_12_1212_496,-1,True,2019_Jun_12_1212,Yes-No Task,3,RAMA04,
Yes-No Task,46,0,46,0,5,-1,Miss,0.60137160006,True,-1,stimulus_RAMA04_Yes-No Task_2019_Jun_12_1212_497,-1,True,2019_Jun_12_1212,Yes-No Task,3,RAMA04,
Yes-No Task,47,0,47,0,5,-1,Miss,0.367611200083,True,-1,stimulus_RAMA04_Yes-No Task_2019_Jun_12_1212_498,-1,True,2019_Jun_12_1212,Yes-No Task,3,RAMA04,
Yes-No Task,48,0,48,0,2.5,-1,False Alarm,0.333844300127,False,-1,stimulus_RAMA04_Yes-No Task_2019_Jun_12_1212_499,-1,True,2019_Jun_12_1212,Yes-No Task,3,RAMA04,
Yes-No Task,49,0,49,0,7,-1,Correct Rejection,0.501869400032,False,-1,stimulus_RAMA04_Yes-No Task_2019_Jun_12_1212_500,-1,True,2019_Jun_12_1212,Yes-No Task,3,RAMA04,
Yes-No Task,50,0,50,0,2.5,-1,Miss,0.567431899952,True,-1,stimulus_RAMA04_Yes-No Task_2019_Jun_12_1212_501,-1,True,2019_Jun_12_1212,Yes-No Task,3,RAMA04,
Yes-No Task,51,0,51,0,9.7,-1,Correct Rejection,0.500471699983,False,-1,stimulus_RAMA04_Yes-No Task_2019_Jun_12_1212_502,-1,True,2019_Jun_12_1212,Yes-No Task,3,RAMA04,
Yes-No Task,52,0,52,0,8.2,-1,Hit,0.534092700109,True,-1,stimulus_RAMA04_Yes-No Task_2019_Jun_12_1212_503,-1,True,2019_Jun_12_1212,Yes-No Task,3,RAMA04,
Yes-No Task,53,0,53,0,7,-1,Correct Rejection,0.534207999939,False,-1,stimulus_RAMA04_Yes-No Task_2019_Jun_12_1212_504,-1,True,2019_Jun_12_1212,Yes-No Task,3,RAMA04,
Yes-No Task,54,0,54,0,9.7,-1,Hit,0.533390300116,True,-1,stimulus_RAMA04_Yes-No Task_2019_Jun_12_1212_505,-1,True,2019_Jun_12_1212,Yes-No Task,3,RAMA04,
Yes-No Task,55,0,55,0,2.5,-1,Correct Rejection,0.70097590005,False,-1,stimulus_RAMA04_Yes-No Task_2019_Jun_12_1212_506,-1,True,2019_Jun_12_1212,Yes-No Task,3,RAMA04,
Yes-No Task,56,0,56,0,3.8,-1,Miss,0.500273799989,True,-1,stimulus_RAMA04_Yes-No Task_2019_Jun_12_1212_507,-1,True,2019_Jun_12_1212,Yes-No Task,3,RAMA04,
Yes-No Task,57,0,57,0,2.5,-1,Correct Rejection,0.466748999897,False,-1,stimulus_RAMA04_Yes-No Task_2019_Jun_12_1212_508,-1,True,2019_Jun_12_1212,Yes-No Task,3,RAMA04,
Yes-No Task,58,0,58,0,8.2,-1,Hit,0.532935799798,True,-1,stimulus_RAMA04_Yes-No Task_2019_Jun_12_1212_509,-1,True,2019_Jun_12_1212,Yes-No Task,3,RAMA04,
Yes-No Task,59,0,59,0,3.8,-1,Correct Rejection,0.500304599991,False,-1,stimulus_RAMA04_Yes-No Task_2019_Jun_12_1212_510,-1,True,2019_Jun_12_1212,Yes-No Task,3,RAMA04,
Yes-No Task,60,0,60,0,2.5,-1,Miss,0.467330399901,True,-1,stimulus_RAMA04_Yes-No Task_2019_Jun_12_1212_511,-1,True,2019_Jun_12_1212,Yes-No Task,3,RAMA04,
Yes-No Task,61,0,61,0,9.7,-1,Correct Rejection,0.533701000037,False,-1,stimulus_RAMA04_Yes-No Task_2019_Jun_12_1212_512,-1,True,2019_Jun_12_1212,Yes-No Task,3,RAMA04,
Yes-No Task,62,0,62,0,6,-1,Hit,0.568471499952,True,-1,stimulus_RAMA04_Yes-No Task_2019_Jun_12_1212_513,-1,True,2019_Jun_12_1212,Yes-No Task,3,RAMA04,
Yes-No Task,63,0,63,0,6,-1,Correct Rejection,0.567441500025,False,-1,stimulus_RAMA04_Yes-No Task_2019_Jun_12_1212_514,-1,True,2019_Jun_12_1212,Yes-No Task,3,RAMA04,
Yes-No Task,64,0,64,0,5,-1,Correct Rejection,0.534589600051,False,-1,stimulus_RAMA04_Yes-No Task_2019_Jun_12_1212_515,-1,True,2019_Jun_12_1212,Yes-No Task,3,RAMA04,
Yes-No Task,65,0,65,0,2.6,-1,Correct Rejection,0.500729200197,False,-1,stimulus_RAMA04_Yes-No Task_2019_Jun_12_1212_516,-1,True,2019_Jun_12_1212,Yes-No Task,3,RAMA04,
Yes-No Task,66,0,66,0,7,-1,Correct Rejection,0.500933800125,False,-1,stimulus_RAMA04_Yes-No Task_2019_Jun_12_1212_517,-1,True,2019_Jun_12_1212,Yes-No Task,3,RAMA04,
Yes-No Task,67,0,67,0,2.5,-1,Correct Rejection,0.467392500024,False,-1,stimulus_RAMA04_Yes-No Task_2019_Jun_12_1212_518,-1,True,2019_Jun_12_1212,Yes-No Task,3,RAMA04,
Yes-No Task,68,0,68,0,2.5,-1,Miss,0.434050499927,True,-1,stimulus_RAMA04_Yes-No Task_2019_Jun_12_1212_519,-1,True,2019_Jun_12_1212,Yes-No Task,3,RAMA04,
Yes-No Task,69,0,69,0,2.6,-1,Correct Rejection,0.433440099936,False,-1,stimulus_RAMA04_Yes-No Task_2019_Jun_12_1212_520,-1,True,2019_Jun_12_1212,Yes-No Task,3,RAMA04,
Yes-No Task,70,0,70,0,7,-1,Hit,0.634042799938,True,-1,stimulus_RAMA04_Yes-No Task_2019_Jun_12_1212_521,-1,True,2019_Jun_12_1212,Yes-No Task,3,RAMA04,
Yes-No Task,71,0,71,0,3.8,-1,Correct Rejection,0.534424100071,False,-1,stimulus_RAMA04_Yes-No Task_2019_Jun_12_1212_522,-1,True,2019_Jun_12_1212,Yes-No Task,3,RAMA04,
Yes-No Task,72,0,72,0,6,-1,Correct Rejection,0.633599599823,False,-1,stimulus_RAMA04_Yes-No Task_2019_Jun_12_1212_523,-1,True,2019_Jun_12_1212,Yes-No Task,3,RAMA04,
Yes-No Task,73,0,73,0,6,-1,Hit,0.600889699999,True,-1,stimulus_RAMA04_Yes-No Task_2019_Jun_12_1212_524,-1,True,2019_Jun_12_1212,Yes-No Task,3,RAMA04,
Yes-No Task,74,0,74,0,6,-1,Hit,0.434717299882,True,-1,stimulus_RAMA04_Yes-No Task_2019_Jun_12_1212_525,-1,True,2019_Jun_12_1212,Yes-No Task,3,RAMA04,
Yes-No Task,0,0,0,0,6,-1,Hit,0.33396660001,True,-1,stimulus_RAMA04_Yes-No Task_2019_Jun_12_1212_526,-1,True,2019_Jun_12_1212,Yes-No Task,3,RAMA04,
Yes-No Task,1,0,1,0,7,-1,False Alarm,0.268316600006,False,-1,stimulus_RAMA04_Yes-No Task_2019_Jun_12_1212_527,-1,True,2019_Jun_12_1212,Yes-No Task,3,RAMA04,
Yes-No Task,2,0,2,0,9.7,-1,False Alarm,0.433823900064,False,-1,stimulus_RAMA04_Yes-No Task_2019_Jun_12_1212_528,-1,True,2019_Jun_12_1212,Yes-No Task,3,RAMA04,
Yes-No Task,3,0,3,0,2.6,-1,Miss,0.30184770003,True,-1,stimulus_RAMA04_Yes-No Task_2019_Jun_12_1212_529,-1,True,2019_Jun_12_1212,Yes-No Task,3,RAMA04,
Yes-No Task,4,0,4,0,2.5,-1,Hit,0.467695700005,True,-1,stimulus_RAMA04_Yes-No Task_2019_Jun_12_1212_530,-1,True,2019_Jun_12_1212,Yes-No Task,3,RAMA04,
Yes-No Task,5,0,5,0,2.5,-1,Miss,0.466705800034,True,-1,stimulus_RAMA04_Yes-No Task_2019_Jun_12_1212_531,-1,True,2019_Jun_12_1212,Yes-No Task,3,RAMA04,
Yes-No Task,6,0,6,0,9.7,-1,False Alarm,0.600795800099,False,-1,stimulus_RAMA04_Yes-No Task_2019_Jun_12_1212_532,-1,True,2019_Jun_12_1212,Yes-No Task,3,RAMA04,
Yes-No Task,7,0,7,0,9.7,-1,Hit,0.267161600059,True,-1,stimulus_RAMA04_Yes-No Task_2019_Jun_12_1212_533,-1,True,2019_Jun_12_1212,Yes-No Task,3,RAMA04,
Yes-No Task,8,0,8,0,3.8,-1,False Alarm,0.433163899928,False,-1,stimulus_RAMA04_Yes-No Task_2019_Jun_12_1212_534,-1,True,2019_Jun_12_1212,Yes-No Task,3,RAMA04,
Yes-No Task,9,0,9,0,9.7,-1,False Alarm,0.333436300047,False,-1,stimulus_RAMA04_Yes-No Task_2019_Jun_12_1212_535,-1,True,2019_Jun_12_1212,Yes-No Task,3,RAMA04,
Yes-No Task,10,0,10,0,7,-1,Correct Rejection,0.331644499907,False,-1,stimulus_RAMA04_Yes-No Task_2019_Jun_12_1212_536,-1,True,2019_Jun_12_1212,Yes-No Task,3,RAMA04,
Yes-No Task,11,0,11,0,5,-1,Correct Rejection,0.532708500046,False,-1,stimulus_RAMA04_Yes-No Task_2019_Jun_12_1212_537,-1,True,2019_Jun_12_1212,Yes-No Task,3,RAMA04,
Yes-No Task,12,0,12,0,2.5,-1,Miss,0.367761800066,True,-1,stimulus_RAMA04_Yes-No Task_2019_Jun_12_1212_538,-1,True,2019_Jun_12_1212,Yes-No Task,3,RAMA04,
Yes-No Task,13,0,13,0,5,-1,False Alarm,0.433599600103,False,-1,stimulus_RAMA04_Yes-No Task_2019_Jun_12_1212_539,-1,True,2019_Jun_12_1212,Yes-No Task,3,RAMA04,
Yes-No Task,14,0,14,0,2.6,-1,Miss,0.301958099939,True,-1,stimulus_RAMA04_Yes-No Task_2019_Jun_12_1212_540,-1,True,2019_Jun_12_1212,Yes-No Task,3,RAMA04,
Yes-No Task,15,0,15,0,9.7,-1,Correct Rejection,0.301303700078,False,-1,stimulus_RAMA04_Yes-No Task_2019_Jun_12_1212_541,-1,True,2019_Jun_12_1212,Yes-No Task,3,RAMA04,
Yes-No Task,16,0,16,0,5,-1,Miss,0.433605799917,True,-1,stimulus_RAMA04_Yes-No Task_2019_Jun_12_1212_542,-1,True,2019_Jun_12_1212,Yes-No Task,3,RAMA04,
Yes-No Task,17,0,17,0,2.6,-1,Hit,0.432838799898,True,-1,stimulus_RAMA04_Yes-No Task_2019_Jun_12_1212_543,-1,True,2019_Jun_12_1212,Yes-No Task,3,RAMA04,
Yes-No Task,18,0,18,0,2.5,-1,Correct Rejection,0.567637099884,False,-1,stimulus_RAMA04_Yes-No Task_2019_Jun_12_1212_544,-1,True,2019_Jun_12_1212,Yes-No Task,3,RAMA04,
Yes-No Task,19,0,19,0,7,-1,Hit,0.56736440002,True,-1,stimulus_RAMA04_Yes-No Task_2019_Jun_12_1212_545,-1,True,2019_Jun_12_1212,Yes-No Task,3,RAMA04,
Yes-No Task,20,0,20,0,2.5,-1,Hit,0.500682599843,True,-1,stimulus_RAMA04_Yes-No Task_2019_Jun_12_1212_546,-1,True,2019_Jun_12_1212,Yes-No Task,3,RAMA04,
Yes-No Task,21,0,21,0,9.7,-1,Correct Rejection,0.567242400022,False,-1,stimulus_RAMA04_Yes-No Task_2019_Jun_12_1212_547,-1,True,2019_Jun_12_1212,Yes-No Task,3,RAMA04,
Yes-No Task,22,0,22,0,3.8,-1,No Answer,-1,True,-1,stimulus_RAMA04_Yes-No Task_2019_Jun_12_1212_548,-1,True,2019_Jun_12_1212,Yes-No Task,3,RAMA04,
Yes-No Task,23,0,23,0,2.5,-1,Correct Rejection,0.500568199903,False,-1,stimulus_RAMA04_Yes-No Task_2019_Jun_12_1212_549,-1,True,2019_Jun_12_1212,Yes-No Task,3,RAMA04,
Yes-No Task,24,0,24,0,9.7,-1,False Alarm,0.466942499857,False,-1,stimulus_RAMA04_Yes-No Task_2019_Jun_12_1212_550,-1,True,2019_Jun_12_1212,Yes-No Task,3,RAMA04,
Yes-No Task,25,0,25,0,6,-1,Correct Rejection,0.500901600113,False,-1,stimulus_RAMA04_Yes-No Task_2019_Jun_12_1212_551,-1,True,2019_Jun_12_1212,Yes-No Task,3,RAMA04,
Yes-No Task,26,0,26,0,9.7,-1,Correct Rejection,0.434062399901,False,-1,stimulus_RAMA04_Yes-No Task_2019_Jun_12_1212_552,-1,True,2019_Jun_12_1212,Yes-No Task,3,RAMA04,
Yes-No Task,27,0,27,0,6,-1,Hit,0.50169259985,True,-1,stimulus_RAMA04_Yes-No Task_2019_Jun_12_1212_553,-1,True,2019_Jun_12_1212,Yes-No Task,3,RAMA04,
Yes-No Task,28,0,28,0,9.7,-1,Hit,0.466467499966,True,-1,stimulus_RAMA04_Yes-No Task_2019_Jun_12_1212_554,-1,True,2019_Jun_12_1212,Yes-No Task,3,RAMA04,
Yes-No Task,29,0,29,0,2.6,-1,Miss,0.500790899852,True,-1,stimulus_RAMA04_Yes-No Task_2019_Jun_12_1212_555,-1,True,2019_Jun_12_1212,Yes-No Task,3,RAMA04,
Yes-No Task,30,0,30,0,7,-1,Hit,0.632562400075,True,-1,stimulus_RAMA04_Yes-No Task_2019_Jun_12_1212_556,-1,True,2019_Jun_12_1212,Yes-No Task,3,RAMA04,
Yes-No Task,31,0,31,0,6,-1,Hit,0.5689365,True,-1,stimulus_RAMA04_Yes-No Task_2019_Jun_12_1212_557,-1,True,2019_Jun_12_1212,Yes-No Task,3,RAMA04,
Yes-No Task,32,0,32,0,2.5,-1,Miss,0.6677929,True,-1,stimulus_RAMA04_Yes-No Task_2019_Jun_12_1212_558,-1,True,2019_Jun_12_1212,Yes-No Task,3,RAMA04,
Yes-No Task,33,0,33,0,3.8,-1,Correct Rejection,0.533872200176,False,-1,stimulus_RAMA04_Yes-No Task_2019_Jun_12_1212_559,-1,True,2019_Jun_12_1212,Yes-No Task,3,RAMA04,
Yes-No Task,34,0,34,0,3.8,-1,Correct Rejection,0.566951100016,False,-1,stimulus_RAMA04_Yes-No Task_2019_Jun_12_1212_560,-1,True,2019_Jun_12_1212,Yes-No Task,3,RAMA04,
Yes-No Task,35,0,35,0,5,-1,Correct Rejection,0.500566900009,False,-1,stimulus_RAMA04_Yes-No Task_2019_Jun_12_1212_561,-1,True,2019_Jun_12_1212,Yes-No Task,3,RAMA04,
Yes-No Task,36,0,36,0,3.8,-1,Miss,0.568621299928,True,-1,stimulus_RAMA04_Yes-No Task_2019_Jun_12_1212_562,-1,True,2019_Jun_12_1212,Yes-No Task,3,RAMA04,
Yes-No Task,37,0,37,0,8.2,-1,Hit,0.533647499979,True,-1,stimulus_RAMA04_Yes-No Task_2019_Jun_12_1212_563,-1,True,2019_Jun_12_1212,Yes-No Task,3,RAMA04,
Yes-No Task,38,0,38,0,3.8,-1,False Alarm,0.567377999891,False,-1,stimulus_RAMA04_Yes-No Task_2019_Jun_12_1212_564,-1,True,2019_Jun_12_1212,Yes-No Task,3,RAMA04,
Yes-No Task,39,0,39,0,3.8,-1,Hit,0.500681400066,True,-1,stimulus_RAMA04_Yes-No Task_2019_Jun_12_1212_565,-1,True,2019_Jun_12_1212,Yes-No Task,3,RAMA04,
Yes-No Task,40,0,40,0,3.8,-1,Correct Rejection,0.503702699905,False,-1,stimulus_RAMA04_Yes-No Task_2019_Jun_12_1212_566,-1,True,2019_Jun_12_1212,Yes-No Task,3,RAMA04,
Yes-No Task,41,0,41,0,2.6,-1,Correct Rejection,0.500914599979,False,-1,stimulus_RAMA04_Yes-No Task_2019_Jun_12_1212_567,-1,True,2019_Jun_12_1212,Yes-No Task,3,RAMA04,
Yes-No Task,42,0,42,0,5,-1,Hit,0.533682000125,True,-1,stimulus_RAMA04_Yes-No Task_2019_Jun_12_1212_568,-1,True,2019_Jun_12_1212,Yes-No Task,3,RAMA04,
Yes-No Task,43,0,43,0,8.2,-1,False Alarm,0.535586500075,False,-1,stimulus_RAMA04_Yes-No Task_2019_Jun_12_1212_569,-1,True,2019_Jun_12_1212,Yes-No Task,3,RAMA04,
Yes-No Task,44,0,44,0,7,-1,Hit,0.400641100015,True,-1,stimulus_RAMA04_Yes-No Task_2019_Jun_12_1212_570,-1,True,2019_Jun_12_1212,Yes-No Task,3,RAMA04,
Yes-No Task,45,0,45,0,6,-1,Hit,0.467777600046,True,-1,stimulus_RAMA04_Yes-No Task_2019_Jun_12_1212_571,-1,True,2019_Jun_12_1212,Yes-No Task,3,RAMA04,
Yes-No Task,46,0,46,0,9.7,-1,Hit,0.534499600064,True,-1,stimulus_RAMA04_Yes-No Task_2019_Jun_12_1212_572,-1,True,2019_Jun_12_1212,Yes-No Task,3,RAMA04,
Yes-No Task,47,0,47,0,9.7,-1,False Alarm,0.601294600172,False,-1,stimulus_RAMA04_Yes-No Task_2019_Jun_12_1212_573,-1,True,2019_Jun_12_1212,Yes-No Task,3,RAMA04,
Yes-No Task,48,0,48,0,2.6,-1,Correct Rejection,0.334053299855,False,-1,stimulus_RAMA04_Yes-No Task_2019_Jun_12_1212_574,-1,True,2019_Jun_12_1212,Yes-No Task,3,RAMA04,
Yes-No Task,49,0,49,0,9.7,-1,Correct Rejection,0.40045480011,False,-1,stimulus_RAMA04_Yes-No Task_2019_Jun_12_1212_575,-1,True,2019_Jun_12_1212,Yes-No Task,3,RAMA04,
Yes-No Task,50,0,50,0,2.6,-1,Miss,0.467320999829,True,-1,stimulus_RAMA04_Yes-No Task_2019_Jun_12_1212_576,-1,True,2019_Jun_12_1212,Yes-No Task,3,RAMA04,
Yes-No Task,51,0,51,0,9.7,-1,Hit,0.567125200061,True,-1,stimulus_RAMA04_Yes-No Task_2019_Jun_12_1212_577,-1,True,2019_Jun_12_1212,Yes-No Task,3,RAMA04,
Yes-No Task,52,0,52,0,9.7,-1,Correct Rejection,0.534483399941,False,-1,stimulus_RAMA04_Yes-No Task_2019_Jun_12_1212_578,-1,True,2019_Jun_12_1212,Yes-No Task,3,RAMA04,
Yes-No Task,53,0,53,0,6,-1,Miss,0.500224899966,True,-1,stimulus_RAMA04_Yes-No Task_2019_Jun_12_1212_579,-1,True,2019_Jun_12_1212,Yes-No Task,3,RAMA04,
Yes-No Task,54,0,54,0,5,-1,False Alarm,0.634218899999,False,-1,stimulus_RAMA04_Yes-No Task_2019_Jun_12_1212_580,-1,True,2019_Jun_12_1212,Yes-No Task,3,RAMA04,
Yes-No Task,55,0,55,0,5,-1,False Alarm,0.333042900078,False,-1,stimulus_RAMA04_Yes-No Task_2019_Jun_12_1212_581,-1,True,2019_Jun_12_1212,Yes-No Task,3,RAMA04,
Yes-No Task,56,0,56,0,5,-1,Miss,0.300396400038,True,-1,stimulus_RAMA04_Yes-No Task_2019_Jun_12_1212_582,-1,True,2019_Jun_12_1212,Yes-No Task,3,RAMA04,
Yes-No Task,57,0,57,0,6,-1,Correct Rejection,0.333347799955,False,-1,stimulus_RAMA04_Yes-No Task_2019_Jun_12_1212_583,-1,True,2019_Jun_12_1212,Yes-No Task,3,RAMA04,
Yes-No Task,58,0,58,0,7,-1,Miss,0.466277400032,True,-1,stimulus_RAMA04_Yes-No Task_2019_Jun_12_1212_584,-1,True,2019_Jun_12_1212,Yes-No Task,3,RAMA04,
Yes-No Task,59,0,59,0,5,-1,Correct Rejection,0.567443799926,False,-1,stimulus_RAMA04_Yes-No Task_2019_Jun_12_1212_585,-1,True,2019_Jun_12_1212,Yes-No Task,3,RAMA04,
Yes-No Task,60,0,60,0,7,-1,Hit,0.600964700105,True,-1,stimulus_RAMA04_Yes-No Task_2019_Jun_12_1212_586,-1,True,2019_Jun_12_1212,Yes-No Task,3,RAMA04,
Yes-No Task,61,0,61,0,6,-1,Miss,0.534853399964,True,-1,stimulus_RAMA04_Yes-No Task_2019_Jun_12_1212_587,-1,True,2019_Jun_12_1212,Yes-No Task,3,RAMA04,
Yes-No Task,62,0,62,0,8.2,-1,Correct Rejection,0.499779999955,False,-1,stimulus_RAMA04_Yes-No Task_2019_Jun_12_1212_588,-1,True,2019_Jun_12_1212,Yes-No Task,3,RAMA04,
Yes-No Task,63,0,63,0,7,-1,Miss,0.500404600054,True,-1,stimulus_RAMA04_Yes-No Task_2019_Jun_12_1212_589,-1,True,2019_Jun_12_1212,Yes-No Task,3,RAMA04,
Yes-No Task,64,0,64,0,3.8,-1,Miss,0.467764300061,True,-1,stimulus_RAMA04_Yes-No Task_2019_Jun_12_1212_590,-1,True,2019_Jun_12_1212,Yes-No Task,3,RAMA04,
Yes-No Task,65,0,65,0,3.8,-1,False Alarm,0.4354950001,False,-1,stimulus_RAMA04_Yes-No Task_2019_Jun_12_1212_591,-1,True,2019_Jun_12_1212,Yes-No Task,3,RAMA04,
Yes-No Task,66,0,66,0,9.7,-1,Hit,0.433311600005,True,-1,stimulus_RAMA04_Yes-No Task_2019_Jun_12_1212_592,-1,True,2019_Jun_12_1212,Yes-No Task,3,RAMA04,
Yes-No Task,67,0,67,0,3.8,-1,Correct Rejection,0.500014999881,False,-1,stimulus_RAMA04_Yes-No Task_2019_Jun_12_1212_593,-1,True,2019_Jun_12_1212,Yes-No Task,3,RAMA04,
Yes-No Task,68,0,68,0,9.7,-1,Correct Rejection,0.500326900044,False,-1,stimulus_RAMA04_Yes-No Task_2019_Jun_12_1212_594,-1,True,2019_Jun_12_1212,Yes-No Task,3,RAMA04,
Yes-No Task,69,0,69,0,2.6,-1,Correct Rejection,0.468240799848,False,-1,stimulus_RAMA04_Yes-No Task_2019_Jun_12_1212_595,-1,True,2019_Jun_12_1212,Yes-No Task,3,RAMA04,
Yes-No Task,70,0,70,0,6,-1,Miss,0.433878900018,True,-1,stimulus_RAMA04_Yes-No Task_2019_Jun_12_1212_596,-1,True,2019_Jun_12_1212,Yes-No Task,3,RAMA04,
Yes-No Task,71,0,71,0,5,-1,Miss,0.601530499989,True,-1,stimulus_RAMA04_Yes-No Task_2019_Jun_12_1212_597,-1,True,2019_Jun_12_1212,Yes-No Task,3,RAMA04,
Yes-No Task,72,0,72,0,7,-1,Correct Rejection,0.56733679981,False,-1,stimulus_RAMA04_Yes-No Task_2019_Jun_12_1212_598,-1,True,2019_Jun_12_1212,Yes-No Task,3,RAMA04,
Yes-No Task,73,0,73,0,5,-1,Correct Rejection,0.534846000141,False,-1,stimulus_RAMA04_Yes-No Task_2019_Jun_12_1212_599,-1,True,2019_Jun_12_1212,Yes-No Task,3,RAMA04,
Yes-No Task,74,0,74,0,8.2,-1,Miss,0.466819899855,True,-1,stimulus_RAMA04_Yes-No Task_2019_Jun_12_1212_600,-1,True,2019_Jun_12_1212,Yes-No Task,3,RAMA04,
