Task,trials.thisRepN,trials.thisTrialN,trials.thisN,trials.thisIndex,signal_intensity,constant Value,response,time_response,signal_on_stimuluspos1,signal_on_stimuluspos2,stimulus_name_pos1,stimulus_name_pos2,random_intensity,date,expName,session,participant,
2IFC,0,0,0,0,2.2,-1,wrong answer,0.635053199949,True,False,stimulusRORE28_2IFC_2019_Jun_12_1805_1,stimulusRORE28_2IFC_2019_Jun_12_1805_2,True,2019_Jun_12_1805,2IFC,3,RORE28,
2IFC,1,0,1,0,4.4,-1,correct answer,0.634296899894,True,False,stimulusRORE28_2IFC_2019_Jun_12_1805_3,stimulusRORE28_2IFC_2019_Jun_12_1805_4,True,2019_Jun_12_1805,2IFC,3,RORE28,
2IFC,2,0,2,0,1.4,-1,correct answer,0.667462400161,False,True,stimulusRORE28_2IFC_2019_Jun_12_1805_5,stimulusRORE28_2IFC_2019_Jun_12_1805_6,True,2019_Jun_12_1805,2IFC,3,RORE28,
2IFC,3,0,3,0,3,-1,wrong answer,0.634436500026,True,False,stimulusRORE28_2IFC_2019_Jun_12_1805_7,stimulusRORE28_2IFC_2019_Jun_12_1805_8,True,2019_Jun_12_1805,2IFC,3,RORE28,
2IFC,4,0,4,0,3.7,-1,wrong answer,0.667150599882,True,False,stimulusRORE28_2IFC_2019_Jun_12_1805_9,stimulusRORE28_2IFC_2019_Jun_12_1805_10,True,2019_Jun_12_1805,2IFC,3,RORE28,
2IFC,5,0,5,0,2.2,-1,wrong answer,0.733495800057,False,True,stimulusRORE28_2IFC_2019_Jun_12_1805_11,stimulusRORE28_2IFC_2019_Jun_12_1805_12,True,2019_Jun_12_1805,2IFC,3,RORE28,
2IFC,6,0,6,0,4.4,-1,correct answer,0.601492699934,False,True,stimulusRORE28_2IFC_2019_Jun_12_1805_13,stimulusRORE28_2IFC_2019_Jun_12_1805_14,True,2019_Jun_12_1805,2IFC,3,RORE28,
2IFC,7,0,7,0,5,-1,correct answer,0.7007859,False,True,stimulusRORE28_2IFC_2019_Jun_12_1805_15,stimulusRORE28_2IFC_2019_Jun_12_1805_16,True,2019_Jun_12_1805,2IFC,3,RORE28,
2IFC,8,0,8,0,4.4,-1,correct answer,0.501512099989,True,False,stimulusRORE28_2IFC_2019_Jun_12_1805_17,stimulusRORE28_2IFC_2019_Jun_12_1805_18,True,2019_Jun_12_1805,2IFC,3,RORE28,
2IFC,9,0,9,0,5,-1,correct answer,0.700542700011,False,True,stimulusRORE28_2IFC_2019_Jun_12_1805_19,stimulusRORE28_2IFC_2019_Jun_12_1805_20,True,2019_Jun_12_1805,2IFC,3,RORE28,
2IFC,10,0,10,0,2.2,-1,correct answer,0.499865700025,True,False,stimulusRORE28_2IFC_2019_Jun_12_1805_21,stimulusRORE28_2IFC_2019_Jun_12_1805_22,True,2019_Jun_12_1805,2IFC,3,RORE28,
2IFC,11,0,11,0,4.4,-1,correct answer,0.633514899993,False,True,stimulusRORE28_2IFC_2019_Jun_12_1805_23,stimulusRORE28_2IFC_2019_Jun_12_1805_24,True,2019_Jun_12_1805,2IFC,3,RORE28,
2IFC,12,0,12,0,4.4,-1,wrong answer,0.367296200013,False,True,stimulusRORE28_2IFC_2019_Jun_12_1805_25,stimulusRORE28_2IFC_2019_Jun_12_1805_26,True,2019_Jun_12_1805,2IFC,3,RORE28,
2IFC,13,0,13,0,1.4,-1,correct answer,0.666319299955,False,True,stimulusRORE28_2IFC_2019_Jun_12_1805_27,stimulusRORE28_2IFC_2019_Jun_12_1805_28,True,2019_Jun_12_1805,2IFC,3,RORE28,
2IFC,14,0,14,0,5,-1,correct answer,0.534693200141,True,False,stimulusRORE28_2IFC_2019_Jun_12_1805_29,stimulusRORE28_2IFC_2019_Jun_12_1805_30,True,2019_Jun_12_1805,2IFC,3,RORE28,
2IFC,15,0,15,0,1.4,-1,correct answer,0.634114299901,True,False,stimulusRORE28_2IFC_2019_Jun_12_1805_31,stimulusRORE28_2IFC_2019_Jun_12_1805_32,True,2019_Jun_12_1805,2IFC,3,RORE28,
2IFC,16,0,16,0,1.4,-1,correct answer,0.600715300068,True,False,stimulusRORE28_2IFC_2019_Jun_12_1805_33,stimulusRORE28_2IFC_2019_Jun_12_1805_34,True,2019_Jun_12_1805,2IFC,3,RORE28,
2IFC,17,0,17,0,3,-1,wrong answer,0.601068800082,False,True,stimulusRORE28_2IFC_2019_Jun_12_1805_35,stimulusRORE28_2IFC_2019_Jun_12_1805_36,True,2019_Jun_12_1805,2IFC,3,RORE28,
2IFC,18,0,18,0,3,-1,wrong answer,0.667973600095,True,False,stimulusRORE28_2IFC_2019_Jun_12_1805_37,stimulusRORE28_2IFC_2019_Jun_12_1805_38,True,2019_Jun_12_1805,2IFC,3,RORE28,
2IFC,19,0,19,0,6.6,-1,correct answer,0.46759549994,True,False,stimulusRORE28_2IFC_2019_Jun_12_1805_39,stimulusRORE28_2IFC_2019_Jun_12_1805_40,True,2019_Jun_12_1805,2IFC,3,RORE28,
2IFC,20,0,20,0,6.6,-1,correct answer,0.800728899892,False,True,stimulusRORE28_2IFC_2019_Jun_12_1805_41,stimulusRORE28_2IFC_2019_Jun_12_1805_42,True,2019_Jun_12_1805,2IFC,3,RORE28,
2IFC,21,0,21,0,2.2,-1,correct answer,0.500393400202,True,False,stimulusRORE28_2IFC_2019_Jun_12_1805_43,stimulusRORE28_2IFC_2019_Jun_12_1805_44,True,2019_Jun_12_1805,2IFC,3,RORE28,
2IFC,22,0,22,0,3.7,-1,wrong answer,0.735651999945,False,True,stimulusRORE28_2IFC_2019_Jun_12_1805_45,stimulusRORE28_2IFC_2019_Jun_12_1805_46,True,2019_Jun_12_1805,2IFC,3,RORE28,
2IFC,23,0,23,0,4.4,-1,correct answer,0.567003400065,False,True,stimulusRORE28_2IFC_2019_Jun_12_1805_47,stimulusRORE28_2IFC_2019_Jun_12_1805_48,True,2019_Jun_12_1805,2IFC,3,RORE28,
2IFC,24,0,24,0,3.7,-1,no answer,-1,False,True,stimulusRORE28_2IFC_2019_Jun_12_1805_49,stimulusRORE28_2IFC_2019_Jun_12_1805_50,True,2019_Jun_12_1805,2IFC,3,RORE28,
2IFC,25,0,25,0,3,-1,no answer,-1,False,True,stimulusRORE28_2IFC_2019_Jun_12_1805_51,stimulusRORE28_2IFC_2019_Jun_12_1805_52,True,2019_Jun_12_1805,2IFC,3,RORE28,
2IFC,26,0,26,0,5,-1,correct answer,0.267230399884,False,True,stimulusRORE28_2IFC_2019_Jun_12_1805_53,stimulusRORE28_2IFC_2019_Jun_12_1805_54,True,2019_Jun_12_1805,2IFC,3,RORE28,
2IFC,27,0,27,0,1.4,-1,wrong answer,0.534531800076,True,False,stimulusRORE28_2IFC_2019_Jun_12_1805_55,stimulusRORE28_2IFC_2019_Jun_12_1805_56,True,2019_Jun_12_1805,2IFC,3,RORE28,
2IFC,28,0,28,0,6.6,-1,correct answer,0.366677799961,True,False,stimulusRORE28_2IFC_2019_Jun_12_1805_57,stimulusRORE28_2IFC_2019_Jun_12_1805_58,True,2019_Jun_12_1805,2IFC,3,RORE28,
2IFC,29,0,29,0,3.7,-1,correct answer,0.601179299876,False,True,stimulusRORE28_2IFC_2019_Jun_12_1805_59,stimulusRORE28_2IFC_2019_Jun_12_1805_60,True,2019_Jun_12_1805,2IFC,3,RORE28,
2IFC,30,0,30,0,1.4,-1,correct answer,0.534161099931,True,False,stimulusRORE28_2IFC_2019_Jun_12_1805_61,stimulusRORE28_2IFC_2019_Jun_12_1805_62,True,2019_Jun_12_1805,2IFC,3,RORE28,
2IFC,31,0,31,0,2.2,-1,wrong answer,0.500471400097,True,False,stimulusRORE28_2IFC_2019_Jun_12_1805_63,stimulusRORE28_2IFC_2019_Jun_12_1805_64,True,2019_Jun_12_1805,2IFC,3,RORE28,
2IFC,32,0,32,0,5,-1,correct answer,0.634021800011,False,True,stimulusRORE28_2IFC_2019_Jun_12_1805_65,stimulusRORE28_2IFC_2019_Jun_12_1805_66,True,2019_Jun_12_1805,2IFC,3,RORE28,
2IFC,33,0,33,0,1.4,-1,correct answer,0.500762799988,True,False,stimulusRORE28_2IFC_2019_Jun_12_1805_67,stimulusRORE28_2IFC_2019_Jun_12_1805_68,True,2019_Jun_12_1805,2IFC,3,RORE28,
2IFC,34,0,34,0,5.7,-1,correct answer,0.467445800081,True,False,stimulusRORE28_2IFC_2019_Jun_12_1805_69,stimulusRORE28_2IFC_2019_Jun_12_1805_70,True,2019_Jun_12_1805,2IFC,3,RORE28,
2IFC,35,0,35,0,1.4,-1,correct answer,0.633508200059,False,True,stimulusRORE28_2IFC_2019_Jun_12_1805_71,stimulusRORE28_2IFC_2019_Jun_12_1805_72,True,2019_Jun_12_1805,2IFC,3,RORE28,
2IFC,36,0,36,0,6.6,-1,correct answer,0.63358959998,False,True,stimulusRORE28_2IFC_2019_Jun_12_1805_73,stimulusRORE28_2IFC_2019_Jun_12_1805_74,True,2019_Jun_12_1805,2IFC,3,RORE28,
2IFC,37,0,37,0,4.4,-1,wrong answer,0.4672844999,False,True,stimulusRORE28_2IFC_2019_Jun_12_1805_75,stimulusRORE28_2IFC_2019_Jun_12_1805_76,True,2019_Jun_12_1805,2IFC,3,RORE28,
2IFC,38,0,38,0,4.4,-1,correct answer,0.532994100126,False,True,stimulusRORE28_2IFC_2019_Jun_12_1805_77,stimulusRORE28_2IFC_2019_Jun_12_1805_78,True,2019_Jun_12_1805,2IFC,3,RORE28,
2IFC,39,0,39,0,4.4,-1,correct answer,0.601390799973,True,False,stimulusRORE28_2IFC_2019_Jun_12_1805_79,stimulusRORE28_2IFC_2019_Jun_12_1805_80,True,2019_Jun_12_1805,2IFC,3,RORE28,
2IFC,40,0,40,0,5,-1,correct answer,0.4006544,True,False,stimulusRORE28_2IFC_2019_Jun_12_1805_81,stimulusRORE28_2IFC_2019_Jun_12_1805_82,True,2019_Jun_12_1805,2IFC,3,RORE28,
2IFC,41,0,41,0,6.6,-1,correct answer,0.400755200069,True,False,stimulusRORE28_2IFC_2019_Jun_12_1805_83,stimulusRORE28_2IFC_2019_Jun_12_1805_84,True,2019_Jun_12_1805,2IFC,3,RORE28,
2IFC,42,0,42,0,5,-1,correct answer,0.50173329981,True,False,stimulusRORE28_2IFC_2019_Jun_12_1805_85,stimulusRORE28_2IFC_2019_Jun_12_1805_86,True,2019_Jun_12_1805,2IFC,3,RORE28,
2IFC,43,0,43,0,4.4,-1,correct answer,0.40072340006,True,False,stimulusRORE28_2IFC_2019_Jun_12_1805_87,stimulusRORE28_2IFC_2019_Jun_12_1805_88,True,2019_Jun_12_1805,2IFC,3,RORE28,
2IFC,44,0,44,0,5,-1,correct answer,0.534085100051,True,False,stimulusRORE28_2IFC_2019_Jun_12_1805_89,stimulusRORE28_2IFC_2019_Jun_12_1805_90,True,2019_Jun_12_1805,2IFC,3,RORE28,
2IFC,45,0,45,0,4.4,-1,wrong answer,0.403215700062,False,True,stimulusRORE28_2IFC_2019_Jun_12_1805_91,stimulusRORE28_2IFC_2019_Jun_12_1805_92,True,2019_Jun_12_1805,2IFC,3,RORE28,
2IFC,46,0,46,0,3,-1,correct answer,0.501074100146,False,True,stimulusRORE28_2IFC_2019_Jun_12_1805_93,stimulusRORE28_2IFC_2019_Jun_12_1805_94,True,2019_Jun_12_1805,2IFC,3,RORE28,
2IFC,47,0,47,0,3,-1,correct answer,0.501470499905,True,False,stimulusRORE28_2IFC_2019_Jun_12_1805_95,stimulusRORE28_2IFC_2019_Jun_12_1805_96,True,2019_Jun_12_1805,2IFC,3,RORE28,
2IFC,48,0,48,0,5.7,-1,correct answer,0.333835799946,True,False,stimulusRORE28_2IFC_2019_Jun_12_1805_97,stimulusRORE28_2IFC_2019_Jun_12_1805_98,True,2019_Jun_12_1805,2IFC,3,RORE28,
2IFC,49,0,49,0,3.7,-1,wrong answer,0.600664200028,False,True,stimulusRORE28_2IFC_2019_Jun_12_1805_99,stimulusRORE28_2IFC_2019_Jun_12_1805_100,True,2019_Jun_12_1805,2IFC,3,RORE28,
2IFC,50,0,50,0,6.6,-1,correct answer,0.600832800148,False,True,stimulusRORE28_2IFC_2019_Jun_12_1805_101,stimulusRORE28_2IFC_2019_Jun_12_1805_102,True,2019_Jun_12_1805,2IFC,3,RORE28,
2IFC,51,0,51,0,1.4,-1,wrong answer,0.635288300226,False,True,stimulusRORE28_2IFC_2019_Jun_12_1805_103,stimulusRORE28_2IFC_2019_Jun_12_1805_104,True,2019_Jun_12_1805,2IFC,3,RORE28,
2IFC,52,0,52,0,5,-1,correct answer,0.367041500052,True,False,stimulusRORE28_2IFC_2019_Jun_12_1805_105,stimulusRORE28_2IFC_2019_Jun_12_1805_106,True,2019_Jun_12_1805,2IFC,3,RORE28,
2IFC,53,0,53,0,3.7,-1,correct answer,0.433660699986,True,False,stimulusRORE28_2IFC_2019_Jun_12_1805_107,stimulusRORE28_2IFC_2019_Jun_12_1805_108,True,2019_Jun_12_1805,2IFC,3,RORE28,
2IFC,54,0,54,0,3.7,-1,correct answer,0.334249299951,True,False,stimulusRORE28_2IFC_2019_Jun_12_1805_109,stimulusRORE28_2IFC_2019_Jun_12_1805_110,True,2019_Jun_12_1805,2IFC,3,RORE28,
2IFC,55,0,55,0,3,-1,correct answer,0.801170400111,False,True,stimulusRORE28_2IFC_2019_Jun_12_1805_111,stimulusRORE28_2IFC_2019_Jun_12_1805_112,True,2019_Jun_12_1805,2IFC,3,RORE28,
2IFC,56,0,56,0,5.7,-1,correct answer,0.468190599931,True,False,stimulusRORE28_2IFC_2019_Jun_12_1805_113,stimulusRORE28_2IFC_2019_Jun_12_1805_114,True,2019_Jun_12_1805,2IFC,3,RORE28,
2IFC,57,0,57,0,3,-1,correct answer,0.733967799926,True,False,stimulusRORE28_2IFC_2019_Jun_12_1805_115,stimulusRORE28_2IFC_2019_Jun_12_1805_116,True,2019_Jun_12_1805,2IFC,3,RORE28,
2IFC,58,0,58,0,3,-1,no answer,-1,False,True,stimulusRORE28_2IFC_2019_Jun_12_1805_117,stimulusRORE28_2IFC_2019_Jun_12_1805_118,True,2019_Jun_12_1805,2IFC,3,RORE28,
2IFC,59,0,59,0,5.7,-1,wrong answer,0.466310100164,True,False,stimulusRORE28_2IFC_2019_Jun_12_1805_119,stimulusRORE28_2IFC_2019_Jun_12_1805_120,True,2019_Jun_12_1805,2IFC,3,RORE28,
2IFC,60,0,60,0,5,-1,wrong answer,0.467313099885,False,True,stimulusRORE28_2IFC_2019_Jun_12_1805_121,stimulusRORE28_2IFC_2019_Jun_12_1805_122,True,2019_Jun_12_1805,2IFC,3,RORE28,
2IFC,61,0,61,0,1.4,-1,wrong answer,0.533735099947,False,True,stimulusRORE28_2IFC_2019_Jun_12_1805_123,stimulusRORE28_2IFC_2019_Jun_12_1805_124,True,2019_Jun_12_1805,2IFC,3,RORE28,
2IFC,62,0,62,0,6.6,-1,correct answer,0.566669400083,True,False,stimulusRORE28_2IFC_2019_Jun_12_1805_125,stimulusRORE28_2IFC_2019_Jun_12_1805_126,True,2019_Jun_12_1805,2IFC,3,RORE28,
2IFC,63,0,63,0,6.6,-1,correct answer,0.701645399909,False,True,stimulusRORE28_2IFC_2019_Jun_12_1805_127,stimulusRORE28_2IFC_2019_Jun_12_1805_128,True,2019_Jun_12_1805,2IFC,3,RORE28,
2IFC,64,0,64,0,2.2,-1,wrong answer,0.833351199981,False,True,stimulusRORE28_2IFC_2019_Jun_12_1805_129,stimulusRORE28_2IFC_2019_Jun_12_1805_130,True,2019_Jun_12_1805,2IFC,3,RORE28,
2IFC,65,0,65,0,1.4,-1,wrong answer,0.567496099975,True,False,stimulusRORE28_2IFC_2019_Jun_12_1805_131,stimulusRORE28_2IFC_2019_Jun_12_1805_132,True,2019_Jun_12_1805,2IFC,3,RORE28,
2IFC,66,0,66,0,4.4,-1,correct answer,0.434072599979,True,False,stimulusRORE28_2IFC_2019_Jun_12_1805_133,stimulusRORE28_2IFC_2019_Jun_12_1805_134,True,2019_Jun_12_1805,2IFC,3,RORE28,
2IFC,67,0,67,0,6.6,-1,correct answer,0.366879699985,True,False,stimulusRORE28_2IFC_2019_Jun_12_1805_135,stimulusRORE28_2IFC_2019_Jun_12_1805_136,True,2019_Jun_12_1805,2IFC,3,RORE28,
2IFC,68,0,68,0,2.2,-1,correct answer,0.666171199875,False,True,stimulusRORE28_2IFC_2019_Jun_12_1805_137,stimulusRORE28_2IFC_2019_Jun_12_1805_138,True,2019_Jun_12_1805,2IFC,3,RORE28,
2IFC,69,0,69,0,4.4,-1,correct answer,0.567783099832,False,True,stimulusRORE28_2IFC_2019_Jun_12_1805_139,stimulusRORE28_2IFC_2019_Jun_12_1805_140,True,2019_Jun_12_1805,2IFC,3,RORE28,
2IFC,70,0,70,0,4.4,-1,correct answer,0.667405100074,False,True,stimulusRORE28_2IFC_2019_Jun_12_1805_141,stimulusRORE28_2IFC_2019_Jun_12_1805_142,True,2019_Jun_12_1805,2IFC,3,RORE28,
2IFC,71,0,71,0,4.4,-1,wrong answer,0.534163600067,False,True,stimulusRORE28_2IFC_2019_Jun_12_1805_143,stimulusRORE28_2IFC_2019_Jun_12_1805_144,True,2019_Jun_12_1805,2IFC,3,RORE28,
2IFC,72,0,72,0,5.7,-1,correct answer,0.600668499945,False,True,stimulusRORE28_2IFC_2019_Jun_12_1805_145,stimulusRORE28_2IFC_2019_Jun_12_1805_146,True,2019_Jun_12_1805,2IFC,3,RORE28,
2IFC,73,0,73,0,3,-1,wrong answer,0.867754000006,False,True,stimulusRORE28_2IFC_2019_Jun_12_1805_147,stimulusRORE28_2IFC_2019_Jun_12_1805_148,True,2019_Jun_12_1805,2IFC,3,RORE28,
2IFC,74,0,74,0,4.4,-1,correct answer,0.500421500066,False,True,stimulusRORE28_2IFC_2019_Jun_12_1805_149,stimulusRORE28_2IFC_2019_Jun_12_1805_150,True,2019_Jun_12_1805,2IFC,3,RORE28,
2IFC,0,0,0,0,4.4,-1,no answer,-1,True,False,stimulusRORE28_2IFC_2019_Jun_12_1805_151,stimulusRORE28_2IFC_2019_Jun_12_1805_152,True,2019_Jun_12_1805,2IFC,3,RORE28,
2IFC,1,0,1,0,6.6,-1,wrong answer,0.467077699956,True,False,stimulusRORE28_2IFC_2019_Jun_12_1805_153,stimulusRORE28_2IFC_2019_Jun_12_1805_154,True,2019_Jun_12_1805,2IFC,3,RORE28,
2IFC,2,0,2,0,4.4,-1,correct answer,0.766411799937,True,False,stimulusRORE28_2IFC_2019_Jun_12_1805_155,stimulusRORE28_2IFC_2019_Jun_12_1805_156,True,2019_Jun_12_1805,2IFC,3,RORE28,
2IFC,3,0,3,0,6.6,-1,wrong answer,0.56661440013,False,True,stimulusRORE28_2IFC_2019_Jun_12_1805_157,stimulusRORE28_2IFC_2019_Jun_12_1805_158,True,2019_Jun_12_1805,2IFC,3,RORE28,
2IFC,4,0,4,0,6.6,-1,correct answer,0.633076999802,False,True,stimulusRORE28_2IFC_2019_Jun_12_1805_159,stimulusRORE28_2IFC_2019_Jun_12_1805_160,True,2019_Jun_12_1805,2IFC,3,RORE28,
2IFC,5,0,5,0,5,-1,correct answer,0.700976700056,False,True,stimulusRORE28_2IFC_2019_Jun_12_1805_161,stimulusRORE28_2IFC_2019_Jun_12_1805_162,True,2019_Jun_12_1805,2IFC,3,RORE28,
2IFC,6,0,6,0,5,-1,wrong answer,0.700790700037,True,False,stimulusRORE28_2IFC_2019_Jun_12_1805_163,stimulusRORE28_2IFC_2019_Jun_12_1805_164,True,2019_Jun_12_1805,2IFC,3,RORE28,
2IFC,7,0,7,0,1.4,-1,correct answer,0.367208200041,True,False,stimulusRORE28_2IFC_2019_Jun_12_1805_165,stimulusRORE28_2IFC_2019_Jun_12_1805_166,True,2019_Jun_12_1805,2IFC,3,RORE28,
2IFC,8,0,8,0,6.6,-1,correct answer,0.467307999963,True,False,stimulusRORE28_2IFC_2019_Jun_12_1805_167,stimulusRORE28_2IFC_2019_Jun_12_1805_168,True,2019_Jun_12_1805,2IFC,3,RORE28,
2IFC,9,0,9,0,2.2,-1,correct answer,0.433949099854,True,False,stimulusRORE28_2IFC_2019_Jun_12_1805_169,stimulusRORE28_2IFC_2019_Jun_12_1805_170,True,2019_Jun_12_1805,2IFC,3,RORE28,
2IFC,10,0,10,0,5,-1,correct answer,0.401019199984,True,False,stimulusRORE28_2IFC_2019_Jun_12_1805_171,stimulusRORE28_2IFC_2019_Jun_12_1805_172,True,2019_Jun_12_1805,2IFC,3,RORE28,
2IFC,11,0,11,0,4.4,-1,correct answer,0.601295599947,False,True,stimulusRORE28_2IFC_2019_Jun_12_1805_173,stimulusRORE28_2IFC_2019_Jun_12_1805_174,True,2019_Jun_12_1805,2IFC,3,RORE28,
2IFC,12,0,12,0,5,-1,correct answer,0.601196700009,False,True,stimulusRORE28_2IFC_2019_Jun_12_1805_175,stimulusRORE28_2IFC_2019_Jun_12_1805_176,True,2019_Jun_12_1805,2IFC,3,RORE28,
2IFC,13,0,13,0,4.4,-1,correct answer,0.499156999867,True,False,stimulusRORE28_2IFC_2019_Jun_12_1805_177,stimulusRORE28_2IFC_2019_Jun_12_1805_178,True,2019_Jun_12_1805,2IFC,3,RORE28,
2IFC,14,0,14,0,4.4,-1,wrong answer,0.500602099812,True,False,stimulusRORE28_2IFC_2019_Jun_12_1805_179,stimulusRORE28_2IFC_2019_Jun_12_1805_180,True,2019_Jun_12_1805,2IFC,3,RORE28,
2IFC,15,0,15,0,5.7,-1,correct answer,0.667371599935,False,True,stimulusRORE28_2IFC_2019_Jun_12_1805_181,stimulusRORE28_2IFC_2019_Jun_12_1805_182,True,2019_Jun_12_1805,2IFC,3,RORE28,
2IFC,16,0,16,0,5,-1,correct answer,0.732366799843,False,True,stimulusRORE28_2IFC_2019_Jun_12_1805_183,stimulusRORE28_2IFC_2019_Jun_12_1805_184,True,2019_Jun_12_1805,2IFC,3,RORE28,
2IFC,17,0,17,0,5.7,-1,correct answer,0.601047199918,False,True,stimulusRORE28_2IFC_2019_Jun_12_1805_185,stimulusRORE28_2IFC_2019_Jun_12_1805_186,True,2019_Jun_12_1805,2IFC,3,RORE28,
2IFC,18,0,18,0,4.4,-1,correct answer,0.700526299886,False,True,stimulusRORE28_2IFC_2019_Jun_12_1805_187,stimulusRORE28_2IFC_2019_Jun_12_1805_188,True,2019_Jun_12_1805,2IFC,3,RORE28,
2IFC,19,0,19,0,2.2,-1,wrong answer,0.634236000013,False,True,stimulusRORE28_2IFC_2019_Jun_12_1805_189,stimulusRORE28_2IFC_2019_Jun_12_1805_190,True,2019_Jun_12_1805,2IFC,3,RORE28,
2IFC,20,0,20,0,2.2,-1,correct answer,0.567671800032,False,True,stimulusRORE28_2IFC_2019_Jun_12_1805_191,stimulusRORE28_2IFC_2019_Jun_12_1805_192,True,2019_Jun_12_1805,2IFC,3,RORE28,
2IFC,21,0,21,0,3,-1,wrong answer,0.766868799925,True,False,stimulusRORE28_2IFC_2019_Jun_12_1805_193,stimulusRORE28_2IFC_2019_Jun_12_1805_194,True,2019_Jun_12_1805,2IFC,3,RORE28,
2IFC,22,0,22,0,5.7,-1,wrong answer,0.468518999871,False,True,stimulusRORE28_2IFC_2019_Jun_12_1805_195,stimulusRORE28_2IFC_2019_Jun_12_1805_196,True,2019_Jun_12_1805,2IFC,3,RORE28,
2IFC,23,0,23,0,3,-1,correct answer,0.56722499989,True,False,stimulusRORE28_2IFC_2019_Jun_12_1805_197,stimulusRORE28_2IFC_2019_Jun_12_1805_198,True,2019_Jun_12_1805,2IFC,3,RORE28,
2IFC,24,0,24,0,3.7,-1,wrong answer,0.833793899976,True,False,stimulusRORE28_2IFC_2019_Jun_12_1805_199,stimulusRORE28_2IFC_2019_Jun_12_1805_200,True,2019_Jun_12_1805,2IFC,3,RORE28,
2IFC,25,0,25,0,5.7,-1,correct answer,0.400889199926,True,False,stimulusRORE28_2IFC_2019_Jun_12_1805_201,stimulusRORE28_2IFC_2019_Jun_12_1805_202,True,2019_Jun_12_1805,2IFC,3,RORE28,
2IFC,26,0,26,0,5,-1,correct answer,0.634807300055,False,True,stimulusRORE28_2IFC_2019_Jun_12_1805_203,stimulusRORE28_2IFC_2019_Jun_12_1805_204,True,2019_Jun_12_1805,2IFC,3,RORE28,
2IFC,27,0,27,0,6.6,-1,correct answer,0.700744100148,False,True,stimulusRORE28_2IFC_2019_Jun_12_1805_205,stimulusRORE28_2IFC_2019_Jun_12_1805_206,True,2019_Jun_12_1805,2IFC,3,RORE28,
2IFC,28,0,28,0,2.2,-1,correct answer,0.768146899994,False,True,stimulusRORE28_2IFC_2019_Jun_12_1805_207,stimulusRORE28_2IFC_2019_Jun_12_1805_208,True,2019_Jun_12_1805,2IFC,3,RORE28,
2IFC,29,0,29,0,5.7,-1,correct answer,0.366923700087,True,False,stimulusRORE28_2IFC_2019_Jun_12_1805_209,stimulusRORE28_2IFC_2019_Jun_12_1805_210,True,2019_Jun_12_1805,2IFC,3,RORE28,
2IFC,30,0,30,0,5,-1,correct answer,0.400396100013,True,False,stimulusRORE28_2IFC_2019_Jun_12_1805_211,stimulusRORE28_2IFC_2019_Jun_12_1805_212,True,2019_Jun_12_1805,2IFC,3,RORE28,
2IFC,31,0,31,0,3.7,-1,correct answer,0.733743899968,False,True,stimulusRORE28_2IFC_2019_Jun_12_1805_213,stimulusRORE28_2IFC_2019_Jun_12_1805_214,True,2019_Jun_12_1805,2IFC,3,RORE28,
2IFC,32,0,32,0,5,-1,correct answer,0.266233399976,True,False,stimulusRORE28_2IFC_2019_Jun_12_1805_215,stimulusRORE28_2IFC_2019_Jun_12_1805_216,True,2019_Jun_12_1805,2IFC,3,RORE28,
2IFC,33,0,33,0,5.7,-1,correct answer,0.400737799937,True,False,stimulusRORE28_2IFC_2019_Jun_12_1805_217,stimulusRORE28_2IFC_2019_Jun_12_1805_218,True,2019_Jun_12_1805,2IFC,3,RORE28,
2IFC,34,0,34,0,3.7,-1,wrong answer,0.633324400056,True,False,stimulusRORE28_2IFC_2019_Jun_12_1805_219,stimulusRORE28_2IFC_2019_Jun_12_1805_220,True,2019_Jun_12_1805,2IFC,3,RORE28,
2IFC,35,0,35,0,5.7,-1,wrong answer,0.366854100022,False,True,stimulusRORE28_2IFC_2019_Jun_12_1805_221,stimulusRORE28_2IFC_2019_Jun_12_1805_222,True,2019_Jun_12_1805,2IFC,3,RORE28,
2IFC,36,0,36,0,3.7,-1,correct answer,0.500648400048,True,False,stimulusRORE28_2IFC_2019_Jun_12_1805_223,stimulusRORE28_2IFC_2019_Jun_12_1805_224,True,2019_Jun_12_1805,2IFC,3,RORE28,
2IFC,37,0,37,0,3,-1,wrong answer,0.600666000042,False,True,stimulusRORE28_2IFC_2019_Jun_12_1805_225,stimulusRORE28_2IFC_2019_Jun_12_1805_226,True,2019_Jun_12_1805,2IFC,3,RORE28,
2IFC,38,0,38,0,3.7,-1,wrong answer,0.467116100015,True,False,stimulusRORE28_2IFC_2019_Jun_12_1805_227,stimulusRORE28_2IFC_2019_Jun_12_1805_228,True,2019_Jun_12_1805,2IFC,3,RORE28,
2IFC,39,0,39,0,5.7,-1,correct answer,0.433521700092,True,False,stimulusRORE28_2IFC_2019_Jun_12_1805_229,stimulusRORE28_2IFC_2019_Jun_12_1805_230,True,2019_Jun_12_1805,2IFC,3,RORE28,
2IFC,40,0,40,0,5.7,-1,correct answer,0.533934399951,True,False,stimulusRORE28_2IFC_2019_Jun_12_1805_231,stimulusRORE28_2IFC_2019_Jun_12_1805_232,True,2019_Jun_12_1805,2IFC,3,RORE28,
2IFC,41,0,41,0,3.7,-1,wrong answer,0.667533299886,True,False,stimulusRORE28_2IFC_2019_Jun_12_1805_233,stimulusRORE28_2IFC_2019_Jun_12_1805_234,True,2019_Jun_12_1805,2IFC,3,RORE28,
2IFC,42,0,42,0,3.7,-1,correct answer,0.565627299948,False,True,stimulusRORE28_2IFC_2019_Jun_12_1805_235,stimulusRORE28_2IFC_2019_Jun_12_1805_236,True,2019_Jun_12_1805,2IFC,3,RORE28,
2IFC,43,0,43,0,3,-1,wrong answer,0.700956400018,False,True,stimulusRORE28_2IFC_2019_Jun_12_1805_237,stimulusRORE28_2IFC_2019_Jun_12_1805_238,True,2019_Jun_12_1805,2IFC,3,RORE28,
2IFC,44,0,44,0,2.2,-1,correct answer,0.633852199884,False,True,stimulusRORE28_2IFC_2019_Jun_12_1805_239,stimulusRORE28_2IFC_2019_Jun_12_1805_240,True,2019_Jun_12_1805,2IFC,3,RORE28,
2IFC,45,0,45,0,5,-1,correct answer,0.499511900125,True,False,stimulusRORE28_2IFC_2019_Jun_12_1805_241,stimulusRORE28_2IFC_2019_Jun_12_1805_242,True,2019_Jun_12_1805,2IFC,3,RORE28,
2IFC,46,0,46,0,2.2,-1,correct answer,0.634103900054,True,False,stimulusRORE28_2IFC_2019_Jun_12_1805_243,stimulusRORE28_2IFC_2019_Jun_12_1805_244,True,2019_Jun_12_1805,2IFC,3,RORE28,
2IFC,47,0,47,0,5.7,-1,correct answer,0.467918900074,True,False,stimulusRORE28_2IFC_2019_Jun_12_1805_245,stimulusRORE28_2IFC_2019_Jun_12_1805_246,True,2019_Jun_12_1805,2IFC,3,RORE28,
2IFC,48,0,48,0,3,-1,correct answer,0.835898800055,True,False,stimulusRORE28_2IFC_2019_Jun_12_1805_247,stimulusRORE28_2IFC_2019_Jun_12_1805_248,True,2019_Jun_12_1805,2IFC,3,RORE28,
2IFC,49,0,49,0,5,-1,correct answer,0.5007491,True,False,stimulusRORE28_2IFC_2019_Jun_12_1805_249,stimulusRORE28_2IFC_2019_Jun_12_1805_250,True,2019_Jun_12_1805,2IFC,3,RORE28,
2IFC,50,0,50,0,2.2,-1,correct answer,0.600844300119,True,False,stimulusRORE28_2IFC_2019_Jun_12_1805_251,stimulusRORE28_2IFC_2019_Jun_12_1805_252,True,2019_Jun_12_1805,2IFC,3,RORE28,
2IFC,51,0,51,0,6.6,-1,correct answer,0.634145899909,False,True,stimulusRORE28_2IFC_2019_Jun_12_1805_253,stimulusRORE28_2IFC_2019_Jun_12_1805_254,True,2019_Jun_12_1805,2IFC,3,RORE28,
2IFC,52,0,52,0,3.7,-1,wrong answer,0.600583399879,False,True,stimulusRORE28_2IFC_2019_Jun_12_1805_255,stimulusRORE28_2IFC_2019_Jun_12_1805_256,True,2019_Jun_12_1805,2IFC,3,RORE28,
2IFC,53,0,53,0,5.7,-1,correct answer,0.567530300003,False,True,stimulusRORE28_2IFC_2019_Jun_12_1805_257,stimulusRORE28_2IFC_2019_Jun_12_1805_258,True,2019_Jun_12_1805,2IFC,3,RORE28,
2IFC,54,0,54,0,5,-1,wrong answer,0.53421029984,False,True,stimulusRORE28_2IFC_2019_Jun_12_1805_259,stimulusRORE28_2IFC_2019_Jun_12_1805_260,True,2019_Jun_12_1805,2IFC,3,RORE28,
2IFC,55,0,55,0,1.4,-1,correct answer,0.567821100121,False,True,stimulusRORE28_2IFC_2019_Jun_12_1805_261,stimulusRORE28_2IFC_2019_Jun_12_1805_262,True,2019_Jun_12_1805,2IFC,3,RORE28,
2IFC,56,0,56,0,6.6,-1,correct answer,0.666966899997,True,False,stimulusRORE28_2IFC_2019_Jun_12_1805_263,stimulusRORE28_2IFC_2019_Jun_12_1805_264,True,2019_Jun_12_1805,2IFC,3,RORE28,
2IFC,57,0,57,0,5,-1,correct answer,0.366846600082,False,True,stimulusRORE28_2IFC_2019_Jun_12_1805_265,stimulusRORE28_2IFC_2019_Jun_12_1805_266,True,2019_Jun_12_1805,2IFC,3,RORE28,
2IFC,58,0,58,0,1.4,-1,wrong answer,0.500597500009,False,True,stimulusRORE28_2IFC_2019_Jun_12_1805_267,stimulusRORE28_2IFC_2019_Jun_12_1805_268,True,2019_Jun_12_1805,2IFC,3,RORE28,
2IFC,59,0,59,0,3,-1,wrong answer,0.702875999967,True,False,stimulusRORE28_2IFC_2019_Jun_12_1805_269,stimulusRORE28_2IFC_2019_Jun_12_1805_270,True,2019_Jun_12_1805,2IFC,3,RORE28,
2IFC,60,0,60,0,1.4,-1,correct answer,0.633995600045,False,True,stimulusRORE28_2IFC_2019_Jun_12_1805_271,stimulusRORE28_2IFC_2019_Jun_12_1805_272,True,2019_Jun_12_1805,2IFC,3,RORE28,
2IFC,61,0,61,0,1.4,-1,no answer,-1,False,True,stimulusRORE28_2IFC_2019_Jun_12_1805_273,stimulusRORE28_2IFC_2019_Jun_12_1805_274,True,2019_Jun_12_1805,2IFC,3,RORE28,
2IFC,62,0,62,0,5,-1,no answer,-1,False,True,stimulusRORE28_2IFC_2019_Jun_12_1805_275,stimulusRORE28_2IFC_2019_Jun_12_1805_276,True,2019_Jun_12_1805,2IFC,3,RORE28,
2IFC,63,0,63,0,2.2,-1,correct answer,0.0998561999295,False,True,stimulusRORE28_2IFC_2019_Jun_12_1805_277,stimulusRORE28_2IFC_2019_Jun_12_1805_278,True,2019_Jun_12_1805,2IFC,3,RORE28,
2IFC,64,0,64,0,2.2,-1,wrong answer,0.567360499874,False,True,stimulusRORE28_2IFC_2019_Jun_12_1805_279,stimulusRORE28_2IFC_2019_Jun_12_1805_280,True,2019_Jun_12_1805,2IFC,3,RORE28,
2IFC,65,0,65,0,5.7,-1,correct answer,0.533802800113,False,True,stimulusRORE28_2IFC_2019_Jun_12_1805_281,stimulusRORE28_2IFC_2019_Jun_12_1805_282,True,2019_Jun_12_1805,2IFC,3,RORE28,
2IFC,66,0,66,0,1.4,-1,correct answer,0.76781999995,False,True,stimulusRORE28_2IFC_2019_Jun_12_1805_283,stimulusRORE28_2IFC_2019_Jun_12_1805_284,True,2019_Jun_12_1805,2IFC,3,RORE28,
2IFC,67,0,67,0,3,-1,wrong answer,0.665379300015,True,False,stimulusRORE28_2IFC_2019_Jun_12_1805_285,stimulusRORE28_2IFC_2019_Jun_12_1805_286,True,2019_Jun_12_1805,2IFC,3,RORE28,
2IFC,68,0,68,0,3,-1,correct answer,0.400719800033,True,False,stimulusRORE28_2IFC_2019_Jun_12_1805_287,stimulusRORE28_2IFC_2019_Jun_12_1805_288,True,2019_Jun_12_1805,2IFC,3,RORE28,
2IFC,69,0,69,0,5.7,-1,correct answer,0.667603499955,False,True,stimulusRORE28_2IFC_2019_Jun_12_1805_289,stimulusRORE28_2IFC_2019_Jun_12_1805_290,True,2019_Jun_12_1805,2IFC,3,RORE28,
2IFC,70,0,70,0,1.4,-1,correct answer,0.734443600057,False,True,stimulusRORE28_2IFC_2019_Jun_12_1805_291,stimulusRORE28_2IFC_2019_Jun_12_1805_292,True,2019_Jun_12_1805,2IFC,3,RORE28,
2IFC,71,0,71,0,3,-1,correct answer,0.466070599854,False,True,stimulusRORE28_2IFC_2019_Jun_12_1805_293,stimulusRORE28_2IFC_2019_Jun_12_1805_294,True,2019_Jun_12_1805,2IFC,3,RORE28,
2IFC,72,0,72,0,6.6,-1,correct answer,0.466689999914,True,False,stimulusRORE28_2IFC_2019_Jun_12_1805_295,stimulusRORE28_2IFC_2019_Jun_12_1805_296,True,2019_Jun_12_1805,2IFC,3,RORE28,
2IFC,73,0,73,0,3,-1,correct answer,0.568445599871,False,True,stimulusRORE28_2IFC_2019_Jun_12_1805_297,stimulusRORE28_2IFC_2019_Jun_12_1805_298,True,2019_Jun_12_1805,2IFC,3,RORE28,
2IFC,74,0,74,0,2.2,-1,correct answer,0.601146799978,True,False,stimulusRORE28_2IFC_2019_Jun_12_1805_299,stimulusRORE28_2IFC_2019_Jun_12_1805_300,True,2019_Jun_12_1805,2IFC,3,RORE28,
2IFC,0,0,0,0,4.4,-1,wrong answer,0.533987500006,False,True,stimulusRORE28_2IFC_2019_Jun_12_1805_301,stimulusRORE28_2IFC_2019_Jun_12_1805_302,True,2019_Jun_12_1805,2IFC,3,RORE28,
2IFC,1,0,1,0,1.4,-1,wrong answer,0.636101899901,True,False,stimulusRORE28_2IFC_2019_Jun_12_1805_303,stimulusRORE28_2IFC_2019_Jun_12_1805_304,True,2019_Jun_12_1805,2IFC,3,RORE28,
2IFC,2,0,2,0,6.6,-1,correct answer,0.633887199918,True,False,stimulusRORE28_2IFC_2019_Jun_12_1805_305,stimulusRORE28_2IFC_2019_Jun_12_1805_306,True,2019_Jun_12_1805,2IFC,3,RORE28,
2IFC,3,0,3,0,3,-1,correct answer,0.700739300111,False,True,stimulusRORE28_2IFC_2019_Jun_12_1805_307,stimulusRORE28_2IFC_2019_Jun_12_1805_308,True,2019_Jun_12_1805,2IFC,3,RORE28,
2IFC,4,0,4,0,5,-1,correct answer,0.600716599962,True,False,stimulusRORE28_2IFC_2019_Jun_12_1805_309,stimulusRORE28_2IFC_2019_Jun_12_1805_310,True,2019_Jun_12_1805,2IFC,3,RORE28,
2IFC,5,0,5,0,5.7,-1,correct answer,0.533863299992,True,False,stimulusRORE28_2IFC_2019_Jun_12_1805_311,stimulusRORE28_2IFC_2019_Jun_12_1805_312,True,2019_Jun_12_1805,2IFC,3,RORE28,
2IFC,6,0,6,0,5.7,-1,correct answer,0.834147599991,False,True,stimulusRORE28_2IFC_2019_Jun_12_1805_313,stimulusRORE28_2IFC_2019_Jun_12_1805_314,True,2019_Jun_12_1805,2IFC,3,RORE28,
2IFC,7,0,7,0,3,-1,wrong answer,0.632369299885,False,True,stimulusRORE28_2IFC_2019_Jun_12_1805_315,stimulusRORE28_2IFC_2019_Jun_12_1805_316,True,2019_Jun_12_1805,2IFC,3,RORE28,
2IFC,8,0,8,0,3.7,-1,wrong answer,0.500131100183,True,False,stimulusRORE28_2IFC_2019_Jun_12_1805_317,stimulusRORE28_2IFC_2019_Jun_12_1805_318,True,2019_Jun_12_1805,2IFC,3,RORE28,
2IFC,9,0,9,0,1.4,-1,correct answer,0.367361500161,True,False,stimulusRORE28_2IFC_2019_Jun_12_1805_319,stimulusRORE28_2IFC_2019_Jun_12_1805_320,True,2019_Jun_12_1805,2IFC,3,RORE28,
2IFC,10,0,10,0,3,-1,correct answer,0.567523600068,False,True,stimulusRORE28_2IFC_2019_Jun_12_1805_321,stimulusRORE28_2IFC_2019_Jun_12_1805_322,True,2019_Jun_12_1805,2IFC,3,RORE28,
2IFC,11,0,11,0,2.2,-1,wrong answer,0.500115000177,False,True,stimulusRORE28_2IFC_2019_Jun_12_1805_323,stimulusRORE28_2IFC_2019_Jun_12_1805_324,True,2019_Jun_12_1805,2IFC,3,RORE28,
2IFC,12,0,12,0,5,-1,correct answer,0.634276600089,True,False,stimulusRORE28_2IFC_2019_Jun_12_1805_325,stimulusRORE28_2IFC_2019_Jun_12_1805_326,True,2019_Jun_12_1805,2IFC,3,RORE28,
2IFC,13,0,13,0,1.4,-1,wrong answer,0.501043299912,False,True,stimulusRORE28_2IFC_2019_Jun_12_1805_327,stimulusRORE28_2IFC_2019_Jun_12_1805_328,True,2019_Jun_12_1805,2IFC,3,RORE28,
2IFC,14,0,14,0,4.4,-1,correct answer,0.434903899906,True,False,stimulusRORE28_2IFC_2019_Jun_12_1805_329,stimulusRORE28_2IFC_2019_Jun_12_1805_330,True,2019_Jun_12_1805,2IFC,3,RORE28,
2IFC,15,0,15,0,4.4,-1,correct answer,0.53363589989,True,False,stimulusRORE28_2IFC_2019_Jun_12_1805_331,stimulusRORE28_2IFC_2019_Jun_12_1805_332,True,2019_Jun_12_1805,2IFC,3,RORE28,
2IFC,16,0,16,0,4.4,-1,correct answer,0.567269700114,False,True,stimulusRORE28_2IFC_2019_Jun_12_1805_333,stimulusRORE28_2IFC_2019_Jun_12_1805_334,True,2019_Jun_12_1805,2IFC,3,RORE28,
2IFC,17,0,17,0,6.6,-1,correct answer,0.400632899953,True,False,stimulusRORE28_2IFC_2019_Jun_12_1805_335,stimulusRORE28_2IFC_2019_Jun_12_1805_336,True,2019_Jun_12_1805,2IFC,3,RORE28,
2IFC,18,0,18,0,6.6,-1,no answer,-1,False,True,stimulusRORE28_2IFC_2019_Jun_12_1805_337,stimulusRORE28_2IFC_2019_Jun_12_1805_338,True,2019_Jun_12_1805,2IFC,3,RORE28,
2IFC,19,0,19,0,4.4,-1,correct answer,0.0676490999758,False,True,stimulusRORE28_2IFC_2019_Jun_12_1805_339,stimulusRORE28_2IFC_2019_Jun_12_1805_340,True,2019_Jun_12_1805,2IFC,3,RORE28,
2IFC,20,0,20,0,5,-1,correct answer,0.467554999981,True,False,stimulusRORE28_2IFC_2019_Jun_12_1805_341,stimulusRORE28_2IFC_2019_Jun_12_1805_342,True,2019_Jun_12_1805,2IFC,3,RORE28,
2IFC,21,0,21,0,3.7,-1,wrong answer,0.597075900063,False,True,stimulusRORE28_2IFC_2019_Jun_12_1805_343,stimulusRORE28_2IFC_2019_Jun_12_1805_344,True,2019_Jun_12_1805,2IFC,3,RORE28,
2IFC,22,0,22,0,4.4,-1,correct answer,0.467271999922,True,False,stimulusRORE28_2IFC_2019_Jun_12_1805_345,stimulusRORE28_2IFC_2019_Jun_12_1805_346,True,2019_Jun_12_1805,2IFC,3,RORE28,
2IFC,23,0,23,0,5.7,-1,correct answer,0.66728439997,True,False,stimulusRORE28_2IFC_2019_Jun_12_1805_347,stimulusRORE28_2IFC_2019_Jun_12_1805_348,True,2019_Jun_12_1805,2IFC,3,RORE28,
2IFC,24,0,24,0,4.4,-1,correct answer,0.634009499801,False,True,stimulusRORE28_2IFC_2019_Jun_12_1805_349,stimulusRORE28_2IFC_2019_Jun_12_1805_350,True,2019_Jun_12_1805,2IFC,3,RORE28,
2IFC,25,0,25,0,5,-1,correct answer,0.500799400033,False,True,stimulusRORE28_2IFC_2019_Jun_12_1805_351,stimulusRORE28_2IFC_2019_Jun_12_1805_352,True,2019_Jun_12_1805,2IFC,3,RORE28,
2IFC,26,0,26,0,6.6,-1,correct answer,0.367140700109,True,False,stimulusRORE28_2IFC_2019_Jun_12_1805_353,stimulusRORE28_2IFC_2019_Jun_12_1805_354,True,2019_Jun_12_1805,2IFC,3,RORE28,
2IFC,27,0,27,0,5.7,-1,wrong answer,0.766397799831,False,True,stimulusRORE28_2IFC_2019_Jun_12_1805_355,stimulusRORE28_2IFC_2019_Jun_12_1805_356,True,2019_Jun_12_1805,2IFC,3,RORE28,
2IFC,28,0,28,0,2.2,-1,no answer,-1,False,True,stimulusRORE28_2IFC_2019_Jun_12_1805_357,stimulusRORE28_2IFC_2019_Jun_12_1805_358,True,2019_Jun_12_1805,2IFC,3,RORE28,
2IFC,29,0,29,0,4.4,-1,wrong answer,0.300176799996,True,False,stimulusRORE28_2IFC_2019_Jun_12_1805_359,stimulusRORE28_2IFC_2019_Jun_12_1805_360,True,2019_Jun_12_1805,2IFC,3,RORE28,
2IFC,30,0,30,0,5,-1,correct answer,0.567535300041,True,False,stimulusRORE28_2IFC_2019_Jun_12_1805_361,stimulusRORE28_2IFC_2019_Jun_12_1805_362,True,2019_Jun_12_1805,2IFC,3,RORE28,
2IFC,31,0,31,0,3,-1,correct answer,0.668157599866,True,False,stimulusRORE28_2IFC_2019_Jun_12_1805_363,stimulusRORE28_2IFC_2019_Jun_12_1805_364,True,2019_Jun_12_1805,2IFC,3,RORE28,
2IFC,32,0,32,0,1.4,-1,wrong answer,0.633834699867,True,False,stimulusRORE28_2IFC_2019_Jun_12_1805_365,stimulusRORE28_2IFC_2019_Jun_12_1805_366,True,2019_Jun_12_1805,2IFC,3,RORE28,
2IFC,33,0,33,0,5.7,-1,correct answer,0.333851099946,True,False,stimulusRORE28_2IFC_2019_Jun_12_1805_367,stimulusRORE28_2IFC_2019_Jun_12_1805_368,True,2019_Jun_12_1805,2IFC,3,RORE28,
2IFC,34,0,34,0,5,-1,correct answer,0.734201300191,True,False,stimulusRORE28_2IFC_2019_Jun_12_1805_369,stimulusRORE28_2IFC_2019_Jun_12_1805_370,True,2019_Jun_12_1805,2IFC,3,RORE28,
2IFC,35,0,35,0,1.4,-1,correct answer,0.56789740012,False,True,stimulusRORE28_2IFC_2019_Jun_12_1805_371,stimulusRORE28_2IFC_2019_Jun_12_1805_372,True,2019_Jun_12_1805,2IFC,3,RORE28,
2IFC,36,0,36,0,3,-1,correct answer,0.567558200099,False,True,stimulusRORE28_2IFC_2019_Jun_12_1805_373,stimulusRORE28_2IFC_2019_Jun_12_1805_374,True,2019_Jun_12_1805,2IFC,3,RORE28,
2IFC,37,0,37,0,1.4,-1,correct answer,0.33382820012,True,False,stimulusRORE28_2IFC_2019_Jun_12_1805_375,stimulusRORE28_2IFC_2019_Jun_12_1805_376,True,2019_Jun_12_1805,2IFC,3,RORE28,
2IFC,38,0,38,0,6.6,-1,correct answer,0.50113710016,False,True,stimulusRORE28_2IFC_2019_Jun_12_1805_377,stimulusRORE28_2IFC_2019_Jun_12_1805_378,True,2019_Jun_12_1805,2IFC,3,RORE28,
2IFC,39,0,39,0,3,-1,correct answer,0.501000799937,False,True,stimulusRORE28_2IFC_2019_Jun_12_1805_379,stimulusRORE28_2IFC_2019_Jun_12_1805_380,True,2019_Jun_12_1805,2IFC,3,RORE28,
2IFC,40,0,40,0,4.4,-1,correct answer,0.70105620008,False,True,stimulusRORE28_2IFC_2019_Jun_12_1805_381,stimulusRORE28_2IFC_2019_Jun_12_1805_382,True,2019_Jun_12_1805,2IFC,3,RORE28,
2IFC,41,0,41,0,4.4,-1,correct answer,0.66706379992,False,True,stimulusRORE28_2IFC_2019_Jun_12_1805_383,stimulusRORE28_2IFC_2019_Jun_12_1805_384,True,2019_Jun_12_1805,2IFC,3,RORE28,
2IFC,42,0,42,0,5.7,-1,wrong answer,0.600693200016,False,True,stimulusRORE28_2IFC_2019_Jun_12_1805_385,stimulusRORE28_2IFC_2019_Jun_12_1805_386,True,2019_Jun_12_1805,2IFC,3,RORE28,
2IFC,43,0,43,0,6.6,-1,correct answer,0.366155600175,True,False,stimulusRORE28_2IFC_2019_Jun_12_1805_387,stimulusRORE28_2IFC_2019_Jun_12_1805_388,True,2019_Jun_12_1805,2IFC,3,RORE28,
2IFC,44,0,44,0,5,-1,wrong answer,0.366740100086,True,False,stimulusRORE28_2IFC_2019_Jun_12_1805_389,stimulusRORE28_2IFC_2019_Jun_12_1805_390,True,2019_Jun_12_1805,2IFC,3,RORE28,
2IFC,45,0,45,0,6.6,-1,correct answer,0.500644499902,False,True,stimulusRORE28_2IFC_2019_Jun_12_1805_391,stimulusRORE28_2IFC_2019_Jun_12_1805_392,True,2019_Jun_12_1805,2IFC,3,RORE28,
2IFC,46,0,46,0,3.7,-1,correct answer,0.434230700135,True,False,stimulusRORE28_2IFC_2019_Jun_12_1805_393,stimulusRORE28_2IFC_2019_Jun_12_1805_394,True,2019_Jun_12_1805,2IFC,3,RORE28,
2IFC,47,0,47,0,1.4,-1,correct answer,0.433277100092,True,False,stimulusRORE28_2IFC_2019_Jun_12_1805_395,stimulusRORE28_2IFC_2019_Jun_12_1805_396,True,2019_Jun_12_1805,2IFC,3,RORE28,
2IFC,48,0,48,0,6.6,-1,correct answer,0.299765500007,False,True,stimulusRORE28_2IFC_2019_Jun_12_1805_397,stimulusRORE28_2IFC_2019_Jun_12_1805_398,True,2019_Jun_12_1805,2IFC,3,RORE28,
2IFC,49,0,49,0,5,-1,wrong answer,0.56699930015,False,True,stimulusRORE28_2IFC_2019_Jun_12_1805_399,stimulusRORE28_2IFC_2019_Jun_12_1805_400,True,2019_Jun_12_1805,2IFC,3,RORE28,
2IFC,50,0,50,0,5,-1,correct answer,0.367643800098,True,False,stimulusRORE28_2IFC_2019_Jun_12_1805_401,stimulusRORE28_2IFC_2019_Jun_12_1805_402,True,2019_Jun_12_1805,2IFC,3,RORE28,
2IFC,51,0,51,0,3.7,-1,wrong answer,0.500708400039,True,False,stimulusRORE28_2IFC_2019_Jun_12_1805_403,stimulusRORE28_2IFC_2019_Jun_12_1805_404,True,2019_Jun_12_1805,2IFC,3,RORE28,
2IFC,52,0,52,0,5.7,-1,wrong answer,0.300246099941,False,True,stimulusRORE28_2IFC_2019_Jun_12_1805_405,stimulusRORE28_2IFC_2019_Jun_12_1805_406,True,2019_Jun_12_1805,2IFC,3,RORE28,
2IFC,53,0,53,0,5.7,-1,correct answer,0.236083100084,True,False,stimulusRORE28_2IFC_2019_Jun_12_1805_407,stimulusRORE28_2IFC_2019_Jun_12_1805_408,True,2019_Jun_12_1805,2IFC,3,RORE28,
2IFC,54,0,54,0,1.4,-1,no answer,-1,False,True,stimulusRORE28_2IFC_2019_Jun_12_1805_409,stimulusRORE28_2IFC_2019_Jun_12_1805_410,True,2019_Jun_12_1805,2IFC,3,RORE28,
2IFC,55,0,55,0,3,-1,correct answer,0.434531699866,False,True,stimulusRORE28_2IFC_2019_Jun_12_1805_411,stimulusRORE28_2IFC_2019_Jun_12_1805_412,True,2019_Jun_12_1805,2IFC,3,RORE28,
2IFC,56,0,56,0,4.4,-1,correct answer,0.367129500024,True,False,stimulusRORE28_2IFC_2019_Jun_12_1805_413,stimulusRORE28_2IFC_2019_Jun_12_1805_414,True,2019_Jun_12_1805,2IFC,3,RORE28,
2IFC,57,0,57,0,3,-1,correct answer,0.43467899994,False,True,stimulusRORE28_2IFC_2019_Jun_12_1805_415,stimulusRORE28_2IFC_2019_Jun_12_1805_416,True,2019_Jun_12_1805,2IFC,3,RORE28,
2IFC,58,0,58,0,4.4,-1,correct answer,0.366867699893,True,False,stimulusRORE28_2IFC_2019_Jun_12_1805_417,stimulusRORE28_2IFC_2019_Jun_12_1805_418,True,2019_Jun_12_1805,2IFC,3,RORE28,
2IFC,59,0,59,0,4.4,-1,correct answer,0.367506599985,True,False,stimulusRORE28_2IFC_2019_Jun_12_1805_419,stimulusRORE28_2IFC_2019_Jun_12_1805_420,True,2019_Jun_12_1805,2IFC,3,RORE28,
2IFC,60,0,60,0,5.7,-1,correct answer,0.534620200051,False,True,stimulusRORE28_2IFC_2019_Jun_12_1805_421,stimulusRORE28_2IFC_2019_Jun_12_1805_422,True,2019_Jun_12_1805,2IFC,3,RORE28,
2IFC,61,0,61,0,3.7,-1,correct answer,0.367348400177,True,False,stimulusRORE28_2IFC_2019_Jun_12_1805_423,stimulusRORE28_2IFC_2019_Jun_12_1805_424,True,2019_Jun_12_1805,2IFC,3,RORE28,
2IFC,62,0,62,0,3,-1,wrong answer,0.568255800055,True,False,stimulusRORE28_2IFC_2019_Jun_12_1805_425,stimulusRORE28_2IFC_2019_Jun_12_1805_426,True,2019_Jun_12_1805,2IFC,3,RORE28,
2IFC,63,0,63,0,3.7,-1,correct answer,0.36760070012,False,True,stimulusRORE28_2IFC_2019_Jun_12_1805_427,stimulusRORE28_2IFC_2019_Jun_12_1805_428,True,2019_Jun_12_1805,2IFC,3,RORE28,
2IFC,64,0,64,0,4.4,-1,wrong answer,0.600587700028,True,False,stimulusRORE28_2IFC_2019_Jun_12_1805_429,stimulusRORE28_2IFC_2019_Jun_12_1805_430,True,2019_Jun_12_1805,2IFC,3,RORE28,
2IFC,65,0,65,0,5.7,-1,correct answer,0.466298100073,False,True,stimulusRORE28_2IFC_2019_Jun_12_1805_431,stimulusRORE28_2IFC_2019_Jun_12_1805_432,True,2019_Jun_12_1805,2IFC,3,RORE28,
2IFC,66,0,66,0,5,-1,correct answer,0.400564100128,False,True,stimulusRORE28_2IFC_2019_Jun_12_1805_433,stimulusRORE28_2IFC_2019_Jun_12_1805_434,True,2019_Jun_12_1805,2IFC,3,RORE28,
2IFC,67,0,67,0,5.7,-1,correct answer,0.533951699967,False,True,stimulusRORE28_2IFC_2019_Jun_12_1805_435,stimulusRORE28_2IFC_2019_Jun_12_1805_436,True,2019_Jun_12_1805,2IFC,3,RORE28,
2IFC,68,0,68,0,3,-1,correct answer,0.600421400042,False,True,stimulusRORE28_2IFC_2019_Jun_12_1805_437,stimulusRORE28_2IFC_2019_Jun_12_1805_438,True,2019_Jun_12_1805,2IFC,3,RORE28,
2IFC,69,0,69,0,6.6,-1,correct answer,0.433843499981,True,False,stimulusRORE28_2IFC_2019_Jun_12_1805_439,stimulusRORE28_2IFC_2019_Jun_12_1805_440,True,2019_Jun_12_1805,2IFC,3,RORE28,
2IFC,70,0,70,0,4.4,-1,wrong answer,0.701381399995,True,False,stimulusRORE28_2IFC_2019_Jun_12_1805_441,stimulusRORE28_2IFC_2019_Jun_12_1805_442,True,2019_Jun_12_1805,2IFC,3,RORE28,
2IFC,71,0,71,0,6.6,-1,wrong answer,0.334106199909,False,True,stimulusRORE28_2IFC_2019_Jun_12_1805_443,stimulusRORE28_2IFC_2019_Jun_12_1805_444,True,2019_Jun_12_1805,2IFC,3,RORE28,
2IFC,72,0,72,0,1.4,-1,wrong answer,0.60064249998,True,False,stimulusRORE28_2IFC_2019_Jun_12_1805_445,stimulusRORE28_2IFC_2019_Jun_12_1805_446,True,2019_Jun_12_1805,2IFC,3,RORE28,
2IFC,73,0,73,0,3.7,-1,correct answer,0.633970800089,False,True,stimulusRORE28_2IFC_2019_Jun_12_1805_447,stimulusRORE28_2IFC_2019_Jun_12_1805_448,True,2019_Jun_12_1805,2IFC,3,RORE28,
2IFC,74,0,74,0,1.4,-1,wrong answer,0.634033099981,True,False,stimulusRORE28_2IFC_2019_Jun_12_1805_449,stimulusRORE28_2IFC_2019_Jun_12_1805_450,True,2019_Jun_12_1805,2IFC,3,RORE28,
2IFC,0,0,0,0,4.4,-1,correct answer,0.802431500051,True,False,stimulusRORE28_2IFC_2019_Jun_12_1805_451,stimulusRORE28_2IFC_2019_Jun_12_1805_452,True,2019_Jun_12_1805,2IFC,3,RORE28,
2IFC,1,0,1,0,3.7,-1,correct answer,0.534202200128,False,True,stimulusRORE28_2IFC_2019_Jun_12_1805_453,stimulusRORE28_2IFC_2019_Jun_12_1805_454,True,2019_Jun_12_1805,2IFC,3,RORE28,
2IFC,2,0,2,0,3.7,-1,wrong answer,0.834398899926,False,True,stimulusRORE28_2IFC_2019_Jun_12_1805_455,stimulusRORE28_2IFC_2019_Jun_12_1805_456,True,2019_Jun_12_1805,2IFC,3,RORE28,
2IFC,3,0,3,0,3,-1,correct answer,0.534561999841,False,True,stimulusRORE28_2IFC_2019_Jun_12_1805_457,stimulusRORE28_2IFC_2019_Jun_12_1805_458,True,2019_Jun_12_1805,2IFC,3,RORE28,
2IFC,4,0,4,0,3,-1,correct answer,0.634298600024,False,True,stimulusRORE28_2IFC_2019_Jun_12_1805_459,stimulusRORE28_2IFC_2019_Jun_12_1805_460,True,2019_Jun_12_1805,2IFC,3,RORE28,
2IFC,5,0,5,0,6.6,-1,correct answer,0.333874200005,True,False,stimulusRORE28_2IFC_2019_Jun_12_1805_461,stimulusRORE28_2IFC_2019_Jun_12_1805_462,True,2019_Jun_12_1805,2IFC,3,RORE28,
2IFC,6,0,6,0,2.2,-1,correct answer,0.533895300003,False,True,stimulusRORE28_2IFC_2019_Jun_12_1805_463,stimulusRORE28_2IFC_2019_Jun_12_1805_464,True,2019_Jun_12_1805,2IFC,3,RORE28,
2IFC,7,0,7,0,5.7,-1,correct answer,0.634141799994,False,True,stimulusRORE28_2IFC_2019_Jun_12_1805_465,stimulusRORE28_2IFC_2019_Jun_12_1805_466,True,2019_Jun_12_1805,2IFC,3,RORE28,
2IFC,8,0,8,0,3,-1,wrong answer,0.467352200067,False,True,stimulusRORE28_2IFC_2019_Jun_12_1805_467,stimulusRORE28_2IFC_2019_Jun_12_1805_468,True,2019_Jun_12_1805,2IFC,3,RORE28,
2IFC,9,0,9,0,3,-1,correct answer,0.567520099925,False,True,stimulusRORE28_2IFC_2019_Jun_12_1805_469,stimulusRORE28_2IFC_2019_Jun_12_1805_470,True,2019_Jun_12_1805,2IFC,3,RORE28,
2IFC,10,0,10,0,2.2,-1,correct answer,0.43384559988,True,False,stimulusRORE28_2IFC_2019_Jun_12_1805_471,stimulusRORE28_2IFC_2019_Jun_12_1805_472,True,2019_Jun_12_1805,2IFC,3,RORE28,
2IFC,11,0,11,0,3,-1,wrong answer,0.600892799906,False,True,stimulusRORE28_2IFC_2019_Jun_12_1805_473,stimulusRORE28_2IFC_2019_Jun_12_1805_474,True,2019_Jun_12_1805,2IFC,3,RORE28,
2IFC,12,0,12,0,5,-1,correct answer,0.699971799972,False,True,stimulusRORE28_2IFC_2019_Jun_12_1805_475,stimulusRORE28_2IFC_2019_Jun_12_1805_476,True,2019_Jun_12_1805,2IFC,3,RORE28,
2IFC,13,0,13,0,4.4,-1,correct answer,0.400615199935,True,False,stimulusRORE28_2IFC_2019_Jun_12_1805_477,stimulusRORE28_2IFC_2019_Jun_12_1805_478,True,2019_Jun_12_1805,2IFC,3,RORE28,
2IFC,14,0,14,0,6.6,-1,correct answer,0.433769300114,True,False,stimulusRORE28_2IFC_2019_Jun_12_1805_479,stimulusRORE28_2IFC_2019_Jun_12_1805_480,True,2019_Jun_12_1805,2IFC,3,RORE28,
2IFC,15,0,15,0,6.6,-1,correct answer,0.533904500073,True,False,stimulusRORE28_2IFC_2019_Jun_12_1805_481,stimulusRORE28_2IFC_2019_Jun_12_1805_482,True,2019_Jun_12_1805,2IFC,3,RORE28,
2IFC,16,0,16,0,2.2,-1,wrong answer,0.767468199832,True,False,stimulusRORE28_2IFC_2019_Jun_12_1805_483,stimulusRORE28_2IFC_2019_Jun_12_1805_484,True,2019_Jun_12_1805,2IFC,3,RORE28,
2IFC,17,0,17,0,2.2,-1,correct answer,0.566486699972,False,True,stimulusRORE28_2IFC_2019_Jun_12_1805_485,stimulusRORE28_2IFC_2019_Jun_12_1805_486,True,2019_Jun_12_1805,2IFC,3,RORE28,
2IFC,18,0,18,0,5.7,-1,correct answer,0.467120800167,True,False,stimulusRORE28_2IFC_2019_Jun_12_1805_487,stimulusRORE28_2IFC_2019_Jun_12_1805_488,True,2019_Jun_12_1805,2IFC,3,RORE28,
2IFC,19,0,19,0,3.7,-1,correct answer,0.367733999854,True,False,stimulusRORE28_2IFC_2019_Jun_12_1805_489,stimulusRORE28_2IFC_2019_Jun_12_1805_490,True,2019_Jun_12_1805,2IFC,3,RORE28,
2IFC,20,0,20,0,5,-1,correct answer,0.700594099937,False,True,stimulusRORE28_2IFC_2019_Jun_12_1805_491,stimulusRORE28_2IFC_2019_Jun_12_1805_492,True,2019_Jun_12_1805,2IFC,3,RORE28,
2IFC,21,0,21,0,3,-1,correct answer,0.700865400024,False,True,stimulusRORE28_2IFC_2019_Jun_12_1805_493,stimulusRORE28_2IFC_2019_Jun_12_1805_494,True,2019_Jun_12_1805,2IFC,3,RORE28,
2IFC,22,0,22,0,5,-1,correct answer,0.533848999999,False,True,stimulusRORE28_2IFC_2019_Jun_12_1805_495,stimulusRORE28_2IFC_2019_Jun_12_1805_496,True,2019_Jun_12_1805,2IFC,3,RORE28,
2IFC,23,0,23,0,3,-1,correct answer,0.434936000034,True,False,stimulusRORE28_2IFC_2019_Jun_12_1805_497,stimulusRORE28_2IFC_2019_Jun_12_1805_498,True,2019_Jun_12_1805,2IFC,3,RORE28,
2IFC,24,0,24,0,2.2,-1,correct answer,0.300518000033,True,False,stimulusRORE28_2IFC_2019_Jun_12_1805_499,stimulusRORE28_2IFC_2019_Jun_12_1805_500,True,2019_Jun_12_1805,2IFC,3,RORE28,
2IFC,25,0,25,0,2.2,-1,correct answer,0.434233099921,True,False,stimulusRORE28_2IFC_2019_Jun_12_1805_501,stimulusRORE28_2IFC_2019_Jun_12_1805_502,True,2019_Jun_12_1805,2IFC,3,RORE28,
2IFC,26,0,26,0,3,-1,correct answer,0.368791999994,True,False,stimulusRORE28_2IFC_2019_Jun_12_1805_503,stimulusRORE28_2IFC_2019_Jun_12_1805_504,True,2019_Jun_12_1805,2IFC,3,RORE28,
2IFC,27,0,27,0,6.6,-1,correct answer,0.634129500017,True,False,stimulusRORE28_2IFC_2019_Jun_12_1805_505,stimulusRORE28_2IFC_2019_Jun_12_1805_506,True,2019_Jun_12_1805,2IFC,3,RORE28,
2IFC,28,0,28,0,5.7,-1,correct answer,0.633598000044,True,False,stimulusRORE28_2IFC_2019_Jun_12_1805_507,stimulusRORE28_2IFC_2019_Jun_12_1805_508,True,2019_Jun_12_1805,2IFC,3,RORE28,
2IFC,29,0,29,0,6.6,-1,correct answer,0.567287700018,False,True,stimulusRORE28_2IFC_2019_Jun_12_1805_509,stimulusRORE28_2IFC_2019_Jun_12_1805_510,True,2019_Jun_12_1805,2IFC,3,RORE28,
2IFC,30,0,30,0,2.2,-1,correct answer,0.467329700012,True,False,stimulusRORE28_2IFC_2019_Jun_12_1805_511,stimulusRORE28_2IFC_2019_Jun_12_1805_512,True,2019_Jun_12_1805,2IFC,3,RORE28,
2IFC,31,0,31,0,3.7,-1,correct answer,0.601615299936,False,True,stimulusRORE28_2IFC_2019_Jun_12_1805_513,stimulusRORE28_2IFC_2019_Jun_12_1805_514,True,2019_Jun_12_1805,2IFC,3,RORE28,
2IFC,32,0,32,0,1.4,-1,correct answer,0.568772100145,False,True,stimulusRORE28_2IFC_2019_Jun_12_1805_515,stimulusRORE28_2IFC_2019_Jun_12_1805_516,True,2019_Jun_12_1805,2IFC,3,RORE28,
2IFC,33,0,33,0,3,-1,correct answer,0.533171900082,True,False,stimulusRORE28_2IFC_2019_Jun_12_1805_517,stimulusRORE28_2IFC_2019_Jun_12_1805_518,True,2019_Jun_12_1805,2IFC,3,RORE28,
2IFC,34,0,34,0,3.7,-1,correct answer,0.534306500107,False,True,stimulusRORE28_2IFC_2019_Jun_12_1805_519,stimulusRORE28_2IFC_2019_Jun_12_1805_520,True,2019_Jun_12_1805,2IFC,3,RORE28,
2IFC,35,0,35,0,4.4,-1,correct answer,0.467665400123,True,False,stimulusRORE28_2IFC_2019_Jun_12_1805_521,stimulusRORE28_2IFC_2019_Jun_12_1805_522,True,2019_Jun_12_1805,2IFC,3,RORE28,
2IFC,36,0,36,0,5.7,-1,correct answer,0.500620500185,True,False,stimulusRORE28_2IFC_2019_Jun_12_1805_523,stimulusRORE28_2IFC_2019_Jun_12_1805_524,True,2019_Jun_12_1805,2IFC,3,RORE28,
2IFC,37,0,37,0,4.4,-1,correct answer,0.400776900118,True,False,stimulusRORE28_2IFC_2019_Jun_12_1805_525,stimulusRORE28_2IFC_2019_Jun_12_1805_526,True,2019_Jun_12_1805,2IFC,3,RORE28,
2IFC,38,0,38,0,4.4,-1,correct answer,0.498560999986,True,False,stimulusRORE28_2IFC_2019_Jun_12_1805_527,stimulusRORE28_2IFC_2019_Jun_12_1805_528,True,2019_Jun_12_1805,2IFC,3,RORE28,
2IFC,39,0,39,0,1.4,-1,wrong answer,0.534188600024,True,False,stimulusRORE28_2IFC_2019_Jun_12_1805_529,stimulusRORE28_2IFC_2019_Jun_12_1805_530,True,2019_Jun_12_1805,2IFC,3,RORE28,
2IFC,40,0,40,0,3.7,-1,correct answer,0.633797399933,False,True,stimulusRORE28_2IFC_2019_Jun_12_1805_531,stimulusRORE28_2IFC_2019_Jun_12_1805_532,True,2019_Jun_12_1805,2IFC,3,RORE28,
2IFC,41,0,41,0,4.4,-1,correct answer,0.401058099931,True,False,stimulusRORE28_2IFC_2019_Jun_12_1805_533,stimulusRORE28_2IFC_2019_Jun_12_1805_534,True,2019_Jun_12_1805,2IFC,3,RORE28,
2IFC,42,0,42,0,3.7,-1,correct answer,0.467193699908,False,True,stimulusRORE28_2IFC_2019_Jun_12_1805_535,stimulusRORE28_2IFC_2019_Jun_12_1805_536,True,2019_Jun_12_1805,2IFC,3,RORE28,
2IFC,43,0,43,0,3.7,-1,wrong answer,0.400924300076,False,True,stimulusRORE28_2IFC_2019_Jun_12_1805_537,stimulusRORE28_2IFC_2019_Jun_12_1805_538,True,2019_Jun_12_1805,2IFC,3,RORE28,
2IFC,44,0,44,0,3,-1,correct answer,0.401973800035,False,True,stimulusRORE28_2IFC_2019_Jun_12_1805_539,stimulusRORE28_2IFC_2019_Jun_12_1805_540,True,2019_Jun_12_1805,2IFC,3,RORE28,
2IFC,45,0,45,0,3.7,-1,wrong answer,0.600466900039,False,True,stimulusRORE28_2IFC_2019_Jun_12_1805_541,stimulusRORE28_2IFC_2019_Jun_12_1805_542,True,2019_Jun_12_1805,2IFC,3,RORE28,
2IFC,46,0,46,0,3,-1,correct answer,0.469083999982,False,True,stimulusRORE28_2IFC_2019_Jun_12_1805_543,stimulusRORE28_2IFC_2019_Jun_12_1805_544,True,2019_Jun_12_1805,2IFC,3,RORE28,
2IFC,47,0,47,0,5.7,-1,correct answer,0.533633699873,False,True,stimulusRORE28_2IFC_2019_Jun_12_1805_545,stimulusRORE28_2IFC_2019_Jun_12_1805_546,True,2019_Jun_12_1805,2IFC,3,RORE28,
2IFC,48,0,48,0,5,-1,correct answer,0.267146499828,True,False,stimulusRORE28_2IFC_2019_Jun_12_1805_547,stimulusRORE28_2IFC_2019_Jun_12_1805_548,True,2019_Jun_12_1805,2IFC,3,RORE28,
2IFC,49,0,49,0,5.7,-1,correct answer,0.5337421,False,True,stimulusRORE28_2IFC_2019_Jun_12_1805_549,stimulusRORE28_2IFC_2019_Jun_12_1805_550,True,2019_Jun_12_1805,2IFC,3,RORE28,
2IFC,50,0,50,0,1.4,-1,correct answer,0.534008100163,True,False,stimulusRORE28_2IFC_2019_Jun_12_1805_551,stimulusRORE28_2IFC_2019_Jun_12_1805_552,True,2019_Jun_12_1805,2IFC,3,RORE28,
2IFC,51,0,51,0,5.7,-1,correct answer,0.433684299933,False,True,stimulusRORE28_2IFC_2019_Jun_12_1805_553,stimulusRORE28_2IFC_2019_Jun_12_1805_554,True,2019_Jun_12_1805,2IFC,3,RORE28,
2IFC,52,0,52,0,5.7,-1,wrong answer,0.569062400144,False,True,stimulusRORE28_2IFC_2019_Jun_12_1805_555,stimulusRORE28_2IFC_2019_Jun_12_1805_556,True,2019_Jun_12_1805,2IFC,3,RORE28,
2IFC,53,0,53,0,6.6,-1,correct answer,0.533703899942,False,True,stimulusRORE28_2IFC_2019_Jun_12_1805_557,stimulusRORE28_2IFC_2019_Jun_12_1805_558,True,2019_Jun_12_1805,2IFC,3,RORE28,
2IFC,54,0,54,0,3,-1,correct answer,0.400689700153,True,False,stimulusRORE28_2IFC_2019_Jun_12_1805_559,stimulusRORE28_2IFC_2019_Jun_12_1805_560,True,2019_Jun_12_1805,2IFC,3,RORE28,
2IFC,55,0,55,0,2.2,-1,correct answer,0.668469599914,False,True,stimulusRORE28_2IFC_2019_Jun_12_1805_561,stimulusRORE28_2IFC_2019_Jun_12_1805_562,True,2019_Jun_12_1805,2IFC,3,RORE28,
2IFC,56,0,56,0,5.7,-1,correct answer,0.367075100075,True,False,stimulusRORE28_2IFC_2019_Jun_12_1805_563,stimulusRORE28_2IFC_2019_Jun_12_1805_564,True,2019_Jun_12_1805,2IFC,3,RORE28,
2IFC,57,0,57,0,2.2,-1,correct answer,0.601495699957,False,True,stimulusRORE28_2IFC_2019_Jun_12_1805_565,stimulusRORE28_2IFC_2019_Jun_12_1805_566,True,2019_Jun_12_1805,2IFC,3,RORE28,
2IFC,58,0,58,0,3.7,-1,wrong answer,0.797451599967,False,True,stimulusRORE28_2IFC_2019_Jun_12_1805_567,stimulusRORE28_2IFC_2019_Jun_12_1805_568,True,2019_Jun_12_1805,2IFC,3,RORE28,
2IFC,59,0,59,0,1.4,-1,wrong answer,0.534227099968,True,False,stimulusRORE28_2IFC_2019_Jun_12_1805_569,stimulusRORE28_2IFC_2019_Jun_12_1805_570,True,2019_Jun_12_1805,2IFC,3,RORE28,
2IFC,60,0,60,0,6.6,-1,wrong answer,0.56644490012,False,True,stimulusRORE28_2IFC_2019_Jun_12_1805_571,stimulusRORE28_2IFC_2019_Jun_12_1805_572,True,2019_Jun_12_1805,2IFC,3,RORE28,
2IFC,61,0,61,0,3,-1,wrong answer,0.633773399983,True,False,stimulusRORE28_2IFC_2019_Jun_12_1805_573,stimulusRORE28_2IFC_2019_Jun_12_1805_574,True,2019_Jun_12_1805,2IFC,3,RORE28,
2IFC,62,0,62,0,6.6,-1,correct answer,0.367100799922,True,False,stimulusRORE28_2IFC_2019_Jun_12_1805_575,stimulusRORE28_2IFC_2019_Jun_12_1805_576,True,2019_Jun_12_1805,2IFC,3,RORE28,
2IFC,63,0,63,0,2.2,-1,wrong answer,0.433403300121,True,False,stimulusRORE28_2IFC_2019_Jun_12_1805_577,stimulusRORE28_2IFC_2019_Jun_12_1805_578,True,2019_Jun_12_1805,2IFC,3,RORE28,
2IFC,64,0,64,0,2.2,-1,wrong answer,0.603811600013,True,False,stimulusRORE28_2IFC_2019_Jun_12_1805_579,stimulusRORE28_2IFC_2019_Jun_12_1805_580,True,2019_Jun_12_1805,2IFC,3,RORE28,
2IFC,65,0,65,0,3.7,-1,correct answer,0.667551900027,False,True,stimulusRORE28_2IFC_2019_Jun_12_1805_581,stimulusRORE28_2IFC_2019_Jun_12_1805_582,True,2019_Jun_12_1805,2IFC,3,RORE28,
2IFC,66,0,66,0,5,-1,correct answer,0.501101900125,True,False,stimulusRORE28_2IFC_2019_Jun_12_1805_583,stimulusRORE28_2IFC_2019_Jun_12_1805_584,True,2019_Jun_12_1805,2IFC,3,RORE28,
2IFC,67,0,67,0,2.2,-1,wrong answer,0.800667200005,False,True,stimulusRORE28_2IFC_2019_Jun_12_1805_585,stimulusRORE28_2IFC_2019_Jun_12_1805_586,True,2019_Jun_12_1805,2IFC,3,RORE28,
2IFC,68,0,68,0,2.2,-1,correct answer,0.467492099851,False,True,stimulusRORE28_2IFC_2019_Jun_12_1805_587,stimulusRORE28_2IFC_2019_Jun_12_1805_588,True,2019_Jun_12_1805,2IFC,3,RORE28,
2IFC,69,0,69,0,6.6,-1,wrong answer,0.567341199843,True,False,stimulusRORE28_2IFC_2019_Jun_12_1805_589,stimulusRORE28_2IFC_2019_Jun_12_1805_590,True,2019_Jun_12_1805,2IFC,3,RORE28,
2IFC,70,0,70,0,4.4,-1,correct answer,0.36733909999,True,False,stimulusRORE28_2IFC_2019_Jun_12_1805_591,stimulusRORE28_2IFC_2019_Jun_12_1805_592,True,2019_Jun_12_1805,2IFC,3,RORE28,
2IFC,71,0,71,0,4.4,-1,no answer,-1,False,True,stimulusRORE28_2IFC_2019_Jun_12_1805_593,stimulusRORE28_2IFC_2019_Jun_12_1805_594,True,2019_Jun_12_1805,2IFC,3,RORE28,
2IFC,72,0,72,0,4.4,-1,correct answer,0.433498600032,False,True,stimulusRORE28_2IFC_2019_Jun_12_1805_595,stimulusRORE28_2IFC_2019_Jun_12_1805_596,True,2019_Jun_12_1805,2IFC,3,RORE28,
2IFC,73,0,73,0,3,-1,correct answer,0.600737100001,True,False,stimulusRORE28_2IFC_2019_Jun_12_1805_597,stimulusRORE28_2IFC_2019_Jun_12_1805_598,True,2019_Jun_12_1805,2IFC,3,RORE28,
2IFC,74,0,74,0,3.7,-1,correct answer,0.534346799832,False,True,stimulusRORE28_2IFC_2019_Jun_12_1805_599,stimulusRORE28_2IFC_2019_Jun_12_1805_600,True,2019_Jun_12_1805,2IFC,3,RORE28,
2IFC,0,0,0,0,1.4,-1,wrong answer,0.467285400024,True,False,stimulusRORE28_2IFC_2019_Jun_12_1805_601,stimulusRORE28_2IFC_2019_Jun_12_1805_602,True,2019_Jun_12_1805,2IFC,3,RORE28,
2IFC,1,0,1,0,3.7,-1,wrong answer,0.598852599971,True,False,stimulusRORE28_2IFC_2019_Jun_12_1805_603,stimulusRORE28_2IFC_2019_Jun_12_1805_604,True,2019_Jun_12_1805,2IFC,3,RORE28,
2IFC,2,0,2,0,1.4,-1,wrong answer,0.567399600055,False,True,stimulusRORE28_2IFC_2019_Jun_12_1805_605,stimulusRORE28_2IFC_2019_Jun_12_1805_606,True,2019_Jun_12_1805,2IFC,3,RORE28,
2IFC,3,0,3,0,3.7,-1,wrong answer,0.700066599995,False,True,stimulusRORE28_2IFC_2019_Jun_12_1805_607,stimulusRORE28_2IFC_2019_Jun_12_1805_608,True,2019_Jun_12_1805,2IFC,3,RORE28,
2IFC,4,0,4,0,6.6,-1,correct answer,0.433528200025,True,False,stimulusRORE28_2IFC_2019_Jun_12_1805_609,stimulusRORE28_2IFC_2019_Jun_12_1805_610,True,2019_Jun_12_1805,2IFC,3,RORE28,
2IFC,5,0,5,0,3.7,-1,correct answer,0.50085219997,False,True,stimulusRORE28_2IFC_2019_Jun_12_1805_611,stimulusRORE28_2IFC_2019_Jun_12_1805_612,True,2019_Jun_12_1805,2IFC,3,RORE28,
2IFC,6,0,6,0,3,-1,correct answer,0.533931400161,False,True,stimulusRORE28_2IFC_2019_Jun_12_1805_613,stimulusRORE28_2IFC_2019_Jun_12_1805_614,True,2019_Jun_12_1805,2IFC,3,RORE28,
2IFC,7,0,7,0,5.7,-1,correct answer,0.533378900029,True,False,stimulusRORE28_2IFC_2019_Jun_12_1805_615,stimulusRORE28_2IFC_2019_Jun_12_1805_616,True,2019_Jun_12_1805,2IFC,3,RORE28,
2IFC,8,0,8,0,3,-1,correct answer,0.533745900029,False,True,stimulusRORE28_2IFC_2019_Jun_12_1805_617,stimulusRORE28_2IFC_2019_Jun_12_1805_618,True,2019_Jun_12_1805,2IFC,3,RORE28,
2IFC,9,0,9,0,3.7,-1,correct answer,0.467264099978,False,True,stimulusRORE28_2IFC_2019_Jun_12_1805_619,stimulusRORE28_2IFC_2019_Jun_12_1805_620,True,2019_Jun_12_1805,2IFC,3,RORE28,
2IFC,10,0,10,0,5,-1,correct answer,0.400386599824,True,False,stimulusRORE28_2IFC_2019_Jun_12_1805_621,stimulusRORE28_2IFC_2019_Jun_12_1805_622,True,2019_Jun_12_1805,2IFC,3,RORE28,
2IFC,11,0,11,0,6.6,-1,correct answer,0.400759099983,True,False,stimulusRORE28_2IFC_2019_Jun_12_1805_623,stimulusRORE28_2IFC_2019_Jun_12_1805_624,True,2019_Jun_12_1805,2IFC,3,RORE28,
2IFC,12,0,12,0,5.7,-1,correct answer,0.434050199809,True,False,stimulusRORE28_2IFC_2019_Jun_12_1805_625,stimulusRORE28_2IFC_2019_Jun_12_1805_626,True,2019_Jun_12_1805,2IFC,3,RORE28,
2IFC,13,0,13,0,5,-1,correct answer,0.400651399978,True,False,stimulusRORE28_2IFC_2019_Jun_12_1805_627,stimulusRORE28_2IFC_2019_Jun_12_1805_628,True,2019_Jun_12_1805,2IFC,3,RORE28,
2IFC,14,0,14,0,6.6,-1,correct answer,0.333624899853,True,False,stimulusRORE28_2IFC_2019_Jun_12_1805_629,stimulusRORE28_2IFC_2019_Jun_12_1805_630,True,2019_Jun_12_1805,2IFC,3,RORE28,
2IFC,15,0,15,0,3,-1,correct answer,0.603243599879,False,True,stimulusRORE28_2IFC_2019_Jun_12_1805_631,stimulusRORE28_2IFC_2019_Jun_12_1805_632,True,2019_Jun_12_1805,2IFC,3,RORE28,
2IFC,16,0,16,0,5.7,-1,wrong answer,0.400684500113,False,True,stimulusRORE28_2IFC_2019_Jun_12_1805_633,stimulusRORE28_2IFC_2019_Jun_12_1805_634,True,2019_Jun_12_1805,2IFC,3,RORE28,
2IFC,17,0,17,0,3,-1,correct answer,0.56756799994,True,False,stimulusRORE28_2IFC_2019_Jun_12_1805_635,stimulusRORE28_2IFC_2019_Jun_12_1805_636,True,2019_Jun_12_1805,2IFC,3,RORE28,
2IFC,18,0,18,0,2.2,-1,correct answer,0.36717169988,True,False,stimulusRORE28_2IFC_2019_Jun_12_1805_637,stimulusRORE28_2IFC_2019_Jun_12_1805_638,True,2019_Jun_12_1805,2IFC,3,RORE28,
2IFC,19,0,19,0,3,-1,correct answer,0.60080120014,False,True,stimulusRORE28_2IFC_2019_Jun_12_1805_639,stimulusRORE28_2IFC_2019_Jun_12_1805_640,True,2019_Jun_12_1805,2IFC,3,RORE28,
2IFC,20,0,20,0,1.4,-1,correct answer,0.634630899876,True,False,stimulusRORE28_2IFC_2019_Jun_12_1805_641,stimulusRORE28_2IFC_2019_Jun_12_1805_642,True,2019_Jun_12_1805,2IFC,3,RORE28,
2IFC,21,0,21,0,5.7,-1,wrong answer,0.634001800092,False,True,stimulusRORE28_2IFC_2019_Jun_12_1805_643,stimulusRORE28_2IFC_2019_Jun_12_1805_644,True,2019_Jun_12_1805,2IFC,3,RORE28,
2IFC,22,0,22,0,1.4,-1,wrong answer,0.733601099811,False,True,stimulusRORE28_2IFC_2019_Jun_12_1805_645,stimulusRORE28_2IFC_2019_Jun_12_1805_646,True,2019_Jun_12_1805,2IFC,3,RORE28,
2IFC,23,0,23,0,5,-1,correct answer,0.734279799974,False,True,stimulusRORE28_2IFC_2019_Jun_12_1805_647,stimulusRORE28_2IFC_2019_Jun_12_1805_648,True,2019_Jun_12_1805,2IFC,3,RORE28,
2IFC,24,0,24,0,6.6,-1,correct answer,0.434357400052,True,False,stimulusRORE28_2IFC_2019_Jun_12_1805_649,stimulusRORE28_2IFC_2019_Jun_12_1805_650,True,2019_Jun_12_1805,2IFC,3,RORE28,
2IFC,25,0,25,0,1.4,-1,correct answer,0.533463099971,True,False,stimulusRORE28_2IFC_2019_Jun_12_1805_651,stimulusRORE28_2IFC_2019_Jun_12_1805_652,True,2019_Jun_12_1805,2IFC,3,RORE28,
2IFC,26,0,26,0,1.4,-1,correct answer,0.567277699942,True,False,stimulusRORE28_2IFC_2019_Jun_12_1805_653,stimulusRORE28_2IFC_2019_Jun_12_1805_654,True,2019_Jun_12_1805,2IFC,3,RORE28,
2IFC,27,0,27,0,3,-1,wrong answer,0.632753800135,True,False,stimulusRORE28_2IFC_2019_Jun_12_1805_655,stimulusRORE28_2IFC_2019_Jun_12_1805_656,True,2019_Jun_12_1805,2IFC,3,RORE28,
2IFC,28,0,28,0,3,-1,correct answer,0.533736199839,True,False,stimulusRORE28_2IFC_2019_Jun_12_1805_657,stimulusRORE28_2IFC_2019_Jun_12_1805_658,True,2019_Jun_12_1805,2IFC,3,RORE28,
2IFC,29,0,29,0,3,-1,wrong answer,0.767842399888,True,False,stimulusRORE28_2IFC_2019_Jun_12_1805_659,stimulusRORE28_2IFC_2019_Jun_12_1805_660,True,2019_Jun_12_1805,2IFC,3,RORE28,
2IFC,30,0,30,0,6.6,-1,correct answer,0.467372700106,True,False,stimulusRORE28_2IFC_2019_Jun_12_1805_661,stimulusRORE28_2IFC_2019_Jun_12_1805_662,True,2019_Jun_12_1805,2IFC,3,RORE28,
2IFC,31,0,31,0,1.4,-1,wrong answer,0.7006002001,False,True,stimulusRORE28_2IFC_2019_Jun_12_1805_663,stimulusRORE28_2IFC_2019_Jun_12_1805_664,True,2019_Jun_12_1805,2IFC,3,RORE28,
2IFC,32,0,32,0,1.4,-1,wrong answer,0.634329600027,True,False,stimulusRORE28_2IFC_2019_Jun_12_1805_665,stimulusRORE28_2IFC_2019_Jun_12_1805_666,True,2019_Jun_12_1805,2IFC,3,RORE28,
2IFC,33,0,33,0,3,-1,correct answer,0.367855399847,True,False,stimulusRORE28_2IFC_2019_Jun_12_1805_667,stimulusRORE28_2IFC_2019_Jun_12_1805_668,True,2019_Jun_12_1805,2IFC,3,RORE28,
2IFC,34,0,34,0,4.4,-1,correct answer,0.333240700187,True,False,stimulusRORE28_2IFC_2019_Jun_12_1805_669,stimulusRORE28_2IFC_2019_Jun_12_1805_670,True,2019_Jun_12_1805,2IFC,3,RORE28,
2IFC,35,0,35,0,4.4,-1,wrong answer,0.734709700104,False,True,stimulusRORE28_2IFC_2019_Jun_12_1805_671,stimulusRORE28_2IFC_2019_Jun_12_1805_672,True,2019_Jun_12_1805,2IFC,3,RORE28,
2IFC,36,0,36,0,5.7,-1,correct answer,0.300419999985,True,False,stimulusRORE28_2IFC_2019_Jun_12_1805_673,stimulusRORE28_2IFC_2019_Jun_12_1805_674,True,2019_Jun_12_1805,2IFC,3,RORE28,
2IFC,37,0,37,0,3.7,-1,no answer,-1,True,False,stimulusRORE28_2IFC_2019_Jun_12_1805_675,stimulusRORE28_2IFC_2019_Jun_12_1805_676,True,2019_Jun_12_1805,2IFC,3,RORE28,
2IFC,38,0,38,0,5.7,-1,correct answer,0.500493400032,False,True,stimulusRORE28_2IFC_2019_Jun_12_1805_677,stimulusRORE28_2IFC_2019_Jun_12_1805_678,True,2019_Jun_12_1805,2IFC,3,RORE28,
2IFC,39,0,39,0,1.4,-1,no answer,-1,True,False,stimulusRORE28_2IFC_2019_Jun_12_1805_679,stimulusRORE28_2IFC_2019_Jun_12_1805_680,True,2019_Jun_12_1805,2IFC,3,RORE28,
2IFC,40,0,40,0,4.4,-1,correct answer,0.500687999884,True,False,stimulusRORE28_2IFC_2019_Jun_12_1805_681,stimulusRORE28_2IFC_2019_Jun_12_1805_682,True,2019_Jun_12_1805,2IFC,3,RORE28,
2IFC,41,0,41,0,5.7,-1,correct answer,0.434098399943,True,False,stimulusRORE28_2IFC_2019_Jun_12_1805_683,stimulusRORE28_2IFC_2019_Jun_12_1805_684,True,2019_Jun_12_1805,2IFC,3,RORE28,
2IFC,42,0,42,0,2.2,-1,no answer,-1,False,True,stimulusRORE28_2IFC_2019_Jun_12_1805_685,stimulusRORE28_2IFC_2019_Jun_12_1805_686,True,2019_Jun_12_1805,2IFC,3,RORE28,
2IFC,43,0,43,0,1.4,-1,wrong answer,0.567036200082,True,False,stimulusRORE28_2IFC_2019_Jun_12_1805_687,stimulusRORE28_2IFC_2019_Jun_12_1805_688,True,2019_Jun_12_1805,2IFC,3,RORE28,
2IFC,44,0,44,0,6.6,-1,wrong answer,0.367591300048,False,True,stimulusRORE28_2IFC_2019_Jun_12_1805_689,stimulusRORE28_2IFC_2019_Jun_12_1805_690,True,2019_Jun_12_1805,2IFC,3,RORE28,
2IFC,45,0,45,0,1.4,-1,correct answer,0.401388800004,False,True,stimulusRORE28_2IFC_2019_Jun_12_1805_691,stimulusRORE28_2IFC_2019_Jun_12_1805_692,True,2019_Jun_12_1805,2IFC,3,RORE28,
2IFC,46,0,46,0,1.4,-1,correct answer,0.567064800067,False,True,stimulusRORE28_2IFC_2019_Jun_12_1805_693,stimulusRORE28_2IFC_2019_Jun_12_1805_694,True,2019_Jun_12_1805,2IFC,3,RORE28,
2IFC,47,0,47,0,5.7,-1,correct answer,0.566989700077,False,True,stimulusRORE28_2IFC_2019_Jun_12_1805_695,stimulusRORE28_2IFC_2019_Jun_12_1805_696,True,2019_Jun_12_1805,2IFC,3,RORE28,
2IFC,48,0,48,0,4.4,-1,correct answer,0.367173799779,True,False,stimulusRORE28_2IFC_2019_Jun_12_1805_697,stimulusRORE28_2IFC_2019_Jun_12_1805_698,True,2019_Jun_12_1805,2IFC,3,RORE28,
2IFC,49,0,49,0,6.6,-1,correct answer,0.534104299964,False,True,stimulusRORE28_2IFC_2019_Jun_12_1805_699,stimulusRORE28_2IFC_2019_Jun_12_1805_700,True,2019_Jun_12_1805,2IFC,3,RORE28,
2IFC,50,0,50,0,6.6,-1,no answer,-1,True,False,stimulusRORE28_2IFC_2019_Jun_12_1805_701,stimulusRORE28_2IFC_2019_Jun_12_1805_702,True,2019_Jun_12_1805,2IFC,3,RORE28,
2IFC,51,0,51,0,4.4,-1,correct answer,0.567138799932,False,True,stimulusRORE28_2IFC_2019_Jun_12_1805_703,stimulusRORE28_2IFC_2019_Jun_12_1805_704,True,2019_Jun_12_1805,2IFC,3,RORE28,
2IFC,52,0,52,0,2.2,-1,correct answer,0.166158800013,True,False,stimulusRORE28_2IFC_2019_Jun_12_1805_705,stimulusRORE28_2IFC_2019_Jun_12_1805_706,True,2019_Jun_12_1805,2IFC,3,RORE28,
2IFC,53,0,53,0,4.4,-1,wrong answer,0.433777299942,True,False,stimulusRORE28_2IFC_2019_Jun_12_1805_707,stimulusRORE28_2IFC_2019_Jun_12_1805_708,True,2019_Jun_12_1805,2IFC,3,RORE28,
2IFC,54,0,54,0,3,-1,wrong answer,0.434046699898,True,False,stimulusRORE28_2IFC_2019_Jun_12_1805_709,stimulusRORE28_2IFC_2019_Jun_12_1805_710,True,2019_Jun_12_1805,2IFC,3,RORE28,
2IFC,55,0,55,0,2.2,-1,correct answer,0.367404100019,True,False,stimulusRORE28_2IFC_2019_Jun_12_1805_711,stimulusRORE28_2IFC_2019_Jun_12_1805_712,True,2019_Jun_12_1805,2IFC,3,RORE28,
2IFC,56,0,56,0,2.2,-1,correct answer,0.633916099789,False,True,stimulusRORE28_2IFC_2019_Jun_12_1805_713,stimulusRORE28_2IFC_2019_Jun_12_1805_714,True,2019_Jun_12_1805,2IFC,3,RORE28,
2IFC,57,0,57,0,3.7,-1,correct answer,0.300106700044,True,False,stimulusRORE28_2IFC_2019_Jun_12_1805_715,stimulusRORE28_2IFC_2019_Jun_12_1805_716,True,2019_Jun_12_1805,2IFC,3,RORE28,
2IFC,58,0,58,0,1.4,-1,correct answer,0.403016099939,False,True,stimulusRORE28_2IFC_2019_Jun_12_1805_717,stimulusRORE28_2IFC_2019_Jun_12_1805_718,True,2019_Jun_12_1805,2IFC,3,RORE28,
2IFC,59,0,59,0,1.4,-1,correct answer,0.702917600051,False,True,stimulusRORE28_2IFC_2019_Jun_12_1805_719,stimulusRORE28_2IFC_2019_Jun_12_1805_720,True,2019_Jun_12_1805,2IFC,3,RORE28,
2IFC,60,0,60,0,3.7,-1,correct answer,0.469003000064,False,True,stimulusRORE28_2IFC_2019_Jun_12_1805_721,stimulusRORE28_2IFC_2019_Jun_12_1805_722,True,2019_Jun_12_1805,2IFC,3,RORE28,
2IFC,61,0,61,0,6.6,-1,no answer,-1,True,False,stimulusRORE28_2IFC_2019_Jun_12_1805_723,stimulusRORE28_2IFC_2019_Jun_12_1805_724,True,2019_Jun_12_1805,2IFC,3,RORE28,
2IFC,62,0,62,0,2.2,-1,correct answer,0.500810500002,False,True,stimulusRORE28_2IFC_2019_Jun_12_1805_725,stimulusRORE28_2IFC_2019_Jun_12_1805_726,True,2019_Jun_12_1805,2IFC,3,RORE28,
2IFC,63,0,63,0,3.7,-1,correct answer,0.400433300063,True,False,stimulusRORE28_2IFC_2019_Jun_12_1805_727,stimulusRORE28_2IFC_2019_Jun_12_1805_728,True,2019_Jun_12_1805,2IFC,3,RORE28,
2IFC,64,0,64,0,2.2,-1,wrong answer,0.366759099998,True,False,stimulusRORE28_2IFC_2019_Jun_12_1805_729,stimulusRORE28_2IFC_2019_Jun_12_1805_730,True,2019_Jun_12_1805,2IFC,3,RORE28,
2IFC,65,0,65,0,6.6,-1,correct answer,0.100876400014,True,False,stimulusRORE28_2IFC_2019_Jun_12_1805_731,stimulusRORE28_2IFC_2019_Jun_12_1805_732,True,2019_Jun_12_1805,2IFC,3,RORE28,
2IFC,66,0,66,0,1.4,-1,correct answer,0.333645999897,False,True,stimulusRORE28_2IFC_2019_Jun_12_1805_733,stimulusRORE28_2IFC_2019_Jun_12_1805_734,True,2019_Jun_12_1805,2IFC,3,RORE28,
2IFC,67,0,67,0,5.7,-1,correct answer,0.60063069989,False,True,stimulusRORE28_2IFC_2019_Jun_12_1805_735,stimulusRORE28_2IFC_2019_Jun_12_1805_736,True,2019_Jun_12_1805,2IFC,3,RORE28,
2IFC,68,0,68,0,6.6,-1,wrong answer,0.133407299872,True,False,stimulusRORE28_2IFC_2019_Jun_12_1805_737,stimulusRORE28_2IFC_2019_Jun_12_1805_738,True,2019_Jun_12_1805,2IFC,3,RORE28,
2IFC,69,0,69,0,1.4,-1,no answer,-1,True,False,stimulusRORE28_2IFC_2019_Jun_12_1805_739,stimulusRORE28_2IFC_2019_Jun_12_1805_740,True,2019_Jun_12_1805,2IFC,3,RORE28,
2IFC,70,0,70,0,2.2,-1,correct answer,0.300359399989,False,True,stimulusRORE28_2IFC_2019_Jun_12_1805_741,stimulusRORE28_2IFC_2019_Jun_12_1805_742,True,2019_Jun_12_1805,2IFC,3,RORE28,
2IFC,71,0,71,0,3,-1,correct answer,0.534172800137,False,True,stimulusRORE28_2IFC_2019_Jun_12_1805_743,stimulusRORE28_2IFC_2019_Jun_12_1805_744,True,2019_Jun_12_1805,2IFC,3,RORE28,
2IFC,72,0,72,0,4.4,-1,correct answer,0.533689699834,True,False,stimulusRORE28_2IFC_2019_Jun_12_1805_745,stimulusRORE28_2IFC_2019_Jun_12_1805_746,True,2019_Jun_12_1805,2IFC,3,RORE28,
2IFC,73,0,73,0,3,-1,correct answer,0.434091400122,True,False,stimulusRORE28_2IFC_2019_Jun_12_1805_747,stimulusRORE28_2IFC_2019_Jun_12_1805_748,True,2019_Jun_12_1805,2IFC,3,RORE28,
2IFC,74,0,74,0,3.7,-1,correct answer,0.434025899973,True,False,stimulusRORE28_2IFC_2019_Jun_12_1805_749,stimulusRORE28_2IFC_2019_Jun_12_1805_750,True,2019_Jun_12_1805,2IFC,3,RORE28,
2IFC,0,0,0,0,2.2,-1,no answer,-1,True,False,stimulusRORE28_2IFC_2019_Jun_12_1805_751,stimulusRORE28_2IFC_2019_Jun_12_1805_752,True,2019_Jun_12_1805,2IFC,3,RORE28,
2IFC,1,0,1,0,6.6,-1,correct answer,0.200413899962,False,True,stimulusRORE28_2IFC_2019_Jun_12_1805_753,stimulusRORE28_2IFC_2019_Jun_12_1805_754,True,2019_Jun_12_1805,2IFC,3,RORE28,
2IFC,2,0,2,0,3.7,-1,correct answer,0.599897300126,False,True,stimulusRORE28_2IFC_2019_Jun_12_1805_755,stimulusRORE28_2IFC_2019_Jun_12_1805_756,True,2019_Jun_12_1805,2IFC,3,RORE28,
2IFC,3,0,3,0,5.7,-1,correct answer,0.433965400094,True,False,stimulusRORE28_2IFC_2019_Jun_12_1805_757,stimulusRORE28_2IFC_2019_Jun_12_1805_758,True,2019_Jun_12_1805,2IFC,3,RORE28,
2IFC,4,0,4,0,6.6,-1,correct answer,0.533905700082,False,True,stimulusRORE28_2IFC_2019_Jun_12_1805_759,stimulusRORE28_2IFC_2019_Jun_12_1805_760,True,2019_Jun_12_1805,2IFC,3,RORE28,
2IFC,5,0,5,0,4.4,-1,wrong answer,0.533595500048,False,True,stimulusRORE28_2IFC_2019_Jun_12_1805_761,stimulusRORE28_2IFC_2019_Jun_12_1805_762,True,2019_Jun_12_1805,2IFC,3,RORE28,
2IFC,6,0,6,0,5,-1,correct answer,0.466955099953,True,False,stimulusRORE28_2IFC_2019_Jun_12_1805_763,stimulusRORE28_2IFC_2019_Jun_12_1805_764,True,2019_Jun_12_1805,2IFC,3,RORE28,
2IFC,7,0,7,0,3,-1,correct answer,0.4006258999,True,False,stimulusRORE28_2IFC_2019_Jun_12_1805_765,stimulusRORE28_2IFC_2019_Jun_12_1805_766,True,2019_Jun_12_1805,2IFC,3,RORE28,
2IFC,8,0,8,0,5,-1,correct answer,0.50095739984,False,True,stimulusRORE28_2IFC_2019_Jun_12_1805_767,stimulusRORE28_2IFC_2019_Jun_12_1805_768,True,2019_Jun_12_1805,2IFC,3,RORE28,
2IFC,9,0,9,0,5.7,-1,correct answer,0.266931399936,True,False,stimulusRORE28_2IFC_2019_Jun_12_1805_769,stimulusRORE28_2IFC_2019_Jun_12_1805_770,True,2019_Jun_12_1805,2IFC,3,RORE28,
2IFC,10,0,10,0,3.7,-1,correct answer,0.467802600004,True,False,stimulusRORE28_2IFC_2019_Jun_12_1805_771,stimulusRORE28_2IFC_2019_Jun_12_1805_772,True,2019_Jun_12_1805,2IFC,3,RORE28,
2IFC,11,0,11,0,2.2,-1,wrong answer,0.434241899988,True,False,stimulusRORE28_2IFC_2019_Jun_12_1805_773,stimulusRORE28_2IFC_2019_Jun_12_1805_774,True,2019_Jun_12_1805,2IFC,3,RORE28,
2IFC,12,0,12,0,5.7,-1,correct answer,0.300540199969,True,False,stimulusRORE28_2IFC_2019_Jun_12_1805_775,stimulusRORE28_2IFC_2019_Jun_12_1805_776,True,2019_Jun_12_1805,2IFC,3,RORE28,
2IFC,13,0,13,0,4.4,-1,correct answer,0.567350600148,False,True,stimulusRORE28_2IFC_2019_Jun_12_1805_777,stimulusRORE28_2IFC_2019_Jun_12_1805_778,True,2019_Jun_12_1805,2IFC,3,RORE28,
2IFC,14,0,14,0,5.7,-1,wrong answer,0.500552900136,False,True,stimulusRORE28_2IFC_2019_Jun_12_1805_779,stimulusRORE28_2IFC_2019_Jun_12_1805_780,True,2019_Jun_12_1805,2IFC,3,RORE28,
2IFC,15,0,15,0,5.7,-1,correct answer,0.467550399946,False,True,stimulusRORE28_2IFC_2019_Jun_12_1805_781,stimulusRORE28_2IFC_2019_Jun_12_1805_782,True,2019_Jun_12_1805,2IFC,3,RORE28,
2IFC,16,0,16,0,4.4,-1,correct answer,0.50264750002,False,True,stimulusRORE28_2IFC_2019_Jun_12_1805_783,stimulusRORE28_2IFC_2019_Jun_12_1805_784,True,2019_Jun_12_1805,2IFC,3,RORE28,
2IFC,17,0,17,0,1.4,-1,no answer,-1,True,False,stimulusRORE28_2IFC_2019_Jun_12_1805_785,stimulusRORE28_2IFC_2019_Jun_12_1805_786,True,2019_Jun_12_1805,2IFC,3,RORE28,
2IFC,18,0,18,0,3,-1,correct answer,0.334307200043,True,False,stimulusRORE28_2IFC_2019_Jun_12_1805_787,stimulusRORE28_2IFC_2019_Jun_12_1805_788,True,2019_Jun_12_1805,2IFC,3,RORE28,
2IFC,19,0,19,0,1.4,-1,correct answer,0.567931700032,False,True,stimulusRORE28_2IFC_2019_Jun_12_1805_789,stimulusRORE28_2IFC_2019_Jun_12_1805_790,True,2019_Jun_12_1805,2IFC,3,RORE28,
2IFC,20,0,20,0,5,-1,correct answer,0.30136110005,True,False,stimulusRORE28_2IFC_2019_Jun_12_1805_791,stimulusRORE28_2IFC_2019_Jun_12_1805_792,True,2019_Jun_12_1805,2IFC,3,RORE28,
2IFC,21,0,21,0,2.2,-1,correct answer,0.333627799992,True,False,stimulusRORE28_2IFC_2019_Jun_12_1805_793,stimulusRORE28_2IFC_2019_Jun_12_1805_794,True,2019_Jun_12_1805,2IFC,3,RORE28,
2IFC,22,0,22,0,3.7,-1,correct answer,0.465103599941,False,True,stimulusRORE28_2IFC_2019_Jun_12_1805_795,stimulusRORE28_2IFC_2019_Jun_12_1805_796,True,2019_Jun_12_1805,2IFC,3,RORE28,
2IFC,23,0,23,0,1.4,-1,wrong answer,0.367161900038,False,True,stimulusRORE28_2IFC_2019_Jun_12_1805_797,stimulusRORE28_2IFC_2019_Jun_12_1805_798,True,2019_Jun_12_1805,2IFC,3,RORE28,
2IFC,24,0,24,0,5,-1,wrong answer,0.366999099962,True,False,stimulusRORE28_2IFC_2019_Jun_12_1805_799,stimulusRORE28_2IFC_2019_Jun_12_1805_800,True,2019_Jun_12_1805,2IFC,3,RORE28,
2IFC,25,0,25,0,3,-1,wrong answer,0.600797099993,True,False,stimulusRORE28_2IFC_2019_Jun_12_1805_801,stimulusRORE28_2IFC_2019_Jun_12_1805_802,True,2019_Jun_12_1805,2IFC,3,RORE28,
2IFC,26,0,26,0,3,-1,correct answer,0.467207300011,True,False,stimulusRORE28_2IFC_2019_Jun_12_1805_803,stimulusRORE28_2IFC_2019_Jun_12_1805_804,True,2019_Jun_12_1805,2IFC,3,RORE28,
2IFC,27,0,27,0,5,-1,correct answer,0.500378899975,True,False,stimulusRORE28_2IFC_2019_Jun_12_1805_805,stimulusRORE28_2IFC_2019_Jun_12_1805_806,True,2019_Jun_12_1805,2IFC,3,RORE28,
2IFC,28,0,28,0,4.4,-1,correct answer,0.435539300088,False,True,stimulusRORE28_2IFC_2019_Jun_12_1805_807,stimulusRORE28_2IFC_2019_Jun_12_1805_808,True,2019_Jun_12_1805,2IFC,3,RORE28,
2IFC,29,0,29,0,4.4,-1,correct answer,0.468245600117,True,False,stimulusRORE28_2IFC_2019_Jun_12_1805_809,stimulusRORE28_2IFC_2019_Jun_12_1805_810,True,2019_Jun_12_1805,2IFC,3,RORE28,
2IFC,30,0,30,0,3.7,-1,wrong answer,0.367421499919,True,False,stimulusRORE28_2IFC_2019_Jun_12_1805_811,stimulusRORE28_2IFC_2019_Jun_12_1805_812,True,2019_Jun_12_1805,2IFC,3,RORE28,
2IFC,31,0,31,0,1.4,-1,wrong answer,0.334307899931,False,True,stimulusRORE28_2IFC_2019_Jun_12_1805_813,stimulusRORE28_2IFC_2019_Jun_12_1805_814,True,2019_Jun_12_1805,2IFC,3,RORE28,
2IFC,32,0,32,0,1.4,-1,wrong answer,0.534318499966,True,False,stimulusRORE28_2IFC_2019_Jun_12_1805_815,stimulusRORE28_2IFC_2019_Jun_12_1805_816,True,2019_Jun_12_1805,2IFC,3,RORE28,
2IFC,33,0,33,0,5.7,-1,correct answer,0.367337099975,True,False,stimulusRORE28_2IFC_2019_Jun_12_1805_817,stimulusRORE28_2IFC_2019_Jun_12_1805_818,True,2019_Jun_12_1805,2IFC,3,RORE28,
2IFC,34,0,34,0,2.2,-1,correct answer,0.701371600153,False,True,stimulusRORE28_2IFC_2019_Jun_12_1805_819,stimulusRORE28_2IFC_2019_Jun_12_1805_820,True,2019_Jun_12_1805,2IFC,3,RORE28,
2IFC,35,0,35,0,1.4,-1,correct answer,0.565900799818,False,True,stimulusRORE28_2IFC_2019_Jun_12_1805_821,stimulusRORE28_2IFC_2019_Jun_12_1805_822,True,2019_Jun_12_1805,2IFC,3,RORE28,
2IFC,36,0,36,0,2.2,-1,wrong answer,0.533632199978,False,True,stimulusRORE28_2IFC_2019_Jun_12_1805_823,stimulusRORE28_2IFC_2019_Jun_12_1805_824,True,2019_Jun_12_1805,2IFC,3,RORE28,
2IFC,37,0,37,0,2.2,-1,wrong answer,0.433956300141,False,True,stimulusRORE28_2IFC_2019_Jun_12_1805_825,stimulusRORE28_2IFC_2019_Jun_12_1805_826,True,2019_Jun_12_1805,2IFC,3,RORE28,
2IFC,38,0,38,0,4.4,-1,correct answer,0.501078499947,False,True,stimulusRORE28_2IFC_2019_Jun_12_1805_827,stimulusRORE28_2IFC_2019_Jun_12_1805_828,True,2019_Jun_12_1805,2IFC,3,RORE28,
2IFC,39,0,39,0,6.6,-1,wrong answer,0.400661400054,False,True,stimulusRORE28_2IFC_2019_Jun_12_1805_829,stimulusRORE28_2IFC_2019_Jun_12_1805_830,True,2019_Jun_12_1805,2IFC,3,RORE28,
2IFC,40,0,40,0,5.7,-1,correct answer,0.300759800011,True,False,stimulusRORE28_2IFC_2019_Jun_12_1805_831,stimulusRORE28_2IFC_2019_Jun_12_1805_832,True,2019_Jun_12_1805,2IFC,3,RORE28,
2IFC,41,0,41,0,2.2,-1,correct answer,0.567982600071,True,False,stimulusRORE28_2IFC_2019_Jun_12_1805_833,stimulusRORE28_2IFC_2019_Jun_12_1805_834,True,2019_Jun_12_1805,2IFC,3,RORE28,
2IFC,42,0,42,0,5,-1,wrong answer,0.499002699973,False,True,stimulusRORE28_2IFC_2019_Jun_12_1805_835,stimulusRORE28_2IFC_2019_Jun_12_1805_836,True,2019_Jun_12_1805,2IFC,3,RORE28,
2IFC,43,0,43,0,3,-1,correct answer,0.534158400027,False,True,stimulusRORE28_2IFC_2019_Jun_12_1805_837,stimulusRORE28_2IFC_2019_Jun_12_1805_838,True,2019_Jun_12_1805,2IFC,3,RORE28,
2IFC,44,0,44,0,5.7,-1,wrong answer,0.60041459999,True,False,stimulusRORE28_2IFC_2019_Jun_12_1805_839,stimulusRORE28_2IFC_2019_Jun_12_1805_840,True,2019_Jun_12_1805,2IFC,3,RORE28,
2IFC,45,0,45,0,1.4,-1,correct answer,0.633987399982,True,False,stimulusRORE28_2IFC_2019_Jun_12_1805_841,stimulusRORE28_2IFC_2019_Jun_12_1805_842,True,2019_Jun_12_1805,2IFC,3,RORE28,
2IFC,46,0,46,0,3,-1,wrong answer,0.600842799991,False,True,stimulusRORE28_2IFC_2019_Jun_12_1805_843,stimulusRORE28_2IFC_2019_Jun_12_1805_844,True,2019_Jun_12_1805,2IFC,3,RORE28,
2IFC,47,0,47,0,5.7,-1,correct answer,0.567284799879,False,True,stimulusRORE28_2IFC_2019_Jun_12_1805_845,stimulusRORE28_2IFC_2019_Jun_12_1805_846,True,2019_Jun_12_1805,2IFC,3,RORE28,
2IFC,48,0,48,0,3,-1,correct answer,0.567175500095,False,True,stimulusRORE28_2IFC_2019_Jun_12_1805_847,stimulusRORE28_2IFC_2019_Jun_12_1805_848,True,2019_Jun_12_1805,2IFC,3,RORE28,
2IFC,49,0,49,0,3,-1,correct answer,0.600786000025,False,True,stimulusRORE28_2IFC_2019_Jun_12_1805_849,stimulusRORE28_2IFC_2019_Jun_12_1805_850,True,2019_Jun_12_1805,2IFC,3,RORE28,
2IFC,50,0,50,0,4.4,-1,correct answer,0.502935700119,True,False,stimulusRORE28_2IFC_2019_Jun_12_1805_851,stimulusRORE28_2IFC_2019_Jun_12_1805_852,True,2019_Jun_12_1805,2IFC,3,RORE28,
2IFC,51,0,51,0,5.7,-1,correct answer,0.501763700042,False,True,stimulusRORE28_2IFC_2019_Jun_12_1805_853,stimulusRORE28_2IFC_2019_Jun_12_1805_854,True,2019_Jun_12_1805,2IFC,3,RORE28,
2IFC,52,0,52,0,4.4,-1,correct answer,0.634141700109,False,True,stimulusRORE28_2IFC_2019_Jun_12_1805_855,stimulusRORE28_2IFC_2019_Jun_12_1805_856,True,2019_Jun_12_1805,2IFC,3,RORE28,
2IFC,53,0,53,0,6.6,-1,wrong answer,0.500747299986,False,True,stimulusRORE28_2IFC_2019_Jun_12_1805_857,stimulusRORE28_2IFC_2019_Jun_12_1805_858,True,2019_Jun_12_1805,2IFC,3,RORE28,
2IFC,54,0,54,0,5.7,-1,wrong answer,0.536029899959,True,False,stimulusRORE28_2IFC_2019_Jun_12_1805_859,stimulusRORE28_2IFC_2019_Jun_12_1805_860,True,2019_Jun_12_1805,2IFC,3,RORE28,
2IFC,55,0,55,0,2.2,-1,correct answer,0.299193799961,True,False,stimulusRORE28_2IFC_2019_Jun_12_1805_861,stimulusRORE28_2IFC_2019_Jun_12_1805_862,True,2019_Jun_12_1805,2IFC,3,RORE28,
2IFC,56,0,56,0,6.6,-1,correct answer,0.433969600126,True,False,stimulusRORE28_2IFC_2019_Jun_12_1805_863,stimulusRORE28_2IFC_2019_Jun_12_1805_864,True,2019_Jun_12_1805,2IFC,3,RORE28,
2IFC,57,0,57,0,3.7,-1,correct answer,0.601266600192,False,True,stimulusRORE28_2IFC_2019_Jun_12_1805_865,stimulusRORE28_2IFC_2019_Jun_12_1805_866,True,2019_Jun_12_1805,2IFC,3,RORE28,
2IFC,58,0,58,0,2.2,-1,wrong answer,0.666922900127,True,False,stimulusRORE28_2IFC_2019_Jun_12_1805_867,stimulusRORE28_2IFC_2019_Jun_12_1805_868,True,2019_Jun_12_1805,2IFC,3,RORE28,
2IFC,59,0,59,0,3,-1,wrong answer,0.633926199982,True,False,stimulusRORE28_2IFC_2019_Jun_12_1805_869,stimulusRORE28_2IFC_2019_Jun_12_1805_870,True,2019_Jun_12_1805,2IFC,3,RORE28,
2IFC,60,0,60,0,6.6,-1,wrong answer,0.433317000046,False,True,stimulusRORE28_2IFC_2019_Jun_12_1805_871,stimulusRORE28_2IFC_2019_Jun_12_1805_872,True,2019_Jun_12_1805,2IFC,3,RORE28,
2IFC,61,0,61,0,1.4,-1,wrong answer,0.634387099883,True,False,stimulusRORE28_2IFC_2019_Jun_12_1805_873,stimulusRORE28_2IFC_2019_Jun_12_1805_874,True,2019_Jun_12_1805,2IFC,3,RORE28,
2IFC,62,0,62,0,3,-1,wrong answer,0.63418279984,True,False,stimulusRORE28_2IFC_2019_Jun_12_1805_875,stimulusRORE28_2IFC_2019_Jun_12_1805_876,True,2019_Jun_12_1805,2IFC,3,RORE28,
2IFC,63,0,63,0,3.7,-1,wrong answer,0.834056699881,True,False,stimulusRORE28_2IFC_2019_Jun_12_1805_877,stimulusRORE28_2IFC_2019_Jun_12_1805_878,True,2019_Jun_12_1805,2IFC,3,RORE28,
2IFC,64,0,64,0,5,-1,wrong answer,0.433799899882,False,True,stimulusRORE28_2IFC_2019_Jun_12_1805_879,stimulusRORE28_2IFC_2019_Jun_12_1805_880,True,2019_Jun_12_1805,2IFC,3,RORE28,
2IFC,65,0,65,0,1.4,-1,correct answer,0.467152799945,True,False,stimulusRORE28_2IFC_2019_Jun_12_1805_881,stimulusRORE28_2IFC_2019_Jun_12_1805_882,True,2019_Jun_12_1805,2IFC,3,RORE28,
2IFC,66,0,66,0,2.2,-1,correct answer,0.567258400144,False,True,stimulusRORE28_2IFC_2019_Jun_12_1805_883,stimulusRORE28_2IFC_2019_Jun_12_1805_884,True,2019_Jun_12_1805,2IFC,3,RORE28,
2IFC,67,0,67,0,4.4,-1,wrong answer,0.635253400076,False,True,stimulusRORE28_2IFC_2019_Jun_12_1805_885,stimulusRORE28_2IFC_2019_Jun_12_1805_886,True,2019_Jun_12_1805,2IFC,3,RORE28,
2IFC,68,0,68,0,5,-1,correct answer,0.333959700074,True,False,stimulusRORE28_2IFC_2019_Jun_12_1805_887,stimulusRORE28_2IFC_2019_Jun_12_1805_888,True,2019_Jun_12_1805,2IFC,3,RORE28,
2IFC,69,0,69,0,1.4,-1,wrong answer,0.768237000098,False,True,stimulusRORE28_2IFC_2019_Jun_12_1805_889,stimulusRORE28_2IFC_2019_Jun_12_1805_890,True,2019_Jun_12_1805,2IFC,3,RORE28,
2IFC,70,0,70,0,6.6,-1,correct answer,0.833709199913,False,True,stimulusRORE28_2IFC_2019_Jun_12_1805_891,stimulusRORE28_2IFC_2019_Jun_12_1805_892,True,2019_Jun_12_1805,2IFC,3,RORE28,
2IFC,71,0,71,0,3,-1,correct answer,0.500484599965,True,False,stimulusRORE28_2IFC_2019_Jun_12_1805_893,stimulusRORE28_2IFC_2019_Jun_12_1805_894,True,2019_Jun_12_1805,2IFC,3,RORE28,
2IFC,72,0,72,0,6.6,-1,correct answer,0.499245000072,True,False,stimulusRORE28_2IFC_2019_Jun_12_1805_895,stimulusRORE28_2IFC_2019_Jun_12_1805_896,True,2019_Jun_12_1805,2IFC,3,RORE28,
2IFC,73,0,73,0,5,-1,correct answer,0.565710500116,True,False,stimulusRORE28_2IFC_2019_Jun_12_1805_897,stimulusRORE28_2IFC_2019_Jun_12_1805_898,True,2019_Jun_12_1805,2IFC,3,RORE28,
2IFC,74,0,74,0,5,-1,correct answer,0.432858499931,True,False,stimulusRORE28_2IFC_2019_Jun_12_1805_899,stimulusRORE28_2IFC_2019_Jun_12_1805_900,True,2019_Jun_12_1805,2IFC,3,RORE28,
2IFC,0,0,0,0,1.4,-1,wrong answer,0.633985600201,True,False,stimulusRORE28_2IFC_2019_Jun_12_1805_901,stimulusRORE28_2IFC_2019_Jun_12_1805_902,True,2019_Jun_12_1805,2IFC,3,RORE28,
2IFC,1,0,1,0,5.7,-1,wrong answer,0.568339900114,False,True,stimulusRORE28_2IFC_2019_Jun_12_1805_903,stimulusRORE28_2IFC_2019_Jun_12_1805_904,True,2019_Jun_12_1805,2IFC,3,RORE28,
2IFC,2,0,2,0,5,-1,correct answer,0.600494199898,False,True,stimulusRORE28_2IFC_2019_Jun_12_1805_905,stimulusRORE28_2IFC_2019_Jun_12_1805_906,True,2019_Jun_12_1805,2IFC,3,RORE28,
2IFC,3,0,3,0,4.4,-1,wrong answer,0.467148500029,False,True,stimulusRORE28_2IFC_2019_Jun_12_1805_907,stimulusRORE28_2IFC_2019_Jun_12_1805_908,True,2019_Jun_12_1805,2IFC,3,RORE28,
2IFC,4,0,4,0,4.4,-1,correct answer,0.43372940016,True,False,stimulusRORE28_2IFC_2019_Jun_12_1805_909,stimulusRORE28_2IFC_2019_Jun_12_1805_910,True,2019_Jun_12_1805,2IFC,3,RORE28,
2IFC,5,0,5,0,3.7,-1,correct answer,0.767725199927,False,True,stimulusRORE28_2IFC_2019_Jun_12_1805_911,stimulusRORE28_2IFC_2019_Jun_12_1805_912,True,2019_Jun_12_1805,2IFC,3,RORE28,
2IFC,6,0,6,0,6.6,-1,correct answer,0.333757899934,True,False,stimulusRORE28_2IFC_2019_Jun_12_1805_913,stimulusRORE28_2IFC_2019_Jun_12_1805_914,True,2019_Jun_12_1805,2IFC,3,RORE28,
2IFC,7,0,7,0,1.4,-1,wrong answer,0.466853199992,True,False,stimulusRORE28_2IFC_2019_Jun_12_1805_915,stimulusRORE28_2IFC_2019_Jun_12_1805_916,True,2019_Jun_12_1805,2IFC,3,RORE28,
2IFC,8,0,8,0,2.2,-1,correct answer,0.567309099948,True,False,stimulusRORE28_2IFC_2019_Jun_12_1805_917,stimulusRORE28_2IFC_2019_Jun_12_1805_918,True,2019_Jun_12_1805,2IFC,3,RORE28,
2IFC,9,0,9,0,2.2,-1,correct answer,0.600512600038,False,True,stimulusRORE28_2IFC_2019_Jun_12_1805_919,stimulusRORE28_2IFC_2019_Jun_12_1805_920,True,2019_Jun_12_1805,2IFC,3,RORE28,
2IFC,10,0,10,0,6.6,-1,correct answer,0.361969500082,True,False,stimulusRORE28_2IFC_2019_Jun_12_1805_921,stimulusRORE28_2IFC_2019_Jun_12_1805_922,True,2019_Jun_12_1805,2IFC,3,RORE28,
2IFC,11,0,11,0,6.6,-1,correct answer,0.333747500088,True,False,stimulusRORE28_2IFC_2019_Jun_12_1805_923,stimulusRORE28_2IFC_2019_Jun_12_1805_924,True,2019_Jun_12_1805,2IFC,3,RORE28,
2IFC,12,0,12,0,4.4,-1,correct answer,0.33406659984,True,False,stimulusRORE28_2IFC_2019_Jun_12_1805_925,stimulusRORE28_2IFC_2019_Jun_12_1805_926,True,2019_Jun_12_1805,2IFC,3,RORE28,
2IFC,13,0,13,0,6.6,-1,correct answer,0.500793700106,False,True,stimulusRORE28_2IFC_2019_Jun_12_1805_927,stimulusRORE28_2IFC_2019_Jun_12_1805_928,True,2019_Jun_12_1805,2IFC,3,RORE28,
2IFC,14,0,14,0,5,-1,correct answer,0.600722600007,False,True,stimulusRORE28_2IFC_2019_Jun_12_1805_929,stimulusRORE28_2IFC_2019_Jun_12_1805_930,True,2019_Jun_12_1805,2IFC,3,RORE28,
2IFC,15,0,15,0,5.7,-1,correct answer,0.23425139999,True,False,stimulusRORE28_2IFC_2019_Jun_12_1805_931,stimulusRORE28_2IFC_2019_Jun_12_1805_932,True,2019_Jun_12_1805,2IFC,3,RORE28,
2IFC,16,0,16,0,3.7,-1,correct answer,0.468782099895,False,True,stimulusRORE28_2IFC_2019_Jun_12_1805_933,stimulusRORE28_2IFC_2019_Jun_12_1805_934,True,2019_Jun_12_1805,2IFC,3,RORE28,
2IFC,17,0,17,0,2.2,-1,wrong answer,0.667709599948,True,False,stimulusRORE28_2IFC_2019_Jun_12_1805_935,stimulusRORE28_2IFC_2019_Jun_12_1805_936,True,2019_Jun_12_1805,2IFC,3,RORE28,
2IFC,18,0,18,0,5,-1,correct answer,0.331417400157,True,False,stimulusRORE28_2IFC_2019_Jun_12_1805_937,stimulusRORE28_2IFC_2019_Jun_12_1805_938,True,2019_Jun_12_1805,2IFC,3,RORE28,
2IFC,19,0,19,0,5.7,-1,correct answer,0.333774099825,True,False,stimulusRORE28_2IFC_2019_Jun_12_1805_939,stimulusRORE28_2IFC_2019_Jun_12_1805_940,True,2019_Jun_12_1805,2IFC,3,RORE28,
2IFC,20,0,20,0,6.6,-1,correct answer,0.334353199927,True,False,stimulusRORE28_2IFC_2019_Jun_12_1805_941,stimulusRORE28_2IFC_2019_Jun_12_1805_942,True,2019_Jun_12_1805,2IFC,3,RORE28,
2IFC,21,0,21,0,5.7,-1,correct answer,0.468044599984,False,True,stimulusRORE28_2IFC_2019_Jun_12_1805_943,stimulusRORE28_2IFC_2019_Jun_12_1805_944,True,2019_Jun_12_1805,2IFC,3,RORE28,
2IFC,22,0,22,0,2.2,-1,correct answer,0.500687899999,True,False,stimulusRORE28_2IFC_2019_Jun_12_1805_945,stimulusRORE28_2IFC_2019_Jun_12_1805_946,True,2019_Jun_12_1805,2IFC,3,RORE28,
2IFC,23,0,23,0,2.2,-1,correct answer,0.330751500092,True,False,stimulusRORE28_2IFC_2019_Jun_12_1805_947,stimulusRORE28_2IFC_2019_Jun_12_1805_948,True,2019_Jun_12_1805,2IFC,3,RORE28,
2IFC,24,0,24,0,5,-1,correct answer,0.400476800045,True,False,stimulusRORE28_2IFC_2019_Jun_12_1805_949,stimulusRORE28_2IFC_2019_Jun_12_1805_950,True,2019_Jun_12_1805,2IFC,3,RORE28,
2IFC,25,0,25,0,3.7,-1,correct answer,0.400578900008,False,True,stimulusRORE28_2IFC_2019_Jun_12_1805_951,stimulusRORE28_2IFC_2019_Jun_12_1805_952,True,2019_Jun_12_1805,2IFC,3,RORE28,
2IFC,26,0,26,0,3.7,-1,correct answer,0.500987699954,True,False,stimulusRORE28_2IFC_2019_Jun_12_1805_953,stimulusRORE28_2IFC_2019_Jun_12_1805_954,True,2019_Jun_12_1805,2IFC,3,RORE28,
2IFC,27,0,27,0,3.7,-1,correct answer,0.567110499833,False,True,stimulusRORE28_2IFC_2019_Jun_12_1805_955,stimulusRORE28_2IFC_2019_Jun_12_1805_956,True,2019_Jun_12_1805,2IFC,3,RORE28,
2IFC,28,0,28,0,1.4,-1,wrong answer,0.500429800013,False,True,stimulusRORE28_2IFC_2019_Jun_12_1805_957,stimulusRORE28_2IFC_2019_Jun_12_1805_958,True,2019_Jun_12_1805,2IFC,3,RORE28,
2IFC,29,0,29,0,3.7,-1,correct answer,0.700567499967,True,False,stimulusRORE28_2IFC_2019_Jun_12_1805_959,stimulusRORE28_2IFC_2019_Jun_12_1805_960,True,2019_Jun_12_1805,2IFC,3,RORE28,
2IFC,30,0,30,0,1.4,-1,wrong answer,0.700588899897,False,True,stimulusRORE28_2IFC_2019_Jun_12_1805_961,stimulusRORE28_2IFC_2019_Jun_12_1805_962,True,2019_Jun_12_1805,2IFC,3,RORE28,
2IFC,31,0,31,0,5,-1,correct answer,0.501102400012,True,False,stimulusRORE28_2IFC_2019_Jun_12_1805_963,stimulusRORE28_2IFC_2019_Jun_12_1805_964,True,2019_Jun_12_1805,2IFC,3,RORE28,
2IFC,32,0,32,0,5,-1,correct answer,0.600587900029,True,False,stimulusRORE28_2IFC_2019_Jun_12_1805_965,stimulusRORE28_2IFC_2019_Jun_12_1805_966,True,2019_Jun_12_1805,2IFC,3,RORE28,
2IFC,33,0,33,0,4.4,-1,correct answer,0.767444399884,True,False,stimulusRORE28_2IFC_2019_Jun_12_1805_967,stimulusRORE28_2IFC_2019_Jun_12_1805_968,True,2019_Jun_12_1805,2IFC,3,RORE28,
2IFC,34,0,34,0,2.2,-1,wrong answer,0.833669599844,False,True,stimulusRORE28_2IFC_2019_Jun_12_1805_969,stimulusRORE28_2IFC_2019_Jun_12_1805_970,True,2019_Jun_12_1805,2IFC,3,RORE28,
2IFC,35,0,35,0,2.2,-1,correct answer,0.633948400151,True,False,stimulusRORE28_2IFC_2019_Jun_12_1805_971,stimulusRORE28_2IFC_2019_Jun_12_1805_972,True,2019_Jun_12_1805,2IFC,3,RORE28,
2IFC,36,0,36,0,4.4,-1,correct answer,0.40114969993,True,False,stimulusRORE28_2IFC_2019_Jun_12_1805_973,stimulusRORE28_2IFC_2019_Jun_12_1805_974,True,2019_Jun_12_1805,2IFC,3,RORE28,
2IFC,37,0,37,0,3.7,-1,correct answer,0.567454700125,False,True,stimulusRORE28_2IFC_2019_Jun_12_1805_975,stimulusRORE28_2IFC_2019_Jun_12_1805_976,True,2019_Jun_12_1805,2IFC,3,RORE28,
2IFC,38,0,38,0,1.4,-1,wrong answer,0.366995600052,False,True,stimulusRORE28_2IFC_2019_Jun_12_1805_977,stimulusRORE28_2IFC_2019_Jun_12_1805_978,True,2019_Jun_12_1805,2IFC,3,RORE28,
2IFC,39,0,39,0,5.7,-1,correct answer,0.30098590022,True,False,stimulusRORE28_2IFC_2019_Jun_12_1805_979,stimulusRORE28_2IFC_2019_Jun_12_1805_980,True,2019_Jun_12_1805,2IFC,3,RORE28,
2IFC,40,0,40,0,1.4,-1,correct answer,0.467834499897,False,True,stimulusRORE28_2IFC_2019_Jun_12_1805_981,stimulusRORE28_2IFC_2019_Jun_12_1805_982,True,2019_Jun_12_1805,2IFC,3,RORE28,
2IFC,41,0,41,0,5.7,-1,wrong answer,0.400614800164,False,True,stimulusRORE28_2IFC_2019_Jun_12_1805_983,stimulusRORE28_2IFC_2019_Jun_12_1805_984,True,2019_Jun_12_1805,2IFC,3,RORE28,
2IFC,42,0,42,0,5.7,-1,wrong answer,0.601140700048,True,False,stimulusRORE28_2IFC_2019_Jun_12_1805_985,stimulusRORE28_2IFC_2019_Jun_12_1805_986,True,2019_Jun_12_1805,2IFC,3,RORE28,
2IFC,43,0,43,0,5.7,-1,correct answer,0.466486799996,True,False,stimulusRORE28_2IFC_2019_Jun_12_1805_987,stimulusRORE28_2IFC_2019_Jun_12_1805_988,True,2019_Jun_12_1805,2IFC,3,RORE28,
2IFC,44,0,44,0,1.4,-1,correct answer,0.700338100083,False,True,stimulusRORE28_2IFC_2019_Jun_12_1805_989,stimulusRORE28_2IFC_2019_Jun_12_1805_990,True,2019_Jun_12_1805,2IFC,3,RORE28,
2IFC,45,0,45,0,3,-1,correct answer,0.700882200152,False,True,stimulusRORE28_2IFC_2019_Jun_12_1805_991,stimulusRORE28_2IFC_2019_Jun_12_1805_992,True,2019_Jun_12_1805,2IFC,3,RORE28,
2IFC,46,0,46,0,5,-1,wrong answer,0.700357199879,False,True,stimulusRORE28_2IFC_2019_Jun_12_1805_993,stimulusRORE28_2IFC_2019_Jun_12_1805_994,True,2019_Jun_12_1805,2IFC,3,RORE28,
2IFC,47,0,47,0,4.4,-1,wrong answer,0.534337399993,True,False,stimulusRORE28_2IFC_2019_Jun_12_1805_995,stimulusRORE28_2IFC_2019_Jun_12_1805_996,True,2019_Jun_12_1805,2IFC,3,RORE28,
2IFC,48,0,48,0,5.7,-1,correct answer,0.767309199786,False,True,stimulusRORE28_2IFC_2019_Jun_12_1805_997,stimulusRORE28_2IFC_2019_Jun_12_1805_998,True,2019_Jun_12_1805,2IFC,3,RORE28,
2IFC,49,0,49,0,5,-1,correct answer,0.668713599909,False,True,stimulusRORE28_2IFC_2019_Jun_12_1805_999,stimulusRORE28_2IFC_2019_Jun_12_1805_1000,True,2019_Jun_12_1805,2IFC,3,RORE28,
2IFC,50,0,50,0,1.4,-1,wrong answer,0.567465199856,False,True,stimulusRORE28_2IFC_2019_Jun_12_1805_1001,stimulusRORE28_2IFC_2019_Jun_12_1805_1002,True,2019_Jun_12_1805,2IFC,3,RORE28,
2IFC,51,0,51,0,2.2,-1,correct answer,0.333978299983,False,True,stimulusRORE28_2IFC_2019_Jun_12_1805_1003,stimulusRORE28_2IFC_2019_Jun_12_1805_1004,True,2019_Jun_12_1805,2IFC,3,RORE28,
2IFC,52,0,52,0,5.7,-1,correct answer,0.66747980006,False,True,stimulusRORE28_2IFC_2019_Jun_12_1805_1005,stimulusRORE28_2IFC_2019_Jun_12_1805_1006,True,2019_Jun_12_1805,2IFC,3,RORE28,
2IFC,53,0,53,0,5,-1,wrong answer,0.632981800009,False,True,stimulusRORE28_2IFC_2019_Jun_12_1805_1007,stimulusRORE28_2IFC_2019_Jun_12_1805_1008,True,2019_Jun_12_1805,2IFC,3,RORE28,
2IFC,54,0,54,0,5.7,-1,correct answer,0.56692319992,False,True,stimulusRORE28_2IFC_2019_Jun_12_1805_1009,stimulusRORE28_2IFC_2019_Jun_12_1805_1010,True,2019_Jun_12_1805,2IFC,3,RORE28,
2IFC,55,0,55,0,3,-1,correct answer,0.533966700081,False,True,stimulusRORE28_2IFC_2019_Jun_12_1805_1011,stimulusRORE28_2IFC_2019_Jun_12_1805_1012,True,2019_Jun_12_1805,2IFC,3,RORE28,
2IFC,56,0,56,0,1.4,-1,correct answer,0.567322099814,True,False,stimulusRORE28_2IFC_2019_Jun_12_1805_1013,stimulusRORE28_2IFC_2019_Jun_12_1805_1014,True,2019_Jun_12_1805,2IFC,3,RORE28,
2IFC,57,0,57,0,1.4,-1,correct answer,0.367098700022,True,False,stimulusRORE28_2IFC_2019_Jun_12_1805_1015,stimulusRORE28_2IFC_2019_Jun_12_1805_1016,True,2019_Jun_12_1805,2IFC,3,RORE28,
2IFC,58,0,58,0,3.7,-1,correct answer,0.468096600147,False,True,stimulusRORE28_2IFC_2019_Jun_12_1805_1017,stimulusRORE28_2IFC_2019_Jun_12_1805_1018,True,2019_Jun_12_1805,2IFC,3,RORE28,
2IFC,59,0,59,0,2.2,-1,correct answer,0.433562099934,True,False,stimulusRORE28_2IFC_2019_Jun_12_1805_1019,stimulusRORE28_2IFC_2019_Jun_12_1805_1020,True,2019_Jun_12_1805,2IFC,3,RORE28,
2IFC,60,0,60,0,1.4,-1,correct answer,0.400192900095,False,True,stimulusRORE28_2IFC_2019_Jun_12_1805_1021,stimulusRORE28_2IFC_2019_Jun_12_1805_1022,True,2019_Jun_12_1805,2IFC,3,RORE28,
2IFC,61,0,61,0,5,-1,correct answer,0.333906400017,True,False,stimulusRORE28_2IFC_2019_Jun_12_1805_1023,stimulusRORE28_2IFC_2019_Jun_12_1805_1024,True,2019_Jun_12_1805,2IFC,3,RORE28,
2IFC,62,0,62,0,6.6,-1,correct answer,0.301063299878,True,False,stimulusRORE28_2IFC_2019_Jun_12_1805_1025,stimulusRORE28_2IFC_2019_Jun_12_1805_1026,True,2019_Jun_12_1805,2IFC,3,RORE28,
2IFC,63,0,63,0,5.7,-1,correct answer,0.434050999815,False,True,stimulusRORE28_2IFC_2019_Jun_12_1805_1027,stimulusRORE28_2IFC_2019_Jun_12_1805_1028,True,2019_Jun_12_1805,2IFC,3,RORE28,
2IFC,64,0,64,0,2.2,-1,wrong answer,0.634317599935,False,True,stimulusRORE28_2IFC_2019_Jun_12_1805_1029,stimulusRORE28_2IFC_2019_Jun_12_1805_1030,True,2019_Jun_12_1805,2IFC,3,RORE28,
2IFC,65,0,65,0,5,-1,correct answer,0.333565999987,True,False,stimulusRORE28_2IFC_2019_Jun_12_1805_1031,stimulusRORE28_2IFC_2019_Jun_12_1805_1032,True,2019_Jun_12_1805,2IFC,3,RORE28,
2IFC,66,0,66,0,2.2,-1,correct answer,0.535283300094,False,True,stimulusRORE28_2IFC_2019_Jun_12_1805_1033,stimulusRORE28_2IFC_2019_Jun_12_1805_1034,True,2019_Jun_12_1805,2IFC,3,RORE28,
2IFC,67,0,67,0,5.7,-1,correct answer,0.500523399794,True,False,stimulusRORE28_2IFC_2019_Jun_12_1805_1035,stimulusRORE28_2IFC_2019_Jun_12_1805_1036,True,2019_Jun_12_1805,2IFC,3,RORE28,
2IFC,68,0,68,0,3.7,-1,correct answer,0.500519900117,False,True,stimulusRORE28_2IFC_2019_Jun_12_1805_1037,stimulusRORE28_2IFC_2019_Jun_12_1805_1038,True,2019_Jun_12_1805,2IFC,3,RORE28,
2IFC,69,0,69,0,6.6,-1,wrong answer,0.500636700075,False,True,stimulusRORE28_2IFC_2019_Jun_12_1805_1039,stimulusRORE28_2IFC_2019_Jun_12_1805_1040,True,2019_Jun_12_1805,2IFC,3,RORE28,
2IFC,70,0,70,0,1.4,-1,no answer,-1,True,False,stimulusRORE28_2IFC_2019_Jun_12_1805_1041,stimulusRORE28_2IFC_2019_Jun_12_1805_1042,True,2019_Jun_12_1805,2IFC,3,RORE28,
2IFC,71,0,71,0,6.6,-1,no answer,-1,True,False,stimulusRORE28_2IFC_2019_Jun_12_1805_1043,stimulusRORE28_2IFC_2019_Jun_12_1805_1044,True,2019_Jun_12_1805,2IFC,3,RORE28,
2IFC,72,0,72,0,5,-1,correct answer,0.400825300021,True,False,stimulusRORE28_2IFC_2019_Jun_12_1805_1045,stimulusRORE28_2IFC_2019_Jun_12_1805_1046,True,2019_Jun_12_1805,2IFC,3,RORE28,
2IFC,73,0,73,0,3,-1,correct answer,0.634310699999,False,True,stimulusRORE28_2IFC_2019_Jun_12_1805_1047,stimulusRORE28_2IFC_2019_Jun_12_1805_1048,True,2019_Jun_12_1805,2IFC,3,RORE28,
2IFC,74,0,74,0,5,-1,correct answer,0.534383600112,True,False,stimulusRORE28_2IFC_2019_Jun_12_1805_1049,stimulusRORE28_2IFC_2019_Jun_12_1805_1050,True,2019_Jun_12_1805,2IFC,3,RORE28,
2IFC,0,0,0,0,6.6,-1,correct answer,0.500315900194,True,False,stimulusRORE28_2IFC_2019_Jun_12_1805_1051,stimulusRORE28_2IFC_2019_Jun_12_1805_1052,True,2019_Jun_12_1805,2IFC,3,RORE28,
2IFC,1,0,1,0,3.7,-1,correct answer,0.600742799928,True,False,stimulusRORE28_2IFC_2019_Jun_12_1805_1053,stimulusRORE28_2IFC_2019_Jun_12_1805_1054,True,2019_Jun_12_1805,2IFC,3,RORE28,
2IFC,2,0,2,0,5,-1,correct answer,0.533165599918,False,True,stimulusRORE28_2IFC_2019_Jun_12_1805_1055,stimulusRORE28_2IFC_2019_Jun_12_1805_1056,True,2019_Jun_12_1805,2IFC,3,RORE28,
2IFC,3,0,3,0,4.4,-1,correct answer,0.368096099934,True,False,stimulusRORE28_2IFC_2019_Jun_12_1805_1057,stimulusRORE28_2IFC_2019_Jun_12_1805_1058,True,2019_Jun_12_1805,2IFC,3,RORE28,
2IFC,4,0,4,0,6.6,-1,correct answer,0.233710800065,True,False,stimulusRORE28_2IFC_2019_Jun_12_1805_1059,stimulusRORE28_2IFC_2019_Jun_12_1805_1060,True,2019_Jun_12_1805,2IFC,3,RORE28,
2IFC,5,0,5,0,1.4,-1,correct answer,0.633861899842,False,True,stimulusRORE28_2IFC_2019_Jun_12_1805_1061,stimulusRORE28_2IFC_2019_Jun_12_1805_1062,True,2019_Jun_12_1805,2IFC,3,RORE28,
2IFC,6,0,6,0,5,-1,correct answer,0.433727400145,True,False,stimulusRORE28_2IFC_2019_Jun_12_1805_1063,stimulusRORE28_2IFC_2019_Jun_12_1805_1064,True,2019_Jun_12_1805,2IFC,3,RORE28,
2IFC,7,0,7,0,3,-1,correct answer,0.800808800152,True,False,stimulusRORE28_2IFC_2019_Jun_12_1805_1065,stimulusRORE28_2IFC_2019_Jun_12_1805_1066,True,2019_Jun_12_1805,2IFC,3,RORE28,
2IFC,8,0,8,0,3.7,-1,correct answer,0.334319700021,True,False,stimulusRORE28_2IFC_2019_Jun_12_1805_1067,stimulusRORE28_2IFC_2019_Jun_12_1805_1068,True,2019_Jun_12_1805,2IFC,3,RORE28,
2IFC,9,0,9,0,3.7,-1,wrong answer,0.533824500162,True,False,stimulusRORE28_2IFC_2019_Jun_12_1805_1069,stimulusRORE28_2IFC_2019_Jun_12_1805_1070,True,2019_Jun_12_1805,2IFC,3,RORE28,
2IFC,10,0,10,0,3.7,-1,correct answer,0.500497800065,True,False,stimulusRORE28_2IFC_2019_Jun_12_1805_1071,stimulusRORE28_2IFC_2019_Jun_12_1805_1072,True,2019_Jun_12_1805,2IFC,3,RORE28,
2IFC,11,0,11,0,4.4,-1,correct answer,0.802607999882,False,True,stimulusRORE28_2IFC_2019_Jun_12_1805_1073,stimulusRORE28_2IFC_2019_Jun_12_1805_1074,True,2019_Jun_12_1805,2IFC,3,RORE28,
2IFC,12,0,12,0,6.6,-1,correct answer,0.534098700155,False,True,stimulusRORE28_2IFC_2019_Jun_12_1805_1075,stimulusRORE28_2IFC_2019_Jun_12_1805_1076,True,2019_Jun_12_1805,2IFC,3,RORE28,
2IFC,13,0,13,0,3,-1,wrong answer,0.334067000076,False,True,stimulusRORE28_2IFC_2019_Jun_12_1805_1077,stimulusRORE28_2IFC_2019_Jun_12_1805_1078,True,2019_Jun_12_1805,2IFC,3,RORE28,
2IFC,14,0,14,0,4.4,-1,correct answer,0.766868499806,False,True,stimulusRORE28_2IFC_2019_Jun_12_1805_1079,stimulusRORE28_2IFC_2019_Jun_12_1805_1080,True,2019_Jun_12_1805,2IFC,3,RORE28,
2IFC,15,0,15,0,2.2,-1,wrong answer,0.667785300175,False,True,stimulusRORE28_2IFC_2019_Jun_12_1805_1081,stimulusRORE28_2IFC_2019_Jun_12_1805_1082,True,2019_Jun_12_1805,2IFC,3,RORE28,
2IFC,16,0,16,0,1.4,-1,correct answer,0.633987300098,True,False,stimulusRORE28_2IFC_2019_Jun_12_1805_1083,stimulusRORE28_2IFC_2019_Jun_12_1805_1084,True,2019_Jun_12_1805,2IFC,3,RORE28,
2IFC,17,0,17,0,3,-1,correct answer,0.668491800083,True,False,stimulusRORE28_2IFC_2019_Jun_12_1805_1085,stimulusRORE28_2IFC_2019_Jun_12_1805_1086,True,2019_Jun_12_1805,2IFC,3,RORE28,
2IFC,18,0,18,0,3,-1,wrong answer,0.534068200039,True,False,stimulusRORE28_2IFC_2019_Jun_12_1805_1087,stimulusRORE28_2IFC_2019_Jun_12_1805_1088,True,2019_Jun_12_1805,2IFC,3,RORE28,
2IFC,19,0,19,0,5.7,-1,no answer,-1,True,False,stimulusRORE28_2IFC_2019_Jun_12_1805_1089,stimulusRORE28_2IFC_2019_Jun_12_1805_1090,True,2019_Jun_12_1805,2IFC,3,RORE28,
2IFC,20,0,20,0,5.7,-1,correct answer,0.334298199974,True,False,stimulusRORE28_2IFC_2019_Jun_12_1805_1091,stimulusRORE28_2IFC_2019_Jun_12_1805_1092,True,2019_Jun_12_1805,2IFC,3,RORE28,
2IFC,21,0,21,0,5,-1,correct answer,0.53389439988,True,False,stimulusRORE28_2IFC_2019_Jun_12_1805_1093,stimulusRORE28_2IFC_2019_Jun_12_1805_1094,True,2019_Jun_12_1805,2IFC,3,RORE28,
2IFC,22,0,22,0,3,-1,correct answer,0.600665699923,False,True,stimulusRORE28_2IFC_2019_Jun_12_1805_1095,stimulusRORE28_2IFC_2019_Jun_12_1805_1096,True,2019_Jun_12_1805,2IFC,3,RORE28,
2IFC,23,0,23,0,1.4,-1,correct answer,0.733973300084,False,True,stimulusRORE28_2IFC_2019_Jun_12_1805_1097,stimulusRORE28_2IFC_2019_Jun_12_1805_1098,True,2019_Jun_12_1805,2IFC,3,RORE28,
2IFC,24,0,24,0,4.4,-1,no answer,-1,False,True,stimulusRORE28_2IFC_2019_Jun_12_1805_1099,stimulusRORE28_2IFC_2019_Jun_12_1805_1100,True,2019_Jun_12_1805,2IFC,3,RORE28,
2IFC,25,0,25,0,3.7,-1,wrong answer,0.46687520016,True,False,stimulusRORE28_2IFC_2019_Jun_12_1805_1101,stimulusRORE28_2IFC_2019_Jun_12_1805_1102,True,2019_Jun_12_1805,2IFC,3,RORE28,
2IFC,26,0,26,0,3,-1,correct answer,0.300240000011,True,False,stimulusRORE28_2IFC_2019_Jun_12_1805_1103,stimulusRORE28_2IFC_2019_Jun_12_1805_1104,True,2019_Jun_12_1805,2IFC,3,RORE28,
2IFC,27,0,27,0,5.7,-1,correct answer,0.601289199898,False,True,stimulusRORE28_2IFC_2019_Jun_12_1805_1105,stimulusRORE28_2IFC_2019_Jun_12_1805_1106,True,2019_Jun_12_1805,2IFC,3,RORE28,
2IFC,28,0,28,0,4.4,-1,correct answer,0.634320500074,True,False,stimulusRORE28_2IFC_2019_Jun_12_1805_1107,stimulusRORE28_2IFC_2019_Jun_12_1805_1108,True,2019_Jun_12_1805,2IFC,3,RORE28,
