Task,trials.thisRepN,trials.thisTrialN,trials.thisN,trials.thisIndex,signal_intensity,constant Value,response,time_response,signal_on_stimuluspos1,signal_on_stimuluspos2,stimulus_name_pos1,stimulus_name_pos2,random_intensity,date,expName,session,participant,
Yes-No Task,0,0,0,0,5,-1,False Alarm,0.500700199977,False,-1,stimulus_RORE28_Yes-No Task_2019_Jun_12_1749_1,-1,True,2019_Jun_12_1749,Yes-No Task,3,RORE28,
Yes-No Task,1,0,1,0,5,-1,Correct Rejection,0.634004899999,False,-1,stimulus_RORE28_Yes-No Task_2019_Jun_12_1749_2,-1,True,2019_Jun_12_1749,Yes-No Task,3,RORE28,
Yes-No Task,2,0,2,0,4.4,-1,Miss,0.500932299998,True,-1,stimulus_RORE28_Yes-No Task_2019_Jun_12_1749_3,-1,True,2019_Jun_12_1749,Yes-No Task,3,RORE28,
Yes-No Task,3,0,3,0,3,-1,Hit,0.667623999994,True,-1,stimulus_RORE28_Yes-No Task_2019_Jun_12_1749_4,-1,True,2019_Jun_12_1749,Yes-No Task,3,RORE28,
Yes-No Task,4,0,4,0,3,-1,Correct Rejection,0.702206100104,False,-1,stimulus_RORE28_Yes-No Task_2019_Jun_12_1749_5,-1,True,2019_Jun_12_1749,Yes-No Task,3,RORE28,
Yes-No Task,5,0,5,0,2.2,-1,No Answer,-1,False,-1,stimulus_RORE28_Yes-No Task_2019_Jun_12_1749_6,-1,True,2019_Jun_12_1749,Yes-No Task,3,RORE28,
Yes-No Task,6,0,6,0,5,-1,Hit,0.601092199795,True,-1,stimulus_RORE28_Yes-No Task_2019_Jun_12_1749_7,-1,True,2019_Jun_12_1749,Yes-No Task,3,RORE28,
Yes-No Task,7,0,7,0,3,-1,Correct Rejection,0.733887800016,False,-1,stimulus_RORE28_Yes-No Task_2019_Jun_12_1749_8,-1,True,2019_Jun_12_1749,Yes-No Task,3,RORE28,
Yes-No Task,8,0,8,0,3,-1,Miss,0.666536099976,True,-1,stimulus_RORE28_Yes-No Task_2019_Jun_12_1749_9,-1,True,2019_Jun_12_1749,Yes-No Task,3,RORE28,
Yes-No Task,9,0,9,0,5,-1,Correct Rejection,0.702528099995,False,-1,stimulus_RORE28_Yes-No Task_2019_Jun_12_1749_10,-1,True,2019_Jun_12_1749,Yes-No Task,3,RORE28,
Yes-No Task,10,0,10,0,3,-1,Hit,0.53363449988,True,-1,stimulus_RORE28_Yes-No Task_2019_Jun_12_1749_11,-1,True,2019_Jun_12_1749,Yes-No Task,3,RORE28,
Yes-No Task,11,0,11,0,6.6,-1,Correct Rejection,0.600124999881,False,-1,stimulus_RORE28_Yes-No Task_2019_Jun_12_1749_12,-1,True,2019_Jun_12_1749,Yes-No Task,3,RORE28,
Yes-No Task,12,0,12,0,2.2,-1,Correct Rejection,0.566156100016,False,-1,stimulus_RORE28_Yes-No Task_2019_Jun_12_1749_13,-1,True,2019_Jun_12_1749,Yes-No Task,3,RORE28,
Yes-No Task,13,0,13,0,1.4,-1,Hit,0.566903900122,True,-1,stimulus_RORE28_Yes-No Task_2019_Jun_12_1749_14,-1,True,2019_Jun_12_1749,Yes-No Task,3,RORE28,
Yes-No Task,14,0,14,0,3,-1,Hit,0.500924800057,True,-1,stimulus_RORE28_Yes-No Task_2019_Jun_12_1749_15,-1,True,2019_Jun_12_1749,Yes-No Task,3,RORE28,
Yes-No Task,15,0,15,0,2.2,-1,Miss,0.535394199891,True,-1,stimulus_RORE28_Yes-No Task_2019_Jun_12_1749_16,-1,True,2019_Jun_12_1749,Yes-No Task,3,RORE28,
Yes-No Task,16,0,16,0,6.6,-1,Correct Rejection,0.566271000076,False,-1,stimulus_RORE28_Yes-No Task_2019_Jun_12_1749_17,-1,True,2019_Jun_12_1749,Yes-No Task,3,RORE28,
Yes-No Task,17,0,17,0,5.7,-1,Hit,0.502816700144,True,-1,stimulus_RORE28_Yes-No Task_2019_Jun_12_1749_18,-1,True,2019_Jun_12_1749,Yes-No Task,3,RORE28,
Yes-No Task,18,0,18,0,5,-1,False Alarm,0.465517000062,False,-1,stimulus_RORE28_Yes-No Task_2019_Jun_12_1749_19,-1,True,2019_Jun_12_1749,Yes-No Task,3,RORE28,
Yes-No Task,19,0,19,0,3.7,-1,Correct Rejection,0.568509800127,False,-1,stimulus_RORE28_Yes-No Task_2019_Jun_12_1749_20,-1,True,2019_Jun_12_1749,Yes-No Task,3,RORE28,
Yes-No Task,20,0,20,0,2.2,-1,Hit,0.73446019995,True,-1,stimulus_RORE28_Yes-No Task_2019_Jun_12_1749_21,-1,True,2019_Jun_12_1749,Yes-No Task,3,RORE28,
Yes-No Task,21,0,21,0,6.6,-1,Hit,0.500804399839,True,-1,stimulus_RORE28_Yes-No Task_2019_Jun_12_1749_22,-1,True,2019_Jun_12_1749,Yes-No Task,3,RORE28,
Yes-No Task,22,0,22,0,5,-1,Miss,0.700879600132,True,-1,stimulus_RORE28_Yes-No Task_2019_Jun_12_1749_23,-1,True,2019_Jun_12_1749,Yes-No Task,3,RORE28,
Yes-No Task,23,0,23,0,6.6,-1,Hit,0.49890580005,True,-1,stimulus_RORE28_Yes-No Task_2019_Jun_12_1749_24,-1,True,2019_Jun_12_1749,Yes-No Task,3,RORE28,
Yes-No Task,24,0,24,0,3,-1,Correct Rejection,0.801204900024,False,-1,stimulus_RORE28_Yes-No Task_2019_Jun_12_1749_25,-1,True,2019_Jun_12_1749,Yes-No Task,3,RORE28,
Yes-No Task,25,0,25,0,4.4,-1,Correct Rejection,0.633943099994,False,-1,stimulus_RORE28_Yes-No Task_2019_Jun_12_1749_26,-1,True,2019_Jun_12_1749,Yes-No Task,3,RORE28,
Yes-No Task,26,0,26,0,4.4,-1,Correct Rejection,0.567437200109,False,-1,stimulus_RORE28_Yes-No Task_2019_Jun_12_1749_27,-1,True,2019_Jun_12_1749,Yes-No Task,3,RORE28,
Yes-No Task,27,0,27,0,1.4,-1,Correct Rejection,0.701628800016,False,-1,stimulus_RORE28_Yes-No Task_2019_Jun_12_1749_28,-1,True,2019_Jun_12_1749,Yes-No Task,3,RORE28,
Yes-No Task,28,0,28,0,5,-1,Correct Rejection,0.599646500079,False,-1,stimulus_RORE28_Yes-No Task_2019_Jun_12_1749_29,-1,True,2019_Jun_12_1749,Yes-No Task,3,RORE28,
Yes-No Task,29,0,29,0,2.2,-1,Hit,0.534076999873,True,-1,stimulus_RORE28_Yes-No Task_2019_Jun_12_1749_30,-1,True,2019_Jun_12_1749,Yes-No Task,3,RORE28,
Yes-No Task,30,0,30,0,5.7,-1,Correct Rejection,0.532727400074,False,-1,stimulus_RORE28_Yes-No Task_2019_Jun_12_1749_31,-1,True,2019_Jun_12_1749,Yes-No Task,3,RORE28,
Yes-No Task,31,0,31,0,6.6,-1,False Alarm,0.669237800175,False,-1,stimulus_RORE28_Yes-No Task_2019_Jun_12_1749_32,-1,True,2019_Jun_12_1749,Yes-No Task,3,RORE28,
Yes-No Task,32,0,32,0,3,-1,False Alarm,0.567404000089,False,-1,stimulus_RORE28_Yes-No Task_2019_Jun_12_1749_33,-1,True,2019_Jun_12_1749,Yes-No Task,3,RORE28,
Yes-No Task,33,0,33,0,3,-1,Correct Rejection,0.599630300188,False,-1,stimulus_RORE28_Yes-No Task_2019_Jun_12_1749_34,-1,True,2019_Jun_12_1749,Yes-No Task,3,RORE28,
Yes-No Task,34,0,34,0,6.6,-1,Correct Rejection,0.500272399979,False,-1,stimulus_RORE28_Yes-No Task_2019_Jun_12_1749_35,-1,True,2019_Jun_12_1749,Yes-No Task,3,RORE28,
Yes-No Task,35,0,35,0,5,-1,Hit,0.533912000014,True,-1,stimulus_RORE28_Yes-No Task_2019_Jun_12_1749_36,-1,True,2019_Jun_12_1749,Yes-No Task,3,RORE28,
Yes-No Task,36,0,36,0,3,-1,False Alarm,0.53429549979,False,-1,stimulus_RORE28_Yes-No Task_2019_Jun_12_1749_37,-1,True,2019_Jun_12_1749,Yes-No Task,3,RORE28,
Yes-No Task,37,0,37,0,5,-1,Correct Rejection,0.467564800056,False,-1,stimulus_RORE28_Yes-No Task_2019_Jun_12_1749_38,-1,True,2019_Jun_12_1749,Yes-No Task,3,RORE28,
Yes-No Task,38,0,38,0,3.7,-1,Hit,0.633882900001,True,-1,stimulus_RORE28_Yes-No Task_2019_Jun_12_1749_39,-1,True,2019_Jun_12_1749,Yes-No Task,3,RORE28,
Yes-No Task,39,0,39,0,3.7,-1,False Alarm,0.599938399857,False,-1,stimulus_RORE28_Yes-No Task_2019_Jun_12_1749_40,-1,True,2019_Jun_12_1749,Yes-No Task,3,RORE28,
Yes-No Task,40,0,40,0,6.6,-1,Hit,0.533254000125,True,-1,stimulus_RORE28_Yes-No Task_2019_Jun_12_1749_41,-1,True,2019_Jun_12_1749,Yes-No Task,3,RORE28,
Yes-No Task,41,0,41,0,5,-1,Correct Rejection,0.568016100209,False,-1,stimulus_RORE28_Yes-No Task_2019_Jun_12_1749_42,-1,True,2019_Jun_12_1749,Yes-No Task,3,RORE28,
Yes-No Task,42,0,42,0,3,-1,False Alarm,0.500830100151,False,-1,stimulus_RORE28_Yes-No Task_2019_Jun_12_1749_43,-1,True,2019_Jun_12_1749,Yes-No Task,3,RORE28,
Yes-No Task,43,0,43,0,3.7,-1,Miss,0.565820900025,True,-1,stimulus_RORE28_Yes-No Task_2019_Jun_12_1749_44,-1,True,2019_Jun_12_1749,Yes-No Task,3,RORE28,
Yes-No Task,44,0,44,0,5.7,-1,Correct Rejection,0.500549399992,False,-1,stimulus_RORE28_Yes-No Task_2019_Jun_12_1749_45,-1,True,2019_Jun_12_1749,Yes-No Task,3,RORE28,
Yes-No Task,45,0,45,0,6.6,-1,Correct Rejection,0.533809899818,False,-1,stimulus_RORE28_Yes-No Task_2019_Jun_12_1749_46,-1,True,2019_Jun_12_1749,Yes-No Task,3,RORE28,
Yes-No Task,46,0,46,0,2.2,-1,Hit,0.533919100184,True,-1,stimulus_RORE28_Yes-No Task_2019_Jun_12_1749_47,-1,True,2019_Jun_12_1749,Yes-No Task,3,RORE28,
Yes-No Task,47,0,47,0,5.7,-1,Hit,0.600334200077,True,-1,stimulus_RORE28_Yes-No Task_2019_Jun_12_1749_48,-1,True,2019_Jun_12_1749,Yes-No Task,3,RORE28,
Yes-No Task,48,0,48,0,2.2,-1,Miss,0.634101300035,True,-1,stimulus_RORE28_Yes-No Task_2019_Jun_12_1749_49,-1,True,2019_Jun_12_1749,Yes-No Task,3,RORE28,
Yes-No Task,49,0,49,0,4.4,-1,Correct Rejection,0.53243910009,False,-1,stimulus_RORE28_Yes-No Task_2019_Jun_12_1749_50,-1,True,2019_Jun_12_1749,Yes-No Task,3,RORE28,
Yes-No Task,50,0,50,0,4.4,-1,Hit,0.634086599806,True,-1,stimulus_RORE28_Yes-No Task_2019_Jun_12_1749_51,-1,True,2019_Jun_12_1749,Yes-No Task,3,RORE28,
Yes-No Task,51,0,51,0,5,-1,Hit,0.468408699846,True,-1,stimulus_RORE28_Yes-No Task_2019_Jun_12_1749_52,-1,True,2019_Jun_12_1749,Yes-No Task,3,RORE28,
Yes-No Task,52,0,52,0,1.4,-1,Hit,0.533988000127,True,-1,stimulus_RORE28_Yes-No Task_2019_Jun_12_1749_53,-1,True,2019_Jun_12_1749,Yes-No Task,3,RORE28,
Yes-No Task,53,0,53,0,2.2,-1,Hit,0.466676999815,True,-1,stimulus_RORE28_Yes-No Task_2019_Jun_12_1749_54,-1,True,2019_Jun_12_1749,Yes-No Task,3,RORE28,
Yes-No Task,54,0,54,0,1.4,-1,False Alarm,0.43384730001,False,-1,stimulus_RORE28_Yes-No Task_2019_Jun_12_1749_55,-1,True,2019_Jun_12_1749,Yes-No Task,3,RORE28,
Yes-No Task,55,0,55,0,3.7,-1,Hit,0.534663899802,True,-1,stimulus_RORE28_Yes-No Task_2019_Jun_12_1749_56,-1,True,2019_Jun_12_1749,Yes-No Task,3,RORE28,
Yes-No Task,56,0,56,0,3.7,-1,Correct Rejection,0.600545299938,False,-1,stimulus_RORE28_Yes-No Task_2019_Jun_12_1749_57,-1,True,2019_Jun_12_1749,Yes-No Task,3,RORE28,
Yes-No Task,57,0,57,0,5,-1,Correct Rejection,0.533911400009,False,-1,stimulus_RORE28_Yes-No Task_2019_Jun_12_1749_58,-1,True,2019_Jun_12_1749,Yes-No Task,3,RORE28,
Yes-No Task,58,0,58,0,3,-1,Miss,0.568126800004,True,-1,stimulus_RORE28_Yes-No Task_2019_Jun_12_1749_59,-1,True,2019_Jun_12_1749,Yes-No Task,3,RORE28,
Yes-No Task,59,0,59,0,2.2,-1,Hit,0.601222699974,True,-1,stimulus_RORE28_Yes-No Task_2019_Jun_12_1749_60,-1,True,2019_Jun_12_1749,Yes-No Task,3,RORE28,
Yes-No Task,60,0,60,0,4.4,-1,Correct Rejection,0.601534999907,False,-1,stimulus_RORE28_Yes-No Task_2019_Jun_12_1749_61,-1,True,2019_Jun_12_1749,Yes-No Task,3,RORE28,
Yes-No Task,61,0,61,0,5,-1,Hit,0.468788999831,True,-1,stimulus_RORE28_Yes-No Task_2019_Jun_12_1749_62,-1,True,2019_Jun_12_1749,Yes-No Task,3,RORE28,
Yes-No Task,62,0,62,0,2.2,-1,Miss,0.531027899822,True,-1,stimulus_RORE28_Yes-No Task_2019_Jun_12_1749_63,-1,True,2019_Jun_12_1749,Yes-No Task,3,RORE28,
Yes-No Task,63,0,63,0,1.4,-1,Hit,0.467743000016,True,-1,stimulus_RORE28_Yes-No Task_2019_Jun_12_1749_64,-1,True,2019_Jun_12_1749,Yes-No Task,3,RORE28,
Yes-No Task,64,0,64,0,5,-1,False Alarm,0.435153099941,False,-1,stimulus_RORE28_Yes-No Task_2019_Jun_12_1749_65,-1,True,2019_Jun_12_1749,Yes-No Task,3,RORE28,
Yes-No Task,65,0,65,0,4.4,-1,Miss,0.6005535,True,-1,stimulus_RORE28_Yes-No Task_2019_Jun_12_1749_66,-1,True,2019_Jun_12_1749,Yes-No Task,3,RORE28,
Yes-No Task,66,0,66,0,3.7,-1,Correct Rejection,0.433264099993,False,-1,stimulus_RORE28_Yes-No Task_2019_Jun_12_1749_67,-1,True,2019_Jun_12_1749,Yes-No Task,3,RORE28,
Yes-No Task,67,0,67,0,3.7,-1,Hit,0.600311700022,True,-1,stimulus_RORE28_Yes-No Task_2019_Jun_12_1749_68,-1,True,2019_Jun_12_1749,Yes-No Task,3,RORE28,
Yes-No Task,68,0,68,0,4.4,-1,Hit,0.500671999995,True,-1,stimulus_RORE28_Yes-No Task_2019_Jun_12_1749_69,-1,True,2019_Jun_12_1749,Yes-No Task,3,RORE28,
Yes-No Task,69,0,69,0,3,-1,Hit,0.566748199984,True,-1,stimulus_RORE28_Yes-No Task_2019_Jun_12_1749_70,-1,True,2019_Jun_12_1749,Yes-No Task,3,RORE28,
Yes-No Task,70,0,70,0,3,-1,Correct Rejection,0.833837300073,False,-1,stimulus_RORE28_Yes-No Task_2019_Jun_12_1749_71,-1,True,2019_Jun_12_1749,Yes-No Task,3,RORE28,
Yes-No Task,71,0,71,0,2.2,-1,Hit,0.500436999835,True,-1,stimulus_RORE28_Yes-No Task_2019_Jun_12_1749_72,-1,True,2019_Jun_12_1749,Yes-No Task,3,RORE28,
Yes-No Task,72,0,72,0,5,-1,Hit,0.56738020014,True,-1,stimulus_RORE28_Yes-No Task_2019_Jun_12_1749_73,-1,True,2019_Jun_12_1749,Yes-No Task,3,RORE28,
Yes-No Task,73,0,73,0,3,-1,Correct Rejection,0.535128000192,False,-1,stimulus_RORE28_Yes-No Task_2019_Jun_12_1749_74,-1,True,2019_Jun_12_1749,Yes-No Task,3,RORE28,
Yes-No Task,74,0,74,0,1.4,-1,Hit,0.532636899967,True,-1,stimulus_RORE28_Yes-No Task_2019_Jun_12_1749_75,-1,True,2019_Jun_12_1749,Yes-No Task,3,RORE28,
Yes-No Task,0,0,0,0,3,-1,False Alarm,0.46709969989,False,-1,stimulus_RORE28_Yes-No Task_2019_Jun_12_1749_76,-1,True,2019_Jun_12_1749,Yes-No Task,3,RORE28,
Yes-No Task,1,0,1,0,4.4,-1,Hit,0.56743029994,True,-1,stimulus_RORE28_Yes-No Task_2019_Jun_12_1749_77,-1,True,2019_Jun_12_1749,Yes-No Task,3,RORE28,
Yes-No Task,2,0,2,0,3.7,-1,Miss,0.432569999946,True,-1,stimulus_RORE28_Yes-No Task_2019_Jun_12_1749_78,-1,True,2019_Jun_12_1749,Yes-No Task,3,RORE28,
Yes-No Task,3,0,3,0,1.4,-1,False Alarm,0.567413100041,False,-1,stimulus_RORE28_Yes-No Task_2019_Jun_12_1749_79,-1,True,2019_Jun_12_1749,Yes-No Task,3,RORE28,
Yes-No Task,4,0,4,0,6.6,-1,Correct Rejection,0.500667899847,False,-1,stimulus_RORE28_Yes-No Task_2019_Jun_12_1749_80,-1,True,2019_Jun_12_1749,Yes-No Task,3,RORE28,
Yes-No Task,5,0,5,0,6.6,-1,Correct Rejection,0.399752500001,False,-1,stimulus_RORE28_Yes-No Task_2019_Jun_12_1749_81,-1,True,2019_Jun_12_1749,Yes-No Task,3,RORE28,
Yes-No Task,6,0,6,0,6.6,-1,Correct Rejection,0.501566400053,False,-1,stimulus_RORE28_Yes-No Task_2019_Jun_12_1749_82,-1,True,2019_Jun_12_1749,Yes-No Task,3,RORE28,
Yes-No Task,7,0,7,0,3.7,-1,False Alarm,0.533914499916,False,-1,stimulus_RORE28_Yes-No Task_2019_Jun_12_1749_83,-1,True,2019_Jun_12_1749,Yes-No Task,3,RORE28,
Yes-No Task,8,0,8,0,3,-1,Correct Rejection,0.568085999927,False,-1,stimulus_RORE28_Yes-No Task_2019_Jun_12_1749_84,-1,True,2019_Jun_12_1749,Yes-No Task,3,RORE28,
Yes-No Task,9,0,9,0,3.7,-1,False Alarm,0.568423199933,False,-1,stimulus_RORE28_Yes-No Task_2019_Jun_12_1749_85,-1,True,2019_Jun_12_1749,Yes-No Task,3,RORE28,
Yes-No Task,10,0,10,0,5,-1,False Alarm,0.633949500043,False,-1,stimulus_RORE28_Yes-No Task_2019_Jun_12_1749_86,-1,True,2019_Jun_12_1749,Yes-No Task,3,RORE28,
Yes-No Task,11,0,11,0,5,-1,Miss,0.601285899989,True,-1,stimulus_RORE28_Yes-No Task_2019_Jun_12_1749_87,-1,True,2019_Jun_12_1749,Yes-No Task,3,RORE28,
Yes-No Task,12,0,12,0,4.4,-1,False Alarm,0.600600299891,False,-1,stimulus_RORE28_Yes-No Task_2019_Jun_12_1749_88,-1,True,2019_Jun_12_1749,Yes-No Task,3,RORE28,
Yes-No Task,13,0,13,0,3,-1,Miss,0.766781700077,True,-1,stimulus_RORE28_Yes-No Task_2019_Jun_12_1749_89,-1,True,2019_Jun_12_1749,Yes-No Task,3,RORE28,
Yes-No Task,14,0,14,0,3.7,-1,No Answer,-1,True,-1,stimulus_RORE28_Yes-No Task_2019_Jun_12_1749_90,-1,True,2019_Jun_12_1749,Yes-No Task,3,RORE28,
Yes-No Task,15,0,15,0,3,-1,Correct Rejection,0.599393799901,False,-1,stimulus_RORE28_Yes-No Task_2019_Jun_12_1749_91,-1,True,2019_Jun_12_1749,Yes-No Task,3,RORE28,
Yes-No Task,16,0,16,0,5.7,-1,Hit,0.667217200156,True,-1,stimulus_RORE28_Yes-No Task_2019_Jun_12_1749_92,-1,True,2019_Jun_12_1749,Yes-No Task,3,RORE28,
Yes-No Task,17,0,17,0,5,-1,Correct Rejection,0.535242300015,False,-1,stimulus_RORE28_Yes-No Task_2019_Jun_12_1749_93,-1,True,2019_Jun_12_1749,Yes-No Task,3,RORE28,
Yes-No Task,18,0,18,0,2.2,-1,Miss,0.567219499964,True,-1,stimulus_RORE28_Yes-No Task_2019_Jun_12_1749_94,-1,True,2019_Jun_12_1749,Yes-No Task,3,RORE28,
Yes-No Task,19,0,19,0,3,-1,Correct Rejection,0.56719540013,False,-1,stimulus_RORE28_Yes-No Task_2019_Jun_12_1749_95,-1,True,2019_Jun_12_1749,Yes-No Task,3,RORE28,
Yes-No Task,20,0,20,0,4.4,-1,False Alarm,0.534759399947,False,-1,stimulus_RORE28_Yes-No Task_2019_Jun_12_1749_96,-1,True,2019_Jun_12_1749,Yes-No Task,3,RORE28,
Yes-No Task,21,0,21,0,6.6,-1,Hit,0.536665100139,True,-1,stimulus_RORE28_Yes-No Task_2019_Jun_12_1749_97,-1,True,2019_Jun_12_1749,Yes-No Task,3,RORE28,
Yes-No Task,22,0,22,0,4.4,-1,Hit,0.601727200206,True,-1,stimulus_RORE28_Yes-No Task_2019_Jun_12_1749_98,-1,True,2019_Jun_12_1749,Yes-No Task,3,RORE28,
Yes-No Task,23,0,23,0,5,-1,Hit,0.596697099973,True,-1,stimulus_RORE28_Yes-No Task_2019_Jun_12_1749_99,-1,True,2019_Jun_12_1749,Yes-No Task,3,RORE28,
Yes-No Task,24,0,24,0,5,-1,Correct Rejection,0.534781000111,False,-1,stimulus_RORE28_Yes-No Task_2019_Jun_12_1749_100,-1,True,2019_Jun_12_1749,Yes-No Task,3,RORE28,
Yes-No Task,25,0,25,0,1.4,-1,Correct Rejection,0.567418300081,False,-1,stimulus_RORE28_Yes-No Task_2019_Jun_12_1749_101,-1,True,2019_Jun_12_1749,Yes-No Task,3,RORE28,
Yes-No Task,26,0,26,0,3,-1,Hit,0.567219199846,True,-1,stimulus_RORE28_Yes-No Task_2019_Jun_12_1749_102,-1,True,2019_Jun_12_1749,Yes-No Task,3,RORE28,
Yes-No Task,27,0,27,0,3,-1,Miss,0.568184500095,True,-1,stimulus_RORE28_Yes-No Task_2019_Jun_12_1749_103,-1,True,2019_Jun_12_1749,Yes-No Task,3,RORE28,
Yes-No Task,28,0,28,0,1.4,-1,Miss,0.534193699947,True,-1,stimulus_RORE28_Yes-No Task_2019_Jun_12_1749_104,-1,True,2019_Jun_12_1749,Yes-No Task,3,RORE28,
Yes-No Task,29,0,29,0,4.4,-1,Correct Rejection,0.634708900005,False,-1,stimulus_RORE28_Yes-No Task_2019_Jun_12_1749_105,-1,True,2019_Jun_12_1749,Yes-No Task,3,RORE28,
Yes-No Task,30,0,30,0,3.7,-1,Hit,0.567206699867,True,-1,stimulus_RORE28_Yes-No Task_2019_Jun_12_1749_106,-1,True,2019_Jun_12_1749,Yes-No Task,3,RORE28,
Yes-No Task,31,0,31,0,5.7,-1,Hit,0.500299400184,True,-1,stimulus_RORE28_Yes-No Task_2019_Jun_12_1749_107,-1,True,2019_Jun_12_1749,Yes-No Task,3,RORE28,
Yes-No Task,32,0,32,0,3.7,-1,Correct Rejection,0.534302999964,False,-1,stimulus_RORE28_Yes-No Task_2019_Jun_12_1749_108,-1,True,2019_Jun_12_1749,Yes-No Task,3,RORE28,
Yes-No Task,33,0,33,0,4.4,-1,False Alarm,0.501171500189,False,-1,stimulus_RORE28_Yes-No Task_2019_Jun_12_1749_109,-1,True,2019_Jun_12_1749,Yes-No Task,3,RORE28,
Yes-No Task,34,0,34,0,3.7,-1,Hit,0.63231269992,True,-1,stimulus_RORE28_Yes-No Task_2019_Jun_12_1749_110,-1,True,2019_Jun_12_1749,Yes-No Task,3,RORE28,
Yes-No Task,35,0,35,0,2.2,-1,Correct Rejection,0.50040140003,False,-1,stimulus_RORE28_Yes-No Task_2019_Jun_12_1749_111,-1,True,2019_Jun_12_1749,Yes-No Task,3,RORE28,
Yes-No Task,36,0,36,0,5.7,-1,Hit,0.567676699953,True,-1,stimulus_RORE28_Yes-No Task_2019_Jun_12_1749_112,-1,True,2019_Jun_12_1749,Yes-No Task,3,RORE28,
Yes-No Task,37,0,37,0,4.4,-1,False Alarm,0.599402200198,False,-1,stimulus_RORE28_Yes-No Task_2019_Jun_12_1749_113,-1,True,2019_Jun_12_1749,Yes-No Task,3,RORE28,
Yes-No Task,38,0,38,0,3,-1,False Alarm,0.567130800104,False,-1,stimulus_RORE28_Yes-No Task_2019_Jun_12_1749_114,-1,True,2019_Jun_12_1749,Yes-No Task,3,RORE28,
Yes-No Task,39,0,39,0,1.4,-1,Hit,0.767362999963,True,-1,stimulus_RORE28_Yes-No Task_2019_Jun_12_1749_115,-1,True,2019_Jun_12_1749,Yes-No Task,3,RORE28,
Yes-No Task,40,0,40,0,6.6,-1,Hit,0.567853899905,True,-1,stimulus_RORE28_Yes-No Task_2019_Jun_12_1749_116,-1,True,2019_Jun_12_1749,Yes-No Task,3,RORE28,
Yes-No Task,41,0,41,0,5,-1,Correct Rejection,0.501658600057,False,-1,stimulus_RORE28_Yes-No Task_2019_Jun_12_1749_117,-1,True,2019_Jun_12_1749,Yes-No Task,3,RORE28,
Yes-No Task,42,0,42,0,5.7,-1,False Alarm,0.565247700084,False,-1,stimulus_RORE28_Yes-No Task_2019_Jun_12_1749_118,-1,True,2019_Jun_12_1749,Yes-No Task,3,RORE28,
Yes-No Task,43,0,43,0,4.4,-1,Correct Rejection,0.531612599967,False,-1,stimulus_RORE28_Yes-No Task_2019_Jun_12_1749_119,-1,True,2019_Jun_12_1749,Yes-No Task,3,RORE28,
Yes-No Task,44,0,44,0,1.4,-1,Miss,0.667356599821,True,-1,stimulus_RORE28_Yes-No Task_2019_Jun_12_1749_120,-1,True,2019_Jun_12_1749,Yes-No Task,3,RORE28,
Yes-No Task,45,0,45,0,3.7,-1,False Alarm,0.565373700112,False,-1,stimulus_RORE28_Yes-No Task_2019_Jun_12_1749_121,-1,True,2019_Jun_12_1749,Yes-No Task,3,RORE28,
Yes-No Task,46,0,46,0,6.6,-1,Hit,0.528794400161,True,-1,stimulus_RORE28_Yes-No Task_2019_Jun_12_1749_122,-1,True,2019_Jun_12_1749,Yes-No Task,3,RORE28,
Yes-No Task,47,0,47,0,1.4,-1,Correct Rejection,0.632423300063,False,-1,stimulus_RORE28_Yes-No Task_2019_Jun_12_1749_123,-1,True,2019_Jun_12_1749,Yes-No Task,3,RORE28,
Yes-No Task,48,0,48,0,5,-1,Hit,0.535402999958,True,-1,stimulus_RORE28_Yes-No Task_2019_Jun_12_1749_124,-1,True,2019_Jun_12_1749,Yes-No Task,3,RORE28,
Yes-No Task,49,0,49,0,2.2,-1,Miss,0.602164600044,True,-1,stimulus_RORE28_Yes-No Task_2019_Jun_12_1749_125,-1,True,2019_Jun_12_1749,Yes-No Task,3,RORE28,
Yes-No Task,50,0,50,0,2.2,-1,Hit,0.633687200025,True,-1,stimulus_RORE28_Yes-No Task_2019_Jun_12_1749_126,-1,True,2019_Jun_12_1749,Yes-No Task,3,RORE28,
Yes-No Task,51,0,51,0,5,-1,Miss,0.535323399818,True,-1,stimulus_RORE28_Yes-No Task_2019_Jun_12_1749_127,-1,True,2019_Jun_12_1749,Yes-No Task,3,RORE28,
Yes-No Task,52,0,52,0,3,-1,Miss,0.597732600057,True,-1,stimulus_RORE28_Yes-No Task_2019_Jun_12_1749_128,-1,True,2019_Jun_12_1749,Yes-No Task,3,RORE28,
Yes-No Task,53,0,53,0,1.4,-1,False Alarm,0.569560600212,False,-1,stimulus_RORE28_Yes-No Task_2019_Jun_12_1749_129,-1,True,2019_Jun_12_1749,Yes-No Task,3,RORE28,
Yes-No Task,54,0,54,0,3.7,-1,Hit,0.567401899956,True,-1,stimulus_RORE28_Yes-No Task_2019_Jun_12_1749_130,-1,True,2019_Jun_12_1749,Yes-No Task,3,RORE28,
Yes-No Task,55,0,55,0,2.2,-1,False Alarm,0.500583299901,False,-1,stimulus_RORE28_Yes-No Task_2019_Jun_12_1749_131,-1,True,2019_Jun_12_1749,Yes-No Task,3,RORE28,
Yes-No Task,56,0,56,0,5,-1,Hit,0.767363199964,True,-1,stimulus_RORE28_Yes-No Task_2019_Jun_12_1749_132,-1,True,2019_Jun_12_1749,Yes-No Task,3,RORE28,
Yes-No Task,57,0,57,0,2.2,-1,Miss,0.699740199838,True,-1,stimulus_RORE28_Yes-No Task_2019_Jun_12_1749_133,-1,True,2019_Jun_12_1749,Yes-No Task,3,RORE28,
Yes-No Task,58,0,58,0,2.2,-1,Hit,0.597106700065,True,-1,stimulus_RORE28_Yes-No Task_2019_Jun_12_1749_134,-1,True,2019_Jun_12_1749,Yes-No Task,3,RORE28,
Yes-No Task,59,0,59,0,1.4,-1,False Alarm,0.530456000008,False,-1,stimulus_RORE28_Yes-No Task_2019_Jun_12_1749_135,-1,True,2019_Jun_12_1749,Yes-No Task,3,RORE28,
Yes-No Task,60,0,60,0,5.7,-1,Hit,0.566715999972,True,-1,stimulus_RORE28_Yes-No Task_2019_Jun_12_1749_136,-1,True,2019_Jun_12_1749,Yes-No Task,3,RORE28,
Yes-No Task,61,0,61,0,5,-1,Correct Rejection,0.634736600099,False,-1,stimulus_RORE28_Yes-No Task_2019_Jun_12_1749_137,-1,True,2019_Jun_12_1749,Yes-No Task,3,RORE28,
Yes-No Task,62,0,62,0,3.7,-1,Hit,0.600782599999,True,-1,stimulus_RORE28_Yes-No Task_2019_Jun_12_1749_138,-1,True,2019_Jun_12_1749,Yes-No Task,3,RORE28,
Yes-No Task,63,0,63,0,5.7,-1,Correct Rejection,0.700738799991,False,-1,stimulus_RORE28_Yes-No Task_2019_Jun_12_1749_139,-1,True,2019_Jun_12_1749,Yes-No Task,3,RORE28,
Yes-No Task,64,0,64,0,5,-1,Hit,0.500014499994,True,-1,stimulus_RORE28_Yes-No Task_2019_Jun_12_1749_140,-1,True,2019_Jun_12_1749,Yes-No Task,3,RORE28,
Yes-No Task,65,0,65,0,4.4,-1,Miss,0.534391799942,True,-1,stimulus_RORE28_Yes-No Task_2019_Jun_12_1749_141,-1,True,2019_Jun_12_1749,Yes-No Task,3,RORE28,
Yes-No Task,66,0,66,0,5,-1,Hit,0.634867400164,True,-1,stimulus_RORE28_Yes-No Task_2019_Jun_12_1749_142,-1,True,2019_Jun_12_1749,Yes-No Task,3,RORE28,
Yes-No Task,67,0,67,0,6.6,-1,False Alarm,0.534671399975,False,-1,stimulus_RORE28_Yes-No Task_2019_Jun_12_1749_143,-1,True,2019_Jun_12_1749,Yes-No Task,3,RORE28,
Yes-No Task,68,0,68,0,3.7,-1,Miss,0.667334799888,True,-1,stimulus_RORE28_Yes-No Task_2019_Jun_12_1749_144,-1,True,2019_Jun_12_1749,Yes-No Task,3,RORE28,
Yes-No Task,69,0,69,0,5.7,-1,No Answer,-1,False,-1,stimulus_RORE28_Yes-No Task_2019_Jun_12_1749_145,-1,True,2019_Jun_12_1749,Yes-No Task,3,RORE28,
Yes-No Task,70,0,70,0,3,-1,Hit,0.334122400032,True,-1,stimulus_RORE28_Yes-No Task_2019_Jun_12_1749_146,-1,True,2019_Jun_12_1749,Yes-No Task,3,RORE28,
Yes-No Task,71,0,71,0,1.4,-1,Correct Rejection,0.534166400088,False,-1,stimulus_RORE28_Yes-No Task_2019_Jun_12_1749_147,-1,True,2019_Jun_12_1749,Yes-No Task,3,RORE28,
Yes-No Task,72,0,72,0,6.6,-1,Hit,0.567751199938,True,-1,stimulus_RORE28_Yes-No Task_2019_Jun_12_1749_148,-1,True,2019_Jun_12_1749,Yes-No Task,3,RORE28,
Yes-No Task,73,0,73,0,3,-1,Hit,0.600756899919,True,-1,stimulus_RORE28_Yes-No Task_2019_Jun_12_1749_149,-1,True,2019_Jun_12_1749,Yes-No Task,3,RORE28,
Yes-No Task,74,0,74,0,5,-1,False Alarm,0.567034400068,False,-1,stimulus_RORE28_Yes-No Task_2019_Jun_12_1749_150,-1,True,2019_Jun_12_1749,Yes-No Task,3,RORE28,
Yes-No Task,0,0,0,0,2.2,-1,Correct Rejection,0.467694699997,False,-1,stimulus_RORE28_Yes-No Task_2019_Jun_12_1749_151,-1,True,2019_Jun_12_1749,Yes-No Task,3,RORE28,
Yes-No Task,1,0,1,0,1.4,-1,Correct Rejection,0.534039699938,False,-1,stimulus_RORE28_Yes-No Task_2019_Jun_12_1749_152,-1,True,2019_Jun_12_1749,Yes-No Task,3,RORE28,
Yes-No Task,2,0,2,0,5,-1,Miss,0.499991499819,True,-1,stimulus_RORE28_Yes-No Task_2019_Jun_12_1749_153,-1,True,2019_Jun_12_1749,Yes-No Task,3,RORE28,
Yes-No Task,3,0,3,0,5,-1,False Alarm,0.467056100024,False,-1,stimulus_RORE28_Yes-No Task_2019_Jun_12_1749_154,-1,True,2019_Jun_12_1749,Yes-No Task,3,RORE28,
Yes-No Task,4,0,4,0,5,-1,Correct Rejection,0.601624700008,False,-1,stimulus_RORE28_Yes-No Task_2019_Jun_12_1749_155,-1,True,2019_Jun_12_1749,Yes-No Task,3,RORE28,
Yes-No Task,5,0,5,0,4.4,-1,Hit,0.600776599953,True,-1,stimulus_RORE28_Yes-No Task_2019_Jun_12_1749_156,-1,True,2019_Jun_12_1749,Yes-No Task,3,RORE28,
Yes-No Task,6,0,6,0,1.4,-1,False Alarm,0.534413999878,False,-1,stimulus_RORE28_Yes-No Task_2019_Jun_12_1749_157,-1,True,2019_Jun_12_1749,Yes-No Task,3,RORE28,
Yes-No Task,7,0,7,0,2.2,-1,Correct Rejection,0.535238199867,False,-1,stimulus_RORE28_Yes-No Task_2019_Jun_12_1749_158,-1,True,2019_Jun_12_1749,Yes-No Task,3,RORE28,
Yes-No Task,8,0,8,0,3,-1,Hit,0.502482400043,True,-1,stimulus_RORE28_Yes-No Task_2019_Jun_12_1749_159,-1,True,2019_Jun_12_1749,Yes-No Task,3,RORE28,
Yes-No Task,9,0,9,0,4.4,-1,Correct Rejection,0.600793000078,False,-1,stimulus_RORE28_Yes-No Task_2019_Jun_12_1749_160,-1,True,2019_Jun_12_1749,Yes-No Task,3,RORE28,
Yes-No Task,10,0,10,0,3.7,-1,False Alarm,0.500239100074,False,-1,stimulus_RORE28_Yes-No Task_2019_Jun_12_1749_161,-1,True,2019_Jun_12_1749,Yes-No Task,3,RORE28,
Yes-No Task,11,0,11,0,4.4,-1,Miss,0.467354400083,True,-1,stimulus_RORE28_Yes-No Task_2019_Jun_12_1749_162,-1,True,2019_Jun_12_1749,Yes-No Task,3,RORE28,
Yes-No Task,12,0,12,0,4.4,-1,False Alarm,0.634006599896,False,-1,stimulus_RORE28_Yes-No Task_2019_Jun_12_1749_163,-1,True,2019_Jun_12_1749,Yes-No Task,3,RORE28,
Yes-No Task,13,0,13,0,4.4,-1,Correct Rejection,0.600004400127,False,-1,stimulus_RORE28_Yes-No Task_2019_Jun_12_1749_164,-1,True,2019_Jun_12_1749,Yes-No Task,3,RORE28,
Yes-No Task,14,0,14,0,3.7,-1,False Alarm,0.566946199862,False,-1,stimulus_RORE28_Yes-No Task_2019_Jun_12_1749_165,-1,True,2019_Jun_12_1749,Yes-No Task,3,RORE28,
Yes-No Task,15,0,15,0,5.7,-1,Correct Rejection,0.466828200035,False,-1,stimulus_RORE28_Yes-No Task_2019_Jun_12_1749_166,-1,True,2019_Jun_12_1749,Yes-No Task,3,RORE28,
Yes-No Task,16,0,16,0,4.4,-1,Hit,0.63392199995,True,-1,stimulus_RORE28_Yes-No Task_2019_Jun_12_1749_167,-1,True,2019_Jun_12_1749,Yes-No Task,3,RORE28,
Yes-No Task,17,0,17,0,1.4,-1,Correct Rejection,0.533455900149,False,-1,stimulus_RORE28_Yes-No Task_2019_Jun_12_1749_168,-1,True,2019_Jun_12_1749,Yes-No Task,3,RORE28,
Yes-No Task,18,0,18,0,4.4,-1,Hit,0.567248000065,True,-1,stimulus_RORE28_Yes-No Task_2019_Jun_12_1749_169,-1,True,2019_Jun_12_1749,Yes-No Task,3,RORE28,
Yes-No Task,19,0,19,0,3,-1,Miss,0.602744400036,True,-1,stimulus_RORE28_Yes-No Task_2019_Jun_12_1749_170,-1,True,2019_Jun_12_1749,Yes-No Task,3,RORE28,
Yes-No Task,20,0,20,0,5.7,-1,Correct Rejection,0.533939899877,False,-1,stimulus_RORE28_Yes-No Task_2019_Jun_12_1749_171,-1,True,2019_Jun_12_1749,Yes-No Task,3,RORE28,
Yes-No Task,21,0,21,0,2.2,-1,Hit,0.667302099988,True,-1,stimulus_RORE28_Yes-No Task_2019_Jun_12_1749_172,-1,True,2019_Jun_12_1749,Yes-No Task,3,RORE28,
Yes-No Task,22,0,22,0,1.4,-1,Correct Rejection,0.734789000126,False,-1,stimulus_RORE28_Yes-No Task_2019_Jun_12_1749_173,-1,True,2019_Jun_12_1749,Yes-No Task,3,RORE28,
Yes-No Task,23,0,23,0,5.7,-1,Hit,0.466270700097,True,-1,stimulus_RORE28_Yes-No Task_2019_Jun_12_1749_174,-1,True,2019_Jun_12_1749,Yes-No Task,3,RORE28,
Yes-No Task,24,0,24,0,3,-1,Miss,0.532761699986,True,-1,stimulus_RORE28_Yes-No Task_2019_Jun_12_1749_175,-1,True,2019_Jun_12_1749,Yes-No Task,3,RORE28,
Yes-No Task,25,0,25,0,6.6,-1,Correct Rejection,0.602103600046,False,-1,stimulus_RORE28_Yes-No Task_2019_Jun_12_1749_176,-1,True,2019_Jun_12_1749,Yes-No Task,3,RORE28,
Yes-No Task,26,0,26,0,5,-1,Hit,0.500609499868,True,-1,stimulus_RORE28_Yes-No Task_2019_Jun_12_1749_177,-1,True,2019_Jun_12_1749,Yes-No Task,3,RORE28,
Yes-No Task,27,0,27,0,5,-1,Hit,0.599946800154,True,-1,stimulus_RORE28_Yes-No Task_2019_Jun_12_1749_178,-1,True,2019_Jun_12_1749,Yes-No Task,3,RORE28,
Yes-No Task,28,0,28,0,1.4,-1,Miss,0.500401000027,True,-1,stimulus_RORE28_Yes-No Task_2019_Jun_12_1749_179,-1,True,2019_Jun_12_1749,Yes-No Task,3,RORE28,
Yes-No Task,29,0,29,0,1.4,-1,Hit,0.434003599919,True,-1,stimulus_RORE28_Yes-No Task_2019_Jun_12_1749_180,-1,True,2019_Jun_12_1749,Yes-No Task,3,RORE28,
Yes-No Task,30,0,30,0,3.7,-1,Correct Rejection,0.500635399949,False,-1,stimulus_RORE28_Yes-No Task_2019_Jun_12_1749_181,-1,True,2019_Jun_12_1749,Yes-No Task,3,RORE28,
Yes-No Task,31,0,31,0,4.4,-1,False Alarm,0.467649800004,False,-1,stimulus_RORE28_Yes-No Task_2019_Jun_12_1749_182,-1,True,2019_Jun_12_1749,Yes-No Task,3,RORE28,
Yes-No Task,32,0,32,0,5,-1,Correct Rejection,0.567398699932,False,-1,stimulus_RORE28_Yes-No Task_2019_Jun_12_1749_183,-1,True,2019_Jun_12_1749,Yes-No Task,3,RORE28,
Yes-No Task,33,0,33,0,6.6,-1,Hit,0.502440800192,True,-1,stimulus_RORE28_Yes-No Task_2019_Jun_12_1749_184,-1,True,2019_Jun_12_1749,Yes-No Task,3,RORE28,
Yes-No Task,34,0,34,0,5.7,-1,Correct Rejection,0.63453320018,False,-1,stimulus_RORE28_Yes-No Task_2019_Jun_12_1749_185,-1,True,2019_Jun_12_1749,Yes-No Task,3,RORE28,
Yes-No Task,35,0,35,0,6.6,-1,Miss,0.567486999789,True,-1,stimulus_RORE28_Yes-No Task_2019_Jun_12_1749_186,-1,True,2019_Jun_12_1749,Yes-No Task,3,RORE28,
Yes-No Task,36,0,36,0,3.7,-1,Hit,0.534281400032,True,-1,stimulus_RORE28_Yes-No Task_2019_Jun_12_1749_187,-1,True,2019_Jun_12_1749,Yes-No Task,3,RORE28,
Yes-No Task,37,0,37,0,5.7,-1,Correct Rejection,0.533574500121,False,-1,stimulus_RORE28_Yes-No Task_2019_Jun_12_1749_188,-1,True,2019_Jun_12_1749,Yes-No Task,3,RORE28,
Yes-No Task,38,0,38,0,1.4,-1,Correct Rejection,0.733951099915,False,-1,stimulus_RORE28_Yes-No Task_2019_Jun_12_1749_189,-1,True,2019_Jun_12_1749,Yes-No Task,3,RORE28,
Yes-No Task,39,0,39,0,5.7,-1,Hit,0.53505239985,True,-1,stimulus_RORE28_Yes-No Task_2019_Jun_12_1749_190,-1,True,2019_Jun_12_1749,Yes-No Task,3,RORE28,
Yes-No Task,40,0,40,0,6.6,-1,Miss,0.600708999904,True,-1,stimulus_RORE28_Yes-No Task_2019_Jun_12_1749_191,-1,True,2019_Jun_12_1749,Yes-No Task,3,RORE28,
Yes-No Task,41,0,41,0,3,-1,Hit,0.400424299994,True,-1,stimulus_RORE28_Yes-No Task_2019_Jun_12_1749_192,-1,True,2019_Jun_12_1749,Yes-No Task,3,RORE28,
Yes-No Task,42,0,42,0,5.7,-1,Hit,0.468168599997,True,-1,stimulus_RORE28_Yes-No Task_2019_Jun_12_1749_193,-1,True,2019_Jun_12_1749,Yes-No Task,3,RORE28,
Yes-No Task,43,0,43,0,4.4,-1,Miss,0.633562099887,True,-1,stimulus_RORE28_Yes-No Task_2019_Jun_12_1749_194,-1,True,2019_Jun_12_1749,Yes-No Task,3,RORE28,
Yes-No Task,44,0,44,0,3,-1,False Alarm,0.468074500095,False,-1,stimulus_RORE28_Yes-No Task_2019_Jun_12_1749_195,-1,True,2019_Jun_12_1749,Yes-No Task,3,RORE28,
Yes-No Task,45,0,45,0,6.6,-1,Hit,0.500591000076,True,-1,stimulus_RORE28_Yes-No Task_2019_Jun_12_1749_196,-1,True,2019_Jun_12_1749,Yes-No Task,3,RORE28,
Yes-No Task,46,0,46,0,2.2,-1,Hit,0.602288400056,True,-1,stimulus_RORE28_Yes-No Task_2019_Jun_12_1749_197,-1,True,2019_Jun_12_1749,Yes-No Task,3,RORE28,
Yes-No Task,47,0,47,0,6.6,-1,Hit,0.567122600041,True,-1,stimulus_RORE28_Yes-No Task_2019_Jun_12_1749_198,-1,True,2019_Jun_12_1749,Yes-No Task,3,RORE28,
Yes-No Task,48,0,48,0,2.2,-1,Hit,0.566993600223,True,-1,stimulus_RORE28_Yes-No Task_2019_Jun_12_1749_199,-1,True,2019_Jun_12_1749,Yes-No Task,3,RORE28,
Yes-No Task,49,0,49,0,1.4,-1,Miss,0.630710199941,True,-1,stimulus_RORE28_Yes-No Task_2019_Jun_12_1749_200,-1,True,2019_Jun_12_1749,Yes-No Task,3,RORE28,
Yes-No Task,50,0,50,0,5.7,-1,Miss,0.600371599896,True,-1,stimulus_RORE28_Yes-No Task_2019_Jun_12_1749_201,-1,True,2019_Jun_12_1749,Yes-No Task,3,RORE28,
Yes-No Task,51,0,51,0,2.2,-1,Hit,0.56734040007,True,-1,stimulus_RORE28_Yes-No Task_2019_Jun_12_1749_202,-1,True,2019_Jun_12_1749,Yes-No Task,3,RORE28,
Yes-No Task,52,0,52,0,3,-1,Miss,0.63440910005,True,-1,stimulus_RORE28_Yes-No Task_2019_Jun_12_1749_203,-1,True,2019_Jun_12_1749,Yes-No Task,3,RORE28,
Yes-No Task,53,0,53,0,5,-1,False Alarm,0.701835300075,False,-1,stimulus_RORE28_Yes-No Task_2019_Jun_12_1749_204,-1,True,2019_Jun_12_1749,Yes-No Task,3,RORE28,
Yes-No Task,54,0,54,0,4.4,-1,Hit,0.667443400016,True,-1,stimulus_RORE28_Yes-No Task_2019_Jun_12_1749_205,-1,True,2019_Jun_12_1749,Yes-No Task,3,RORE28,
Yes-No Task,55,0,55,0,5.7,-1,Miss,0.633318800014,True,-1,stimulus_RORE28_Yes-No Task_2019_Jun_12_1749_206,-1,True,2019_Jun_12_1749,Yes-No Task,3,RORE28,
Yes-No Task,56,0,56,0,5,-1,Correct Rejection,0.703224000055,False,-1,stimulus_RORE28_Yes-No Task_2019_Jun_12_1749_207,-1,True,2019_Jun_12_1749,Yes-No Task,3,RORE28,
Yes-No Task,57,0,57,0,1.4,-1,Correct Rejection,0.633433199953,False,-1,stimulus_RORE28_Yes-No Task_2019_Jun_12_1749_208,-1,True,2019_Jun_12_1749,Yes-No Task,3,RORE28,
Yes-No Task,58,0,58,0,3,-1,Correct Rejection,0.734473400051,False,-1,stimulus_RORE28_Yes-No Task_2019_Jun_12_1749_209,-1,True,2019_Jun_12_1749,Yes-No Task,3,RORE28,
Yes-No Task,59,0,59,0,5.7,-1,False Alarm,0.699683400104,False,-1,stimulus_RORE28_Yes-No Task_2019_Jun_12_1749_210,-1,True,2019_Jun_12_1749,Yes-No Task,3,RORE28,
Yes-No Task,60,0,60,0,6.6,-1,Hit,0.537057199981,True,-1,stimulus_RORE28_Yes-No Task_2019_Jun_12_1749_211,-1,True,2019_Jun_12_1749,Yes-No Task,3,RORE28,
Yes-No Task,61,0,61,0,5,-1,Miss,0.602669699816,True,-1,stimulus_RORE28_Yes-No Task_2019_Jun_12_1749_212,-1,True,2019_Jun_12_1749,Yes-No Task,3,RORE28,
Yes-No Task,62,0,62,0,5,-1,False Alarm,0.801315600052,False,-1,stimulus_RORE28_Yes-No Task_2019_Jun_12_1749_213,-1,True,2019_Jun_12_1749,Yes-No Task,3,RORE28,
Yes-No Task,63,0,63,0,3,-1,Hit,0.60082260007,True,-1,stimulus_RORE28_Yes-No Task_2019_Jun_12_1749_214,-1,True,2019_Jun_12_1749,Yes-No Task,3,RORE28,
Yes-No Task,64,0,64,0,4.4,-1,Hit,0.534430400003,True,-1,stimulus_RORE28_Yes-No Task_2019_Jun_12_1749_215,-1,True,2019_Jun_12_1749,Yes-No Task,3,RORE28,
Yes-No Task,65,0,65,0,3.7,-1,Miss,0.834348399891,True,-1,stimulus_RORE28_Yes-No Task_2019_Jun_12_1749_216,-1,True,2019_Jun_12_1749,Yes-No Task,3,RORE28,
Yes-No Task,66,0,66,0,5,-1,Correct Rejection,0.734215799952,False,-1,stimulus_RORE28_Yes-No Task_2019_Jun_12_1749_217,-1,True,2019_Jun_12_1749,Yes-No Task,3,RORE28,
Yes-No Task,67,0,67,0,3.7,-1,Hit,0.534242399968,True,-1,stimulus_RORE28_Yes-No Task_2019_Jun_12_1749_218,-1,True,2019_Jun_12_1749,Yes-No Task,3,RORE28,
Yes-No Task,68,0,68,0,1.4,-1,False Alarm,0.600412599975,False,-1,stimulus_RORE28_Yes-No Task_2019_Jun_12_1749_219,-1,True,2019_Jun_12_1749,Yes-No Task,3,RORE28,
Yes-No Task,69,0,69,0,3.7,-1,Miss,0.533929600148,True,-1,stimulus_RORE28_Yes-No Task_2019_Jun_12_1749_220,-1,True,2019_Jun_12_1749,Yes-No Task,3,RORE28,
Yes-No Task,70,0,70,0,6.6,-1,Hit,0.567471100017,True,-1,stimulus_RORE28_Yes-No Task_2019_Jun_12_1749_221,-1,True,2019_Jun_12_1749,Yes-No Task,3,RORE28,
Yes-No Task,71,0,71,0,3,-1,Correct Rejection,0.667722899932,False,-1,stimulus_RORE28_Yes-No Task_2019_Jun_12_1749_222,-1,True,2019_Jun_12_1749,Yes-No Task,3,RORE28,
Yes-No Task,72,0,72,0,6.6,-1,Hit,0.800912900129,True,-1,stimulus_RORE28_Yes-No Task_2019_Jun_12_1749_223,-1,True,2019_Jun_12_1749,Yes-No Task,3,RORE28,
Yes-No Task,73,0,73,0,1.4,-1,Miss,0.532696700189,True,-1,stimulus_RORE28_Yes-No Task_2019_Jun_12_1749_224,-1,True,2019_Jun_12_1749,Yes-No Task,3,RORE28,
Yes-No Task,74,0,74,0,3,-1,False Alarm,0.500268300064,False,-1,stimulus_RORE28_Yes-No Task_2019_Jun_12_1749_225,-1,True,2019_Jun_12_1749,Yes-No Task,3,RORE28,
Yes-No Task,0,0,0,0,3,-1,False Alarm,0.566302000079,False,-1,stimulus_RORE28_Yes-No Task_2019_Jun_12_1749_226,-1,True,2019_Jun_12_1749,Yes-No Task,3,RORE28,
Yes-No Task,1,0,1,0,1.4,-1,Correct Rejection,0.53487209999,False,-1,stimulus_RORE28_Yes-No Task_2019_Jun_12_1749_227,-1,True,2019_Jun_12_1749,Yes-No Task,3,RORE28,
Yes-No Task,2,0,2,0,5.7,-1,False Alarm,0.53465809999,False,-1,stimulus_RORE28_Yes-No Task_2019_Jun_12_1749_228,-1,True,2019_Jun_12_1749,Yes-No Task,3,RORE28,
Yes-No Task,3,0,3,0,3,-1,Hit,0.602275699843,True,-1,stimulus_RORE28_Yes-No Task_2019_Jun_12_1749_229,-1,True,2019_Jun_12_1749,Yes-No Task,3,RORE28,
Yes-No Task,4,0,4,0,3.7,-1,Hit,0.634202299872,True,-1,stimulus_RORE28_Yes-No Task_2019_Jun_12_1749_230,-1,True,2019_Jun_12_1749,Yes-No Task,3,RORE28,
Yes-No Task,5,0,5,0,6.6,-1,Hit,0.535111899953,True,-1,stimulus_RORE28_Yes-No Task_2019_Jun_12_1749_231,-1,True,2019_Jun_12_1749,Yes-No Task,3,RORE28,
Yes-No Task,6,0,6,0,3.7,-1,Correct Rejection,0.599977800157,False,-1,stimulus_RORE28_Yes-No Task_2019_Jun_12_1749_232,-1,True,2019_Jun_12_1749,Yes-No Task,3,RORE28,
Yes-No Task,7,0,7,0,1.4,-1,False Alarm,0.502698899945,False,-1,stimulus_RORE28_Yes-No Task_2019_Jun_12_1749_233,-1,True,2019_Jun_12_1749,Yes-No Task,3,RORE28,
Yes-No Task,8,0,8,0,6.6,-1,Hit,0.600504199974,True,-1,stimulus_RORE28_Yes-No Task_2019_Jun_12_1749_234,-1,True,2019_Jun_12_1749,Yes-No Task,3,RORE28,
Yes-No Task,9,0,9,0,5,-1,Correct Rejection,0.733295400161,False,-1,stimulus_RORE28_Yes-No Task_2019_Jun_12_1749_235,-1,True,2019_Jun_12_1749,Yes-No Task,3,RORE28,
Yes-No Task,10,0,10,0,6.6,-1,Hit,0.499781199964,True,-1,stimulus_RORE28_Yes-No Task_2019_Jun_12_1749_236,-1,True,2019_Jun_12_1749,Yes-No Task,3,RORE28,
Yes-No Task,11,0,11,0,4.4,-1,Miss,0.60033460008,True,-1,stimulus_RORE28_Yes-No Task_2019_Jun_12_1749_237,-1,True,2019_Jun_12_1749,Yes-No Task,3,RORE28,
Yes-No Task,12,0,12,0,3,-1,Hit,0.565205899999,True,-1,stimulus_RORE28_Yes-No Task_2019_Jun_12_1749_238,-1,True,2019_Jun_12_1749,Yes-No Task,3,RORE28,
Yes-No Task,13,0,13,0,2.2,-1,Correct Rejection,0.632873499999,False,-1,stimulus_RORE28_Yes-No Task_2019_Jun_12_1749_239,-1,True,2019_Jun_12_1749,Yes-No Task,3,RORE28,
Yes-No Task,14,0,14,0,3.7,-1,Hit,0.534418400144,True,-1,stimulus_RORE28_Yes-No Task_2019_Jun_12_1749_240,-1,True,2019_Jun_12_1749,Yes-No Task,3,RORE28,
Yes-No Task,15,0,15,0,2.2,-1,Miss,0.634001999861,True,-1,stimulus_RORE28_Yes-No Task_2019_Jun_12_1749_241,-1,True,2019_Jun_12_1749,Yes-No Task,3,RORE28,
Yes-No Task,16,0,16,0,3.7,-1,Hit,0.501503199805,True,-1,stimulus_RORE28_Yes-No Task_2019_Jun_12_1749_242,-1,True,2019_Jun_12_1749,Yes-No Task,3,RORE28,
Yes-No Task,17,0,17,0,4.4,-1,False Alarm,0.633077400038,False,-1,stimulus_RORE28_Yes-No Task_2019_Jun_12_1749_243,-1,True,2019_Jun_12_1749,Yes-No Task,3,RORE28,
Yes-No Task,18,0,18,0,1.4,-1,Hit,0.633789399872,True,-1,stimulus_RORE28_Yes-No Task_2019_Jun_12_1749_244,-1,True,2019_Jun_12_1749,Yes-No Task,3,RORE28,
Yes-No Task,19,0,19,0,3.7,-1,No Answer,-1,True,-1,stimulus_RORE28_Yes-No Task_2019_Jun_12_1749_245,-1,True,2019_Jun_12_1749,Yes-No Task,3,RORE28,
Yes-No Task,20,0,20,0,6.6,-1,Hit,0.601897399873,True,-1,stimulus_RORE28_Yes-No Task_2019_Jun_12_1749_246,-1,True,2019_Jun_12_1749,Yes-No Task,3,RORE28,
Yes-No Task,21,0,21,0,5,-1,Hit,0.701611599885,True,-1,stimulus_RORE28_Yes-No Task_2019_Jun_12_1749_247,-1,True,2019_Jun_12_1749,Yes-No Task,3,RORE28,
Yes-No Task,22,0,22,0,5,-1,Correct Rejection,0.635045300005,False,-1,stimulus_RORE28_Yes-No Task_2019_Jun_12_1749_248,-1,True,2019_Jun_12_1749,Yes-No Task,3,RORE28,
Yes-No Task,23,0,23,0,2.2,-1,Miss,0.633491199929,True,-1,stimulus_RORE28_Yes-No Task_2019_Jun_12_1749_249,-1,True,2019_Jun_12_1749,Yes-No Task,3,RORE28,
Yes-No Task,24,0,24,0,3,-1,Hit,0.567507599946,True,-1,stimulus_RORE28_Yes-No Task_2019_Jun_12_1749_250,-1,True,2019_Jun_12_1749,Yes-No Task,3,RORE28,
Yes-No Task,25,0,25,0,1.4,-1,False Alarm,0.601623399882,False,-1,stimulus_RORE28_Yes-No Task_2019_Jun_12_1749_251,-1,True,2019_Jun_12_1749,Yes-No Task,3,RORE28,
Yes-No Task,26,0,26,0,4.4,-1,Miss,0.700875800103,True,-1,stimulus_RORE28_Yes-No Task_2019_Jun_12_1749_252,-1,True,2019_Jun_12_1749,Yes-No Task,3,RORE28,
Yes-No Task,27,0,27,0,6.6,-1,Correct Rejection,0.735439599957,False,-1,stimulus_RORE28_Yes-No Task_2019_Jun_12_1749_253,-1,True,2019_Jun_12_1749,Yes-No Task,3,RORE28,
Yes-No Task,28,0,28,0,5,-1,Correct Rejection,0.667981000151,False,-1,stimulus_RORE28_Yes-No Task_2019_Jun_12_1749_254,-1,True,2019_Jun_12_1749,Yes-No Task,3,RORE28,
Yes-No Task,29,0,29,0,6.6,-1,Correct Rejection,0.600986300036,False,-1,stimulus_RORE28_Yes-No Task_2019_Jun_12_1749_255,-1,True,2019_Jun_12_1749,Yes-No Task,3,RORE28,
Yes-No Task,30,0,30,0,3.7,-1,Correct Rejection,0.567444999935,False,-1,stimulus_RORE28_Yes-No Task_2019_Jun_12_1749_256,-1,True,2019_Jun_12_1749,Yes-No Task,3,RORE28,
Yes-No Task,31,0,31,0,5,-1,Miss,0.634036700008,True,-1,stimulus_RORE28_Yes-No Task_2019_Jun_12_1749_257,-1,True,2019_Jun_12_1749,Yes-No Task,3,RORE28,
Yes-No Task,32,0,32,0,5,-1,Correct Rejection,0.667078800034,False,-1,stimulus_RORE28_Yes-No Task_2019_Jun_12_1749_258,-1,True,2019_Jun_12_1749,Yes-No Task,3,RORE28,
Yes-No Task,33,0,33,0,5.7,-1,Hit,0.86967039993,True,-1,stimulus_RORE28_Yes-No Task_2019_Jun_12_1749_259,-1,True,2019_Jun_12_1749,Yes-No Task,3,RORE28,
Yes-No Task,34,0,34,0,6.6,-1,Hit,0.535268099979,True,-1,stimulus_RORE28_Yes-No Task_2019_Jun_12_1749_260,-1,True,2019_Jun_12_1749,Yes-No Task,3,RORE28,
Yes-No Task,35,0,35,0,2.2,-1,Hit,0.634147599805,True,-1,stimulus_RORE28_Yes-No Task_2019_Jun_12_1749_261,-1,True,2019_Jun_12_1749,Yes-No Task,3,RORE28,
Yes-No Task,36,0,36,0,6.6,-1,Hit,0.60115360003,True,-1,stimulus_RORE28_Yes-No Task_2019_Jun_12_1749_262,-1,True,2019_Jun_12_1749,Yes-No Task,3,RORE28,
Yes-No Task,37,0,37,0,1.4,-1,Hit,0.734810299939,True,-1,stimulus_RORE28_Yes-No Task_2019_Jun_12_1749_263,-1,True,2019_Jun_12_1749,Yes-No Task,3,RORE28,
Yes-No Task,38,0,38,0,5,-1,Hit,0.568238499807,True,-1,stimulus_RORE28_Yes-No Task_2019_Jun_12_1749_264,-1,True,2019_Jun_12_1749,Yes-No Task,3,RORE28,
Yes-No Task,39,0,39,0,2.2,-1,Hit,0.634285399923,True,-1,stimulus_RORE28_Yes-No Task_2019_Jun_12_1749_265,-1,True,2019_Jun_12_1749,Yes-No Task,3,RORE28,
Yes-No Task,40,0,40,0,3.7,-1,Hit,0.56761300005,True,-1,stimulus_RORE28_Yes-No Task_2019_Jun_12_1749_266,-1,True,2019_Jun_12_1749,Yes-No Task,3,RORE28,
Yes-No Task,41,0,41,0,5.7,-1,Hit,0.532912699971,True,-1,stimulus_RORE28_Yes-No Task_2019_Jun_12_1749_267,-1,True,2019_Jun_12_1749,Yes-No Task,3,RORE28,
Yes-No Task,42,0,42,0,3,-1,Hit,0.533855099929,True,-1,stimulus_RORE28_Yes-No Task_2019_Jun_12_1749_268,-1,True,2019_Jun_12_1749,Yes-No Task,3,RORE28,
Yes-No Task,43,0,43,0,5,-1,Miss,0.567572099855,True,-1,stimulus_RORE28_Yes-No Task_2019_Jun_12_1749_269,-1,True,2019_Jun_12_1749,Yes-No Task,3,RORE28,
Yes-No Task,44,0,44,0,2.2,-1,Correct Rejection,0.667586700059,False,-1,stimulus_RORE28_Yes-No Task_2019_Jun_12_1749_270,-1,True,2019_Jun_12_1749,Yes-No Task,3,RORE28,
Yes-No Task,45,0,45,0,5.7,-1,Correct Rejection,0.603244700003,False,-1,stimulus_RORE28_Yes-No Task_2019_Jun_12_1749_271,-1,True,2019_Jun_12_1749,Yes-No Task,3,RORE28,
Yes-No Task,46,0,46,0,5.7,-1,Miss,0.634446399985,True,-1,stimulus_RORE28_Yes-No Task_2019_Jun_12_1749_272,-1,True,2019_Jun_12_1749,Yes-No Task,3,RORE28,
Yes-No Task,47,0,47,0,6.6,-1,Hit,0.600425400073,True,-1,stimulus_RORE28_Yes-No Task_2019_Jun_12_1749_273,-1,True,2019_Jun_12_1749,Yes-No Task,3,RORE28,
Yes-No Task,48,0,48,0,3,-1,Miss,0.802146599861,True,-1,stimulus_RORE28_Yes-No Task_2019_Jun_12_1749_274,-1,True,2019_Jun_12_1749,Yes-No Task,3,RORE28,
Yes-No Task,49,0,49,0,3.7,-1,Miss,0.66753440001,True,-1,stimulus_RORE28_Yes-No Task_2019_Jun_12_1749_275,-1,True,2019_Jun_12_1749,Yes-No Task,3,RORE28,
Yes-No Task,50,0,50,0,3.7,-1,Hit,0.533776700031,True,-1,stimulus_RORE28_Yes-No Task_2019_Jun_12_1749_276,-1,True,2019_Jun_12_1749,Yes-No Task,3,RORE28,
Yes-No Task,51,0,51,0,2.2,-1,False Alarm,0.500656200107,False,-1,stimulus_RORE28_Yes-No Task_2019_Jun_12_1749_277,-1,True,2019_Jun_12_1749,Yes-No Task,3,RORE28,
Yes-No Task,52,0,52,0,3.7,-1,False Alarm,0.532905800035,False,-1,stimulus_RORE28_Yes-No Task_2019_Jun_12_1749_278,-1,True,2019_Jun_12_1749,Yes-No Task,3,RORE28,
Yes-No Task,53,0,53,0,5,-1,Hit,0.600640199846,True,-1,stimulus_RORE28_Yes-No Task_2019_Jun_12_1749_279,-1,True,2019_Jun_12_1749,Yes-No Task,3,RORE28,
Yes-No Task,54,0,54,0,1.4,-1,Correct Rejection,0.53422209993,False,-1,stimulus_RORE28_Yes-No Task_2019_Jun_12_1749_280,-1,True,2019_Jun_12_1749,Yes-No Task,3,RORE28,
Yes-No Task,55,0,55,0,3.7,-1,Correct Rejection,0.80075699999,False,-1,stimulus_RORE28_Yes-No Task_2019_Jun_12_1749_281,-1,True,2019_Jun_12_1749,Yes-No Task,3,RORE28,
Yes-No Task,56,0,56,0,6.6,-1,Hit,0.500438800082,True,-1,stimulus_RORE28_Yes-No Task_2019_Jun_12_1749_282,-1,True,2019_Jun_12_1749,Yes-No Task,3,RORE28,
Yes-No Task,57,0,57,0,4.4,-1,Hit,0.534081300022,True,-1,stimulus_RORE28_Yes-No Task_2019_Jun_12_1749_283,-1,True,2019_Jun_12_1749,Yes-No Task,3,RORE28,
Yes-No Task,58,0,58,0,2.2,-1,Hit,0.500063100131,True,-1,stimulus_RORE28_Yes-No Task_2019_Jun_12_1749_284,-1,True,2019_Jun_12_1749,Yes-No Task,3,RORE28,
Yes-No Task,59,0,59,0,3.7,-1,False Alarm,0.567420999985,False,-1,stimulus_RORE28_Yes-No Task_2019_Jun_12_1749_285,-1,True,2019_Jun_12_1749,Yes-No Task,3,RORE28,
Yes-No Task,60,0,60,0,6.6,-1,Miss,0.467625300167,True,-1,stimulus_RORE28_Yes-No Task_2019_Jun_12_1749_286,-1,True,2019_Jun_12_1749,Yes-No Task,3,RORE28,
Yes-No Task,61,0,61,0,1.4,-1,False Alarm,0.633967800066,False,-1,stimulus_RORE28_Yes-No Task_2019_Jun_12_1749_287,-1,True,2019_Jun_12_1749,Yes-No Task,3,RORE28,
Yes-No Task,62,0,62,0,3.7,-1,Correct Rejection,0.601148300106,False,-1,stimulus_RORE28_Yes-No Task_2019_Jun_12_1749_288,-1,True,2019_Jun_12_1749,Yes-No Task,3,RORE28,
Yes-No Task,63,0,63,0,5,-1,Hit,0.60247849999,True,-1,stimulus_RORE28_Yes-No Task_2019_Jun_12_1749_289,-1,True,2019_Jun_12_1749,Yes-No Task,3,RORE28,
Yes-No Task,64,0,64,0,3.7,-1,Correct Rejection,0.700631299987,False,-1,stimulus_RORE28_Yes-No Task_2019_Jun_12_1749_290,-1,True,2019_Jun_12_1749,Yes-No Task,3,RORE28,
Yes-No Task,65,0,65,0,2.2,-1,False Alarm,0.500765499892,False,-1,stimulus_RORE28_Yes-No Task_2019_Jun_12_1749_291,-1,True,2019_Jun_12_1749,Yes-No Task,3,RORE28,
Yes-No Task,66,0,66,0,1.4,-1,Miss,0.602032699855,True,-1,stimulus_RORE28_Yes-No Task_2019_Jun_12_1749_292,-1,True,2019_Jun_12_1749,Yes-No Task,3,RORE28,
Yes-No Task,67,0,67,0,3.7,-1,False Alarm,0.502386200009,False,-1,stimulus_RORE28_Yes-No Task_2019_Jun_12_1749_293,-1,True,2019_Jun_12_1749,Yes-No Task,3,RORE28,
Yes-No Task,68,0,68,0,4.4,-1,False Alarm,0.734460999956,False,-1,stimulus_RORE28_Yes-No Task_2019_Jun_12_1749_294,-1,True,2019_Jun_12_1749,Yes-No Task,3,RORE28,
Yes-No Task,69,0,69,0,1.4,-1,False Alarm,0.566991399974,False,-1,stimulus_RORE28_Yes-No Task_2019_Jun_12_1749_295,-1,True,2019_Jun_12_1749,Yes-No Task,3,RORE28,
Yes-No Task,70,0,70,0,6.6,-1,Hit,0.532835700084,True,-1,stimulus_RORE28_Yes-No Task_2019_Jun_12_1749_296,-1,True,2019_Jun_12_1749,Yes-No Task,3,RORE28,
Yes-No Task,71,0,71,0,1.4,-1,No Answer,-1,False,-1,stimulus_RORE28_Yes-No Task_2019_Jun_12_1749_297,-1,True,2019_Jun_12_1749,Yes-No Task,3,RORE28,
Yes-No Task,72,0,72,0,4.4,-1,Hit,0.567228599917,True,-1,stimulus_RORE28_Yes-No Task_2019_Jun_12_1749_298,-1,True,2019_Jun_12_1749,Yes-No Task,3,RORE28,
Yes-No Task,73,0,73,0,3.7,-1,Miss,0.633996399818,True,-1,stimulus_RORE28_Yes-No Task_2019_Jun_12_1749_299,-1,True,2019_Jun_12_1749,Yes-No Task,3,RORE28,
Yes-No Task,74,0,74,0,6.6,-1,Correct Rejection,0.599715300137,False,-1,stimulus_RORE28_Yes-No Task_2019_Jun_12_1749_300,-1,True,2019_Jun_12_1749,Yes-No Task,3,RORE28,
Yes-No Task,0,0,0,0,1.4,-1,Hit,0.534175799927,True,-1,stimulus_RORE28_Yes-No Task_2019_Jun_12_1749_301,-1,True,2019_Jun_12_1749,Yes-No Task,3,RORE28,
Yes-No Task,1,0,1,0,3.7,-1,Miss,0.399787500035,True,-1,stimulus_RORE28_Yes-No Task_2019_Jun_12_1749_302,-1,True,2019_Jun_12_1749,Yes-No Task,3,RORE28,
Yes-No Task,2,0,2,0,5,-1,Hit,0.533804000122,True,-1,stimulus_RORE28_Yes-No Task_2019_Jun_12_1749_303,-1,True,2019_Jun_12_1749,Yes-No Task,3,RORE28,
Yes-No Task,3,0,3,0,6.6,-1,Correct Rejection,0.466345000081,False,-1,stimulus_RORE28_Yes-No Task_2019_Jun_12_1749_304,-1,True,2019_Jun_12_1749,Yes-No Task,3,RORE28,
Yes-No Task,4,0,4,0,3,-1,Miss,0.667798399925,True,-1,stimulus_RORE28_Yes-No Task_2019_Jun_12_1749_305,-1,True,2019_Jun_12_1749,Yes-No Task,3,RORE28,
Yes-No Task,5,0,5,0,2.2,-1,Hit,0.735287900083,True,-1,stimulus_RORE28_Yes-No Task_2019_Jun_12_1749_306,-1,True,2019_Jun_12_1749,Yes-No Task,3,RORE28,
Yes-No Task,6,0,6,0,5.7,-1,Miss,0.634146000026,True,-1,stimulus_RORE28_Yes-No Task_2019_Jun_12_1749_307,-1,True,2019_Jun_12_1749,Yes-No Task,3,RORE28,
Yes-No Task,7,0,7,0,2.2,-1,Miss,0.867343100021,True,-1,stimulus_RORE28_Yes-No Task_2019_Jun_12_1749_308,-1,True,2019_Jun_12_1749,Yes-No Task,3,RORE28,
Yes-No Task,8,0,8,0,3,-1,Correct Rejection,0.500637299847,False,-1,stimulus_RORE28_Yes-No Task_2019_Jun_12_1749_309,-1,True,2019_Jun_12_1749,Yes-No Task,3,RORE28,
Yes-No Task,9,0,9,0,3.7,-1,Correct Rejection,0.500155600021,False,-1,stimulus_RORE28_Yes-No Task_2019_Jun_12_1749_310,-1,True,2019_Jun_12_1749,Yes-No Task,3,RORE28,
Yes-No Task,10,0,10,0,3.7,-1,Correct Rejection,0.86733210017,False,-1,stimulus_RORE28_Yes-No Task_2019_Jun_12_1749_311,-1,True,2019_Jun_12_1749,Yes-No Task,3,RORE28,
Yes-No Task,11,0,11,0,4.4,-1,Correct Rejection,0.56868060003,False,-1,stimulus_RORE28_Yes-No Task_2019_Jun_12_1749_312,-1,True,2019_Jun_12_1749,Yes-No Task,3,RORE28,
Yes-No Task,12,0,12,0,4.4,-1,Hit,0.500372000039,True,-1,stimulus_RORE28_Yes-No Task_2019_Jun_12_1749_313,-1,True,2019_Jun_12_1749,Yes-No Task,3,RORE28,
Yes-No Task,13,0,13,0,2.2,-1,Correct Rejection,0.6009815,False,-1,stimulus_RORE28_Yes-No Task_2019_Jun_12_1749_314,-1,True,2019_Jun_12_1749,Yes-No Task,3,RORE28,
Yes-No Task,14,0,14,0,5,-1,Hit,0.533811199944,True,-1,stimulus_RORE28_Yes-No Task_2019_Jun_12_1749_315,-1,True,2019_Jun_12_1749,Yes-No Task,3,RORE28,
Yes-No Task,15,0,15,0,3,-1,False Alarm,0.499925600132,False,-1,stimulus_RORE28_Yes-No Task_2019_Jun_12_1749_316,-1,True,2019_Jun_12_1749,Yes-No Task,3,RORE28,
Yes-No Task,16,0,16,0,1.4,-1,Miss,0.633285999997,True,-1,stimulus_RORE28_Yes-No Task_2019_Jun_12_1749_317,-1,True,2019_Jun_12_1749,Yes-No Task,3,RORE28,
Yes-No Task,17,0,17,0,4.4,-1,Hit,0.7339906001,True,-1,stimulus_RORE28_Yes-No Task_2019_Jun_12_1749_318,-1,True,2019_Jun_12_1749,Yes-No Task,3,RORE28,
Yes-No Task,18,0,18,0,4.4,-1,False Alarm,0.534501899965,False,-1,stimulus_RORE28_Yes-No Task_2019_Jun_12_1749_319,-1,True,2019_Jun_12_1749,Yes-No Task,3,RORE28,
Yes-No Task,19,0,19,0,1.4,-1,Miss,0.568389300024,True,-1,stimulus_RORE28_Yes-No Task_2019_Jun_12_1749_320,-1,True,2019_Jun_12_1749,Yes-No Task,3,RORE28,
Yes-No Task,20,0,20,0,4.4,-1,False Alarm,0.602687499952,False,-1,stimulus_RORE28_Yes-No Task_2019_Jun_12_1749_321,-1,True,2019_Jun_12_1749,Yes-No Task,3,RORE28,
Yes-No Task,21,0,21,0,3.7,-1,Correct Rejection,0.567213700153,False,-1,stimulus_RORE28_Yes-No Task_2019_Jun_12_1749_322,-1,True,2019_Jun_12_1749,Yes-No Task,3,RORE28,
Yes-No Task,22,0,22,0,1.4,-1,Correct Rejection,0.834167300025,False,-1,stimulus_RORE28_Yes-No Task_2019_Jun_12_1749_323,-1,True,2019_Jun_12_1749,Yes-No Task,3,RORE28,
Yes-No Task,23,0,23,0,5,-1,Hit,0.602726900019,True,-1,stimulus_RORE28_Yes-No Task_2019_Jun_12_1749_324,-1,True,2019_Jun_12_1749,Yes-No Task,3,RORE28,
Yes-No Task,24,0,24,0,3,-1,False Alarm,0.56730110012,False,-1,stimulus_RORE28_Yes-No Task_2019_Jun_12_1749_325,-1,True,2019_Jun_12_1749,Yes-No Task,3,RORE28,
Yes-No Task,25,0,25,0,5.7,-1,Hit,0.536343799904,True,-1,stimulus_RORE28_Yes-No Task_2019_Jun_12_1749_326,-1,True,2019_Jun_12_1749,Yes-No Task,3,RORE28,
Yes-No Task,26,0,26,0,6.6,-1,Correct Rejection,0.567587800091,False,-1,stimulus_RORE28_Yes-No Task_2019_Jun_12_1749_327,-1,True,2019_Jun_12_1749,Yes-No Task,3,RORE28,
Yes-No Task,27,0,27,0,5,-1,Correct Rejection,0.767718799878,False,-1,stimulus_RORE28_Yes-No Task_2019_Jun_12_1749_328,-1,True,2019_Jun_12_1749,Yes-No Task,3,RORE28,
Yes-No Task,28,0,28,0,3.7,-1,Miss,0.59995370009,True,-1,stimulus_RORE28_Yes-No Task_2019_Jun_12_1749_329,-1,True,2019_Jun_12_1749,Yes-No Task,3,RORE28,
Yes-No Task,29,0,29,0,4.4,-1,False Alarm,0.600926500047,False,-1,stimulus_RORE28_Yes-No Task_2019_Jun_12_1749_330,-1,True,2019_Jun_12_1749,Yes-No Task,3,RORE28,
Yes-No Task,30,0,30,0,3,-1,Correct Rejection,0.634910600027,False,-1,stimulus_RORE28_Yes-No Task_2019_Jun_12_1749_331,-1,True,2019_Jun_12_1749,Yes-No Task,3,RORE28,
Yes-No Task,31,0,31,0,3.7,-1,Hit,0.567032200051,True,-1,stimulus_RORE28_Yes-No Task_2019_Jun_12_1749_332,-1,True,2019_Jun_12_1749,Yes-No Task,3,RORE28,
Yes-No Task,32,0,32,0,5.7,-1,Hit,0.534848399926,True,-1,stimulus_RORE28_Yes-No Task_2019_Jun_12_1749_333,-1,True,2019_Jun_12_1749,Yes-No Task,3,RORE28,
Yes-No Task,33,0,33,0,2.2,-1,Correct Rejection,0.600756400032,False,-1,stimulus_RORE28_Yes-No Task_2019_Jun_12_1749_334,-1,True,2019_Jun_12_1749,Yes-No Task,3,RORE28,
Yes-No Task,34,0,34,0,5.7,-1,False Alarm,0.601167900022,False,-1,stimulus_RORE28_Yes-No Task_2019_Jun_12_1749_335,-1,True,2019_Jun_12_1749,Yes-No Task,3,RORE28,
Yes-No Task,35,0,35,0,6.6,-1,Hit,0.567998700077,True,-1,stimulus_RORE28_Yes-No Task_2019_Jun_12_1749_336,-1,True,2019_Jun_12_1749,Yes-No Task,3,RORE28,
Yes-No Task,36,0,36,0,4.4,-1,False Alarm,0.567386899842,False,-1,stimulus_RORE28_Yes-No Task_2019_Jun_12_1749_337,-1,True,2019_Jun_12_1749,Yes-No Task,3,RORE28,
Yes-No Task,37,0,37,0,4.4,-1,False Alarm,0.501175600104,False,-1,stimulus_RORE28_Yes-No Task_2019_Jun_12_1749_338,-1,True,2019_Jun_12_1749,Yes-No Task,3,RORE28,
Yes-No Task,38,0,38,0,6.6,-1,Hit,0.566839199979,True,-1,stimulus_RORE28_Yes-No Task_2019_Jun_12_1749_339,-1,True,2019_Jun_12_1749,Yes-No Task,3,RORE28,
Yes-No Task,39,0,39,0,5,-1,False Alarm,0.567678400083,False,-1,stimulus_RORE28_Yes-No Task_2019_Jun_12_1749_340,-1,True,2019_Jun_12_1749,Yes-No Task,3,RORE28,
Yes-No Task,40,0,40,0,4.4,-1,Correct Rejection,0.500463500153,False,-1,stimulus_RORE28_Yes-No Task_2019_Jun_12_1749_341,-1,True,2019_Jun_12_1749,Yes-No Task,3,RORE28,
Yes-No Task,41,0,41,0,4.4,-1,Miss,0.635337400017,True,-1,stimulus_RORE28_Yes-No Task_2019_Jun_12_1749_342,-1,True,2019_Jun_12_1749,Yes-No Task,3,RORE28,
Yes-No Task,42,0,42,0,6.6,-1,Miss,0.666824600194,True,-1,stimulus_RORE28_Yes-No Task_2019_Jun_12_1749_343,-1,True,2019_Jun_12_1749,Yes-No Task,3,RORE28,
Yes-No Task,43,0,43,0,3.7,-1,Correct Rejection,0.700277799973,False,-1,stimulus_RORE28_Yes-No Task_2019_Jun_12_1749_344,-1,True,2019_Jun_12_1749,Yes-No Task,3,RORE28,
Yes-No Task,44,0,44,0,1.4,-1,Hit,0.569455899997,True,-1,stimulus_RORE28_Yes-No Task_2019_Jun_12_1749_345,-1,True,2019_Jun_12_1749,Yes-No Task,3,RORE28,
Yes-No Task,45,0,45,0,3.7,-1,Correct Rejection,0.734385599848,False,-1,stimulus_RORE28_Yes-No Task_2019_Jun_12_1749_346,-1,True,2019_Jun_12_1749,Yes-No Task,3,RORE28,
Yes-No Task,46,0,46,0,2.2,-1,Hit,0.669567399891,True,-1,stimulus_RORE28_Yes-No Task_2019_Jun_12_1749_347,-1,True,2019_Jun_12_1749,Yes-No Task,3,RORE28,
Yes-No Task,47,0,47,0,1.4,-1,Correct Rejection,0.834081599955,False,-1,stimulus_RORE28_Yes-No Task_2019_Jun_12_1749_348,-1,True,2019_Jun_12_1749,Yes-No Task,3,RORE28,
Yes-No Task,48,0,48,0,3.7,-1,Hit,0.635535300011,True,-1,stimulus_RORE28_Yes-No Task_2019_Jun_12_1749_349,-1,True,2019_Jun_12_1749,Yes-No Task,3,RORE28,
Yes-No Task,49,0,49,0,2.2,-1,Correct Rejection,0.70034119999,False,-1,stimulus_RORE28_Yes-No Task_2019_Jun_12_1749_350,-1,True,2019_Jun_12_1749,Yes-No Task,3,RORE28,
Yes-No Task,50,0,50,0,6.6,-1,Hit,0.534391199937,True,-1,stimulus_RORE28_Yes-No Task_2019_Jun_12_1749_351,-1,True,2019_Jun_12_1749,Yes-No Task,3,RORE28,
Yes-No Task,51,0,51,0,1.4,-1,Correct Rejection,0.800866399892,False,-1,stimulus_RORE28_Yes-No Task_2019_Jun_12_1749_352,-1,True,2019_Jun_12_1749,Yes-No Task,3,RORE28,
Yes-No Task,52,0,52,0,2.2,-1,False Alarm,0.601459500147,False,-1,stimulus_RORE28_Yes-No Task_2019_Jun_12_1749_353,-1,True,2019_Jun_12_1749,Yes-No Task,3,RORE28,
Yes-No Task,53,0,53,0,1.4,-1,Miss,0.700570300221,True,-1,stimulus_RORE28_Yes-No Task_2019_Jun_12_1749_354,-1,True,2019_Jun_12_1749,Yes-No Task,3,RORE28,
Yes-No Task,54,0,54,0,5,-1,False Alarm,0.834686400136,False,-1,stimulus_RORE28_Yes-No Task_2019_Jun_12_1749_355,-1,True,2019_Jun_12_1749,Yes-No Task,3,RORE28,
Yes-No Task,55,0,55,0,5,-1,Hit,0.534672599984,True,-1,stimulus_RORE28_Yes-No Task_2019_Jun_12_1749_356,-1,True,2019_Jun_12_1749,Yes-No Task,3,RORE28,
Yes-No Task,56,0,56,0,4.4,-1,False Alarm,0.667213100009,False,-1,stimulus_RORE28_Yes-No Task_2019_Jun_12_1749_357,-1,True,2019_Jun_12_1749,Yes-No Task,3,RORE28,
Yes-No Task,57,0,57,0,3,-1,False Alarm,0.633000999922,False,-1,stimulus_RORE28_Yes-No Task_2019_Jun_12_1749_358,-1,True,2019_Jun_12_1749,Yes-No Task,3,RORE28,
Yes-No Task,58,0,58,0,5.7,-1,Hit,0.769167900085,True,-1,stimulus_RORE28_Yes-No Task_2019_Jun_12_1749_359,-1,True,2019_Jun_12_1749,Yes-No Task,3,RORE28,
Yes-No Task,59,0,59,0,3,-1,False Alarm,0.767346400069,False,-1,stimulus_RORE28_Yes-No Task_2019_Jun_12_1749_360,-1,True,2019_Jun_12_1749,Yes-No Task,3,RORE28,
Yes-No Task,60,0,60,0,5.7,-1,Hit,0.833564299857,True,-1,stimulus_RORE28_Yes-No Task_2019_Jun_12_1749_361,-1,True,2019_Jun_12_1749,Yes-No Task,3,RORE28,
Yes-No Task,61,0,61,0,3,-1,Miss,0.570316900034,True,-1,stimulus_RORE28_Yes-No Task_2019_Jun_12_1749_362,-1,True,2019_Jun_12_1749,Yes-No Task,3,RORE28,
Yes-No Task,62,0,62,0,1.4,-1,False Alarm,0.567526699975,False,-1,stimulus_RORE28_Yes-No Task_2019_Jun_12_1749_363,-1,True,2019_Jun_12_1749,Yes-No Task,3,RORE28,
Yes-No Task,63,0,63,0,2.2,-1,Correct Rejection,0.566570200026,False,-1,stimulus_RORE28_Yes-No Task_2019_Jun_12_1749_364,-1,True,2019_Jun_12_1749,Yes-No Task,3,RORE28,
Yes-No Task,64,0,64,0,1.4,-1,Miss,0.668142699869,True,-1,stimulus_RORE28_Yes-No Task_2019_Jun_12_1749_365,-1,True,2019_Jun_12_1749,Yes-No Task,3,RORE28,
Yes-No Task,65,0,65,0,6.6,-1,Hit,0.534055300057,True,-1,stimulus_RORE28_Yes-No Task_2019_Jun_12_1749_366,-1,True,2019_Jun_12_1749,Yes-No Task,3,RORE28,
Yes-No Task,66,0,66,0,1.4,-1,Correct Rejection,0.667411700124,False,-1,stimulus_RORE28_Yes-No Task_2019_Jun_12_1749_367,-1,True,2019_Jun_12_1749,Yes-No Task,3,RORE28,
Yes-No Task,67,0,67,0,3,-1,Hit,0.63408940006,True,-1,stimulus_RORE28_Yes-No Task_2019_Jun_12_1749_368,-1,True,2019_Jun_12_1749,Yes-No Task,3,RORE28,
Yes-No Task,68,0,68,0,1.4,-1,False Alarm,0.734467899892,False,-1,stimulus_RORE28_Yes-No Task_2019_Jun_12_1749_369,-1,True,2019_Jun_12_1749,Yes-No Task,3,RORE28,
Yes-No Task,69,0,69,0,4.4,-1,Hit,0.567159899976,True,-1,stimulus_RORE28_Yes-No Task_2019_Jun_12_1749_370,-1,True,2019_Jun_12_1749,Yes-No Task,3,RORE28,
Yes-No Task,70,0,70,0,1.4,-1,Miss,0.701863999944,True,-1,stimulus_RORE28_Yes-No Task_2019_Jun_12_1749_371,-1,True,2019_Jun_12_1749,Yes-No Task,3,RORE28,
Yes-No Task,71,0,71,0,2.2,-1,Hit,0.670120699797,True,-1,stimulus_RORE28_Yes-No Task_2019_Jun_12_1749_372,-1,True,2019_Jun_12_1749,Yes-No Task,3,RORE28,
Yes-No Task,72,0,72,0,3,-1,Hit,0.631079700077,True,-1,stimulus_RORE28_Yes-No Task_2019_Jun_12_1749_373,-1,True,2019_Jun_12_1749,Yes-No Task,3,RORE28,
Yes-No Task,73,0,73,0,3,-1,Miss,0.634093000088,True,-1,stimulus_RORE28_Yes-No Task_2019_Jun_12_1749_374,-1,True,2019_Jun_12_1749,Yes-No Task,3,RORE28,
Yes-No Task,74,0,74,0,5.7,-1,False Alarm,0.602603999898,False,-1,stimulus_RORE28_Yes-No Task_2019_Jun_12_1749_375,-1,True,2019_Jun_12_1749,Yes-No Task,3,RORE28,
Yes-No Task,0,0,0,0,5.7,-1,Miss,0.333205499919,True,-1,stimulus_RORE28_Yes-No Task_2019_Jun_12_1749_376,-1,True,2019_Jun_12_1749,Yes-No Task,3,RORE28,
Yes-No Task,1,0,1,0,3.7,-1,Correct Rejection,0.500742600067,False,-1,stimulus_RORE28_Yes-No Task_2019_Jun_12_1749_377,-1,True,2019_Jun_12_1749,Yes-No Task,3,RORE28,
Yes-No Task,2,0,2,0,5.7,-1,Correct Rejection,0.267314299941,False,-1,stimulus_RORE28_Yes-No Task_2019_Jun_12_1749_378,-1,True,2019_Jun_12_1749,Yes-No Task,3,RORE28,
Yes-No Task,3,0,3,0,5,-1,Hit,0.600405700039,True,-1,stimulus_RORE28_Yes-No Task_2019_Jun_12_1749_379,-1,True,2019_Jun_12_1749,Yes-No Task,3,RORE28,
Yes-No Task,4,0,4,0,3.7,-1,Correct Rejection,0.734146199888,False,-1,stimulus_RORE28_Yes-No Task_2019_Jun_12_1749_380,-1,True,2019_Jun_12_1749,Yes-No Task,3,RORE28,
Yes-No Task,5,0,5,0,5.7,-1,False Alarm,0.502187999897,False,-1,stimulus_RORE28_Yes-No Task_2019_Jun_12_1749_381,-1,True,2019_Jun_12_1749,Yes-No Task,3,RORE28,
Yes-No Task,6,0,6,0,5.7,-1,Correct Rejection,0.534086999949,False,-1,stimulus_RORE28_Yes-No Task_2019_Jun_12_1749_382,-1,True,2019_Jun_12_1749,Yes-No Task,3,RORE28,
Yes-No Task,7,0,7,0,2.2,-1,Miss,0.668215600075,True,-1,stimulus_RORE28_Yes-No Task_2019_Jun_12_1749_383,-1,True,2019_Jun_12_1749,Yes-No Task,3,RORE28,
Yes-No Task,8,0,8,0,5,-1,Hit,0.467257800046,True,-1,stimulus_RORE28_Yes-No Task_2019_Jun_12_1749_384,-1,True,2019_Jun_12_1749,Yes-No Task,3,RORE28,
Yes-No Task,9,0,9,0,5.7,-1,Correct Rejection,0.567249400076,False,-1,stimulus_RORE28_Yes-No Task_2019_Jun_12_1749_385,-1,True,2019_Jun_12_1749,Yes-No Task,3,RORE28,
Yes-No Task,10,0,10,0,2.2,-1,Miss,0.633238699986,True,-1,stimulus_RORE28_Yes-No Task_2019_Jun_12_1749_386,-1,True,2019_Jun_12_1749,Yes-No Task,3,RORE28,
Yes-No Task,11,0,11,0,6.6,-1,Hit,0.467310799984,True,-1,stimulus_RORE28_Yes-No Task_2019_Jun_12_1749_387,-1,True,2019_Jun_12_1749,Yes-No Task,3,RORE28,
Yes-No Task,12,0,12,0,3.7,-1,Correct Rejection,0.667629000032,False,-1,stimulus_RORE28_Yes-No Task_2019_Jun_12_1749_388,-1,True,2019_Jun_12_1749,Yes-No Task,3,RORE28,
Yes-No Task,13,0,13,0,4.4,-1,Hit,0.601295000175,True,-1,stimulus_RORE28_Yes-No Task_2019_Jun_12_1749_389,-1,True,2019_Jun_12_1749,Yes-No Task,3,RORE28,
Yes-No Task,14,0,14,0,5,-1,Hit,0.566858400125,True,-1,stimulus_RORE28_Yes-No Task_2019_Jun_12_1749_390,-1,True,2019_Jun_12_1749,Yes-No Task,3,RORE28,
Yes-No Task,15,0,15,0,1.4,-1,Correct Rejection,0.535086899996,False,-1,stimulus_RORE28_Yes-No Task_2019_Jun_12_1749_391,-1,True,2019_Jun_12_1749,Yes-No Task,3,RORE28,
Yes-No Task,16,0,16,0,4.4,-1,False Alarm,0.534222699935,False,-1,stimulus_RORE28_Yes-No Task_2019_Jun_12_1749_392,-1,True,2019_Jun_12_1749,Yes-No Task,3,RORE28,
Yes-No Task,17,0,17,0,3.7,-1,Correct Rejection,0.700616299873,False,-1,stimulus_RORE28_Yes-No Task_2019_Jun_12_1749_393,-1,True,2019_Jun_12_1749,Yes-No Task,3,RORE28,
Yes-No Task,18,0,18,0,5.7,-1,Miss,0.533694799989,True,-1,stimulus_RORE28_Yes-No Task_2019_Jun_12_1749_394,-1,True,2019_Jun_12_1749,Yes-No Task,3,RORE28,
Yes-No Task,19,0,19,0,5.7,-1,False Alarm,0.598334999988,False,-1,stimulus_RORE28_Yes-No Task_2019_Jun_12_1749_395,-1,True,2019_Jun_12_1749,Yes-No Task,3,RORE28,
Yes-No Task,20,0,20,0,3.7,-1,Correct Rejection,0.567335299915,False,-1,stimulus_RORE28_Yes-No Task_2019_Jun_12_1749_396,-1,True,2019_Jun_12_1749,Yes-No Task,3,RORE28,
Yes-No Task,21,0,21,0,5.7,-1,False Alarm,0.86573430011,False,-1,stimulus_RORE28_Yes-No Task_2019_Jun_12_1749_397,-1,True,2019_Jun_12_1749,Yes-No Task,3,RORE28,
Yes-No Task,22,0,22,0,3.7,-1,Correct Rejection,0.533793400042,False,-1,stimulus_RORE28_Yes-No Task_2019_Jun_12_1749_398,-1,True,2019_Jun_12_1749,Yes-No Task,3,RORE28,
Yes-No Task,23,0,23,0,1.4,-1,Hit,0.500413900008,True,-1,stimulus_RORE28_Yes-No Task_2019_Jun_12_1749_399,-1,True,2019_Jun_12_1749,Yes-No Task,3,RORE28,
Yes-No Task,24,0,24,0,4.4,-1,Hit,0.599652000004,True,-1,stimulus_RORE28_Yes-No Task_2019_Jun_12_1749_400,-1,True,2019_Jun_12_1749,Yes-No Task,3,RORE28,
Yes-No Task,25,0,25,0,5,-1,Correct Rejection,0.601896699984,False,-1,stimulus_RORE28_Yes-No Task_2019_Jun_12_1749_401,-1,True,2019_Jun_12_1749,Yes-No Task,3,RORE28,
Yes-No Task,26,0,26,0,3,-1,Hit,0.533765499946,True,-1,stimulus_RORE28_Yes-No Task_2019_Jun_12_1749_402,-1,True,2019_Jun_12_1749,Yes-No Task,3,RORE28,
Yes-No Task,27,0,27,0,3,-1,Hit,0.568319899961,True,-1,stimulus_RORE28_Yes-No Task_2019_Jun_12_1749_403,-1,True,2019_Jun_12_1749,Yes-No Task,3,RORE28,
Yes-No Task,28,0,28,0,2.2,-1,Correct Rejection,0.670750400051,False,-1,stimulus_RORE28_Yes-No Task_2019_Jun_12_1749_404,-1,True,2019_Jun_12_1749,Yes-No Task,3,RORE28,
Yes-No Task,29,0,29,0,6.6,-1,Hit,0.534119699849,True,-1,stimulus_RORE28_Yes-No Task_2019_Jun_12_1749_405,-1,True,2019_Jun_12_1749,Yes-No Task,3,RORE28,
Yes-No Task,30,0,30,0,5,-1,Correct Rejection,0.799919000128,False,-1,stimulus_RORE28_Yes-No Task_2019_Jun_12_1749_406,-1,True,2019_Jun_12_1749,Yes-No Task,3,RORE28,
Yes-No Task,31,0,31,0,5,-1,Miss,0.500655499985,True,-1,stimulus_RORE28_Yes-No Task_2019_Jun_12_1749_407,-1,True,2019_Jun_12_1749,Yes-No Task,3,RORE28,
Yes-No Task,32,0,32,0,6.6,-1,Miss,0.600733200088,True,-1,stimulus_RORE28_Yes-No Task_2019_Jun_12_1749_408,-1,True,2019_Jun_12_1749,Yes-No Task,3,RORE28,
Yes-No Task,33,0,33,0,3,-1,Correct Rejection,0.601214899914,False,-1,stimulus_RORE28_Yes-No Task_2019_Jun_12_1749_409,-1,True,2019_Jun_12_1749,Yes-No Task,3,RORE28,
Yes-No Task,34,0,34,0,6.6,-1,False Alarm,0.867584499996,False,-1,stimulus_RORE28_Yes-No Task_2019_Jun_12_1749_410,-1,True,2019_Jun_12_1749,Yes-No Task,3,RORE28,
Yes-No Task,35,0,35,0,1.4,-1,Correct Rejection,0.600929199951,False,-1,stimulus_RORE28_Yes-No Task_2019_Jun_12_1749_411,-1,True,2019_Jun_12_1749,Yes-No Task,3,RORE28,
Yes-No Task,36,0,36,0,6.6,-1,Correct Rejection,0.701110600028,False,-1,stimulus_RORE28_Yes-No Task_2019_Jun_12_1749_412,-1,True,2019_Jun_12_1749,Yes-No Task,3,RORE28,
Yes-No Task,37,0,37,0,2.2,-1,Miss,0.566934200004,True,-1,stimulus_RORE28_Yes-No Task_2019_Jun_12_1749_413,-1,True,2019_Jun_12_1749,Yes-No Task,3,RORE28,
Yes-No Task,38,0,38,0,4.4,-1,Hit,0.633976400131,True,-1,stimulus_RORE28_Yes-No Task_2019_Jun_12_1749_414,-1,True,2019_Jun_12_1749,Yes-No Task,3,RORE28,
Yes-No Task,39,0,39,0,1.4,-1,Miss,0.834928400116,True,-1,stimulus_RORE28_Yes-No Task_2019_Jun_12_1749_415,-1,True,2019_Jun_12_1749,Yes-No Task,3,RORE28,
Yes-No Task,40,0,40,0,5,-1,Hit,0.601636799984,True,-1,stimulus_RORE28_Yes-No Task_2019_Jun_12_1749_416,-1,True,2019_Jun_12_1749,Yes-No Task,3,RORE28,
Yes-No Task,41,0,41,0,3,-1,False Alarm,0.533962999936,False,-1,stimulus_RORE28_Yes-No Task_2019_Jun_12_1749_417,-1,True,2019_Jun_12_1749,Yes-No Task,3,RORE28,
Yes-No Task,42,0,42,0,1.4,-1,Correct Rejection,0.567792299902,False,-1,stimulus_RORE28_Yes-No Task_2019_Jun_12_1749_418,-1,True,2019_Jun_12_1749,Yes-No Task,3,RORE28,
Yes-No Task,43,0,43,0,3,-1,Miss,0.667615100043,True,-1,stimulus_RORE28_Yes-No Task_2019_Jun_12_1749_419,-1,True,2019_Jun_12_1749,Yes-No Task,3,RORE28,
Yes-No Task,44,0,44,0,5,-1,Hit,0.569268800085,True,-1,stimulus_RORE28_Yes-No Task_2019_Jun_12_1749_420,-1,True,2019_Jun_12_1749,Yes-No Task,3,RORE28,
Yes-No Task,45,0,45,0,4.4,-1,Correct Rejection,0.600606000051,False,-1,stimulus_RORE28_Yes-No Task_2019_Jun_12_1749_421,-1,True,2019_Jun_12_1749,Yes-No Task,3,RORE28,
Yes-No Task,46,0,46,0,3.7,-1,No Answer,-1,False,-1,stimulus_RORE28_Yes-No Task_2019_Jun_12_1749_422,-1,True,2019_Jun_12_1749,Yes-No Task,3,RORE28,
Yes-No Task,47,0,47,0,3,-1,Correct Rejection,0.533974800026,False,-1,stimulus_RORE28_Yes-No Task_2019_Jun_12_1749_423,-1,True,2019_Jun_12_1749,Yes-No Task,3,RORE28,
Yes-No Task,48,0,48,0,1.4,-1,Miss,0.634311799891,True,-1,stimulus_RORE28_Yes-No Task_2019_Jun_12_1749_424,-1,True,2019_Jun_12_1749,Yes-No Task,3,RORE28,
Yes-No Task,49,0,49,0,2.2,-1,Hit,0.46710629994,True,-1,stimulus_RORE28_Yes-No Task_2019_Jun_12_1749_425,-1,True,2019_Jun_12_1749,Yes-No Task,3,RORE28,
Yes-No Task,50,0,50,0,1.4,-1,Hit,0.634159199893,True,-1,stimulus_RORE28_Yes-No Task_2019_Jun_12_1749_426,-1,True,2019_Jun_12_1749,Yes-No Task,3,RORE28,
Yes-No Task,51,0,51,0,2.2,-1,False Alarm,0.667734799907,False,-1,stimulus_RORE28_Yes-No Task_2019_Jun_12_1749_427,-1,True,2019_Jun_12_1749,Yes-No Task,3,RORE28,
Yes-No Task,52,0,52,0,3,-1,Hit,0.60014409991,True,-1,stimulus_RORE28_Yes-No Task_2019_Jun_12_1749_428,-1,True,2019_Jun_12_1749,Yes-No Task,3,RORE28,
Yes-No Task,53,0,53,0,3,-1,Hit,0.533302000025,True,-1,stimulus_RORE28_Yes-No Task_2019_Jun_12_1749_429,-1,True,2019_Jun_12_1749,Yes-No Task,3,RORE28,
Yes-No Task,54,0,54,0,6.6,-1,Correct Rejection,0.534009200055,False,-1,stimulus_RORE28_Yes-No Task_2019_Jun_12_1749_430,-1,True,2019_Jun_12_1749,Yes-No Task,3,RORE28,
Yes-No Task,55,0,55,0,6.6,-1,Correct Rejection,0.569005700061,False,-1,stimulus_RORE28_Yes-No Task_2019_Jun_12_1749_431,-1,True,2019_Jun_12_1749,Yes-No Task,3,RORE28,
Yes-No Task,56,0,56,0,5.7,-1,Miss,0.534325599903,True,-1,stimulus_RORE28_Yes-No Task_2019_Jun_12_1749_432,-1,True,2019_Jun_12_1749,Yes-No Task,3,RORE28,
Yes-No Task,57,0,57,0,1.4,-1,False Alarm,0.466869299999,False,-1,stimulus_RORE28_Yes-No Task_2019_Jun_12_1749_433,-1,True,2019_Jun_12_1749,Yes-No Task,3,RORE28,
Yes-No Task,58,0,58,0,5,-1,Correct Rejection,0.668139300076,False,-1,stimulus_RORE28_Yes-No Task_2019_Jun_12_1749_434,-1,True,2019_Jun_12_1749,Yes-No Task,3,RORE28,
Yes-No Task,59,0,59,0,2.2,-1,Miss,0.600790599827,True,-1,stimulus_RORE28_Yes-No Task_2019_Jun_12_1749_435,-1,True,2019_Jun_12_1749,Yes-No Task,3,RORE28,
Yes-No Task,60,0,60,0,5.7,-1,Hit,0.533696499886,True,-1,stimulus_RORE28_Yes-No Task_2019_Jun_12_1749_436,-1,True,2019_Jun_12_1749,Yes-No Task,3,RORE28,
Yes-No Task,61,0,61,0,5.7,-1,Correct Rejection,0.700819800142,False,-1,stimulus_RORE28_Yes-No Task_2019_Jun_12_1749_437,-1,True,2019_Jun_12_1749,Yes-No Task,3,RORE28,
Yes-No Task,62,0,62,0,3.7,-1,Miss,0.600424600067,True,-1,stimulus_RORE28_Yes-No Task_2019_Jun_12_1749_438,-1,True,2019_Jun_12_1749,Yes-No Task,3,RORE28,
Yes-No Task,63,0,63,0,1.4,-1,Correct Rejection,0.635791300097,False,-1,stimulus_RORE28_Yes-No Task_2019_Jun_12_1749_439,-1,True,2019_Jun_12_1749,Yes-No Task,3,RORE28,
Yes-No Task,64,0,64,0,5,-1,Hit,0.532727399841,True,-1,stimulus_RORE28_Yes-No Task_2019_Jun_12_1749_440,-1,True,2019_Jun_12_1749,Yes-No Task,3,RORE28,
Yes-No Task,65,0,65,0,3,-1,Correct Rejection,0.632776200073,False,-1,stimulus_RORE28_Yes-No Task_2019_Jun_12_1749_441,-1,True,2019_Jun_12_1749,Yes-No Task,3,RORE28,
Yes-No Task,66,0,66,0,1.4,-1,Miss,0.635723000159,True,-1,stimulus_RORE28_Yes-No Task_2019_Jun_12_1749_442,-1,True,2019_Jun_12_1749,Yes-No Task,3,RORE28,
Yes-No Task,67,0,67,0,3,-1,Hit,0.567503100028,True,-1,stimulus_RORE28_Yes-No Task_2019_Jun_12_1749_443,-1,True,2019_Jun_12_1749,Yes-No Task,3,RORE28,
Yes-No Task,68,0,68,0,6.6,-1,Miss,0.602617600001,True,-1,stimulus_RORE28_Yes-No Task_2019_Jun_12_1749_444,-1,True,2019_Jun_12_1749,Yes-No Task,3,RORE28,
Yes-No Task,69,0,69,0,6.6,-1,Correct Rejection,0.600745700067,False,-1,stimulus_RORE28_Yes-No Task_2019_Jun_12_1749_445,-1,True,2019_Jun_12_1749,Yes-No Task,3,RORE28,
Yes-No Task,70,0,70,0,5.7,-1,Hit,0.667873899918,True,-1,stimulus_RORE28_Yes-No Task_2019_Jun_12_1749_446,-1,True,2019_Jun_12_1749,Yes-No Task,3,RORE28,
Yes-No Task,71,0,71,0,3.7,-1,Correct Rejection,0.667196499882,False,-1,stimulus_RORE28_Yes-No Task_2019_Jun_12_1749_447,-1,True,2019_Jun_12_1749,Yes-No Task,3,RORE28,
Yes-No Task,72,0,72,0,4.4,-1,Hit,0.501126799965,True,-1,stimulus_RORE28_Yes-No Task_2019_Jun_12_1749_448,-1,True,2019_Jun_12_1749,Yes-No Task,3,RORE28,
Yes-No Task,73,0,73,0,5,-1,Miss,0.567225900013,True,-1,stimulus_RORE28_Yes-No Task_2019_Jun_12_1749_449,-1,True,2019_Jun_12_1749,Yes-No Task,3,RORE28,
Yes-No Task,74,0,74,0,3.7,-1,Hit,0.534726700047,True,-1,stimulus_RORE28_Yes-No Task_2019_Jun_12_1749_450,-1,True,2019_Jun_12_1749,Yes-No Task,3,RORE28,
Yes-No Task,0,0,0,0,2.2,-1,Miss,0.50068980013,True,-1,stimulus_RORE28_Yes-No Task_2019_Jun_12_1749_451,-1,True,2019_Jun_12_1749,Yes-No Task,3,RORE28,
Yes-No Task,1,0,1,0,5,-1,Hit,0.26759640011,True,-1,stimulus_RORE28_Yes-No Task_2019_Jun_12_1749_452,-1,True,2019_Jun_12_1749,Yes-No Task,3,RORE28,
Yes-No Task,2,0,2,0,6.6,-1,Correct Rejection,0.499733099947,False,-1,stimulus_RORE28_Yes-No Task_2019_Jun_12_1749_453,-1,True,2019_Jun_12_1749,Yes-No Task,3,RORE28,
Yes-No Task,3,0,3,0,3.7,-1,Hit,0.501730500022,True,-1,stimulus_RORE28_Yes-No Task_2019_Jun_12_1749_454,-1,True,2019_Jun_12_1749,Yes-No Task,3,RORE28,
Yes-No Task,4,0,4,0,5.7,-1,Hit,0.500376099953,True,-1,stimulus_RORE28_Yes-No Task_2019_Jun_12_1749_455,-1,True,2019_Jun_12_1749,Yes-No Task,3,RORE28,
Yes-No Task,5,0,5,0,5,-1,Hit,0.468519499991,True,-1,stimulus_RORE28_Yes-No Task_2019_Jun_12_1749_456,-1,True,2019_Jun_12_1749,Yes-No Task,3,RORE28,
Yes-No Task,6,0,6,0,3.7,-1,Hit,0.567336300155,True,-1,stimulus_RORE28_Yes-No Task_2019_Jun_12_1749_457,-1,True,2019_Jun_12_1749,Yes-No Task,3,RORE28,
Yes-No Task,7,0,7,0,5.7,-1,False Alarm,0.763160299975,False,-1,stimulus_RORE28_Yes-No Task_2019_Jun_12_1749_458,-1,True,2019_Jun_12_1749,Yes-No Task,3,RORE28,
Yes-No Task,8,0,8,0,3.7,-1,Hit,0.532970400061,True,-1,stimulus_RORE28_Yes-No Task_2019_Jun_12_1749_459,-1,True,2019_Jun_12_1749,Yes-No Task,3,RORE28,
Yes-No Task,9,0,9,0,5.7,-1,Correct Rejection,0.534867899958,False,-1,stimulus_RORE28_Yes-No Task_2019_Jun_12_1749_460,-1,True,2019_Jun_12_1749,Yes-No Task,3,RORE28,
Yes-No Task,10,0,10,0,5.7,-1,False Alarm,0.500293599907,False,-1,stimulus_RORE28_Yes-No Task_2019_Jun_12_1749_461,-1,True,2019_Jun_12_1749,Yes-No Task,3,RORE28,
Yes-No Task,11,0,11,0,4.4,-1,Hit,0.565998899983,True,-1,stimulus_RORE28_Yes-No Task_2019_Jun_12_1749_462,-1,True,2019_Jun_12_1749,Yes-No Task,3,RORE28,
Yes-No Task,12,0,12,0,1.4,-1,False Alarm,0.500733300112,False,-1,stimulus_RORE28_Yes-No Task_2019_Jun_12_1749_463,-1,True,2019_Jun_12_1749,Yes-No Task,3,RORE28,
Yes-No Task,13,0,13,0,2.2,-1,Correct Rejection,0.500776699977,False,-1,stimulus_RORE28_Yes-No Task_2019_Jun_12_1749_464,-1,True,2019_Jun_12_1749,Yes-No Task,3,RORE28,
Yes-No Task,14,0,14,0,5,-1,False Alarm,0.467431399971,False,-1,stimulus_RORE28_Yes-No Task_2019_Jun_12_1749_465,-1,True,2019_Jun_12_1749,Yes-No Task,3,RORE28,
Yes-No Task,15,0,15,0,1.4,-1,Miss,0.534224599833,True,-1,stimulus_RORE28_Yes-No Task_2019_Jun_12_1749_466,-1,True,2019_Jun_12_1749,Yes-No Task,3,RORE28,
Yes-No Task,16,0,16,0,2.2,-1,Correct Rejection,0.333991799969,False,-1,stimulus_RORE28_Yes-No Task_2019_Jun_12_1749_467,-1,True,2019_Jun_12_1749,Yes-No Task,3,RORE28,
Yes-No Task,17,0,17,0,5.7,-1,Miss,0.534027900081,True,-1,stimulus_RORE28_Yes-No Task_2019_Jun_12_1749_468,-1,True,2019_Jun_12_1749,Yes-No Task,3,RORE28,
Yes-No Task,18,0,18,0,5,-1,False Alarm,0.502373500029,False,-1,stimulus_RORE28_Yes-No Task_2019_Jun_12_1749_469,-1,True,2019_Jun_12_1749,Yes-No Task,3,RORE28,
Yes-No Task,19,0,19,0,4.4,-1,False Alarm,0.668116300134,False,-1,stimulus_RORE28_Yes-No Task_2019_Jun_12_1749_470,-1,True,2019_Jun_12_1749,Yes-No Task,3,RORE28,
Yes-No Task,20,0,20,0,2.2,-1,Correct Rejection,0.701204700163,False,-1,stimulus_RORE28_Yes-No Task_2019_Jun_12_1749_471,-1,True,2019_Jun_12_1749,Yes-No Task,3,RORE28,
Yes-No Task,21,0,21,0,4.4,-1,Hit,0.734076799825,True,-1,stimulus_RORE28_Yes-No Task_2019_Jun_12_1749_472,-1,True,2019_Jun_12_1749,Yes-No Task,3,RORE28,
Yes-No Task,22,0,22,0,5.7,-1,Hit,0.533979799831,True,-1,stimulus_RORE28_Yes-No Task_2019_Jun_12_1749_473,-1,True,2019_Jun_12_1749,Yes-No Task,3,RORE28,
Yes-No Task,23,0,23,0,3.7,-1,Miss,0.768048500177,True,-1,stimulus_RORE28_Yes-No Task_2019_Jun_12_1749_474,-1,True,2019_Jun_12_1749,Yes-No Task,3,RORE28,
Yes-No Task,24,0,24,0,5.7,-1,False Alarm,0.400824300013,False,-1,stimulus_RORE28_Yes-No Task_2019_Jun_12_1749_475,-1,True,2019_Jun_12_1749,Yes-No Task,3,RORE28,
Yes-No Task,25,0,25,0,2.2,-1,Miss,0.63416310004,True,-1,stimulus_RORE28_Yes-No Task_2019_Jun_12_1749_476,-1,True,2019_Jun_12_1749,Yes-No Task,3,RORE28,
Yes-No Task,26,0,26,0,2.2,-1,Correct Rejection,0.53365740017,False,-1,stimulus_RORE28_Yes-No Task_2019_Jun_12_1749_477,-1,True,2019_Jun_12_1749,Yes-No Task,3,RORE28,
Yes-No Task,27,0,27,0,4.4,-1,Hit,0.600548600079,True,-1,stimulus_RORE28_Yes-No Task_2019_Jun_12_1749_478,-1,True,2019_Jun_12_1749,Yes-No Task,3,RORE28,
Yes-No Task,28,0,28,0,4.4,-1,Miss,0.633122799918,True,-1,stimulus_RORE28_Yes-No Task_2019_Jun_12_1749_479,-1,True,2019_Jun_12_1749,Yes-No Task,3,RORE28,
Yes-No Task,29,0,29,0,1.4,-1,False Alarm,0.46710839984,False,-1,stimulus_RORE28_Yes-No Task_2019_Jun_12_1749_480,-1,True,2019_Jun_12_1749,Yes-No Task,3,RORE28,
Yes-No Task,30,0,30,0,3.7,-1,Hit,0.634059199831,True,-1,stimulus_RORE28_Yes-No Task_2019_Jun_12_1749_481,-1,True,2019_Jun_12_1749,Yes-No Task,3,RORE28,
Yes-No Task,31,0,31,0,4.4,-1,Correct Rejection,0.765366100008,False,-1,stimulus_RORE28_Yes-No Task_2019_Jun_12_1749_482,-1,True,2019_Jun_12_1749,Yes-No Task,3,RORE28,
Yes-No Task,32,0,32,0,5.7,-1,Hit,0.500753700035,True,-1,stimulus_RORE28_Yes-No Task_2019_Jun_12_1749_483,-1,True,2019_Jun_12_1749,Yes-No Task,3,RORE28,
Yes-No Task,33,0,33,0,4.4,-1,Hit,0.532767200144,True,-1,stimulus_RORE28_Yes-No Task_2019_Jun_12_1749_484,-1,True,2019_Jun_12_1749,Yes-No Task,3,RORE28,
Yes-No Task,34,0,34,0,1.4,-1,Correct Rejection,0.633836099878,False,-1,stimulus_RORE28_Yes-No Task_2019_Jun_12_1749_485,-1,True,2019_Jun_12_1749,Yes-No Task,3,RORE28,
Yes-No Task,35,0,35,0,4.4,-1,False Alarm,0.434029399883,False,-1,stimulus_RORE28_Yes-No Task_2019_Jun_12_1749_486,-1,True,2019_Jun_12_1749,Yes-No Task,3,RORE28,
Yes-No Task,36,0,36,0,5,-1,Miss,0.401883100159,True,-1,stimulus_RORE28_Yes-No Task_2019_Jun_12_1749_487,-1,True,2019_Jun_12_1749,Yes-No Task,3,RORE28,
Yes-No Task,37,0,37,0,3.7,-1,Hit,0.500712000066,True,-1,stimulus_RORE28_Yes-No Task_2019_Jun_12_1749_488,-1,True,2019_Jun_12_1749,Yes-No Task,3,RORE28,
Yes-No Task,38,0,38,0,1.4,-1,Hit,0.567083700094,True,-1,stimulus_RORE28_Yes-No Task_2019_Jun_12_1749_489,-1,True,2019_Jun_12_1749,Yes-No Task,3,RORE28,
Yes-No Task,39,0,39,0,2.2,-1,Correct Rejection,0.600918099983,False,-1,stimulus_RORE28_Yes-No Task_2019_Jun_12_1749_490,-1,True,2019_Jun_12_1749,Yes-No Task,3,RORE28,
Yes-No Task,40,0,40,0,4.4,-1,Hit,0.533503800165,True,-1,stimulus_RORE28_Yes-No Task_2019_Jun_12_1749_491,-1,True,2019_Jun_12_1749,Yes-No Task,3,RORE28,
Yes-No Task,41,0,41,0,2.2,-1,Correct Rejection,0.634053699905,False,-1,stimulus_RORE28_Yes-No Task_2019_Jun_12_1749_492,-1,True,2019_Jun_12_1749,Yes-No Task,3,RORE28,
Yes-No Task,42,0,42,0,5,-1,Correct Rejection,0.667157200165,False,-1,stimulus_RORE28_Yes-No Task_2019_Jun_12_1749_493,-1,True,2019_Jun_12_1749,Yes-No Task,3,RORE28,
Yes-No Task,43,0,43,0,3.7,-1,Correct Rejection,0.534976500086,False,-1,stimulus_RORE28_Yes-No Task_2019_Jun_12_1749_494,-1,True,2019_Jun_12_1749,Yes-No Task,3,RORE28,
Yes-No Task,44,0,44,0,6.6,-1,Hit,0.634815299883,True,-1,stimulus_RORE28_Yes-No Task_2019_Jun_12_1749_495,-1,True,2019_Jun_12_1749,Yes-No Task,3,RORE28,
Yes-No Task,45,0,45,0,4.4,-1,Miss,0.534587200033,True,-1,stimulus_RORE28_Yes-No Task_2019_Jun_12_1749_496,-1,True,2019_Jun_12_1749,Yes-No Task,3,RORE28,
Yes-No Task,46,0,46,0,1.4,-1,Hit,0.567048599944,True,-1,stimulus_RORE28_Yes-No Task_2019_Jun_12_1749_497,-1,True,2019_Jun_12_1749,Yes-No Task,3,RORE28,
Yes-No Task,47,0,47,0,5,-1,Correct Rejection,0.700719200075,False,-1,stimulus_RORE28_Yes-No Task_2019_Jun_12_1749_498,-1,True,2019_Jun_12_1749,Yes-No Task,3,RORE28,
Yes-No Task,48,0,48,0,2.2,-1,False Alarm,0.633300400106,False,-1,stimulus_RORE28_Yes-No Task_2019_Jun_12_1749_499,-1,True,2019_Jun_12_1749,Yes-No Task,3,RORE28,
Yes-No Task,49,0,49,0,4.4,-1,False Alarm,0.80102699995,False,-1,stimulus_RORE28_Yes-No Task_2019_Jun_12_1749_500,-1,True,2019_Jun_12_1749,Yes-No Task,3,RORE28,
Yes-No Task,50,0,50,0,5,-1,Hit,0.634020899888,True,-1,stimulus_RORE28_Yes-No Task_2019_Jun_12_1749_501,-1,True,2019_Jun_12_1749,Yes-No Task,3,RORE28,
Yes-No Task,51,0,51,0,4.4,-1,Correct Rejection,0.566616999917,False,-1,stimulus_RORE28_Yes-No Task_2019_Jun_12_1749_502,-1,True,2019_Jun_12_1749,Yes-No Task,3,RORE28,
Yes-No Task,52,0,52,0,2.2,-1,Correct Rejection,0.533940900117,False,-1,stimulus_RORE28_Yes-No Task_2019_Jun_12_1749_503,-1,True,2019_Jun_12_1749,Yes-No Task,3,RORE28,
Yes-No Task,53,0,53,0,3.7,-1,Correct Rejection,0.500985600054,False,-1,stimulus_RORE28_Yes-No Task_2019_Jun_12_1749_504,-1,True,2019_Jun_12_1749,Yes-No Task,3,RORE28,
Yes-No Task,54,0,54,0,5,-1,Hit,0.633887700038,True,-1,stimulus_RORE28_Yes-No Task_2019_Jun_12_1749_505,-1,True,2019_Jun_12_1749,Yes-No Task,3,RORE28,
Yes-No Task,55,0,55,0,3,-1,Miss,0.567329799989,True,-1,stimulus_RORE28_Yes-No Task_2019_Jun_12_1749_506,-1,True,2019_Jun_12_1749,Yes-No Task,3,RORE28,
Yes-No Task,56,0,56,0,3.7,-1,Miss,0.568629699992,True,-1,stimulus_RORE28_Yes-No Task_2019_Jun_12_1749_507,-1,True,2019_Jun_12_1749,Yes-No Task,3,RORE28,
Yes-No Task,57,0,57,0,2.2,-1,Miss,0.600670799846,True,-1,stimulus_RORE28_Yes-No Task_2019_Jun_12_1749_508,-1,True,2019_Jun_12_1749,Yes-No Task,3,RORE28,
Yes-No Task,58,0,58,0,6.6,-1,Hit,0.534161600051,True,-1,stimulus_RORE28_Yes-No Task_2019_Jun_12_1749_509,-1,True,2019_Jun_12_1749,Yes-No Task,3,RORE28,
Yes-No Task,59,0,59,0,6.6,-1,Hit,0.533865500009,True,-1,stimulus_RORE28_Yes-No Task_2019_Jun_12_1749_510,-1,True,2019_Jun_12_1749,Yes-No Task,3,RORE28,
Yes-No Task,60,0,60,0,2.2,-1,Correct Rejection,0.601942999987,False,-1,stimulus_RORE28_Yes-No Task_2019_Jun_12_1749_511,-1,True,2019_Jun_12_1749,Yes-No Task,3,RORE28,
Yes-No Task,61,0,61,0,1.4,-1,Correct Rejection,0.567114999983,False,-1,stimulus_RORE28_Yes-No Task_2019_Jun_12_1749_512,-1,True,2019_Jun_12_1749,Yes-No Task,3,RORE28,
Yes-No Task,62,0,62,0,2.2,-1,Miss,0.566721400013,True,-1,stimulus_RORE28_Yes-No Task_2019_Jun_12_1749_513,-1,True,2019_Jun_12_1749,Yes-No Task,3,RORE28,
Yes-No Task,63,0,63,0,4.4,-1,False Alarm,0.533398800064,False,-1,stimulus_RORE28_Yes-No Task_2019_Jun_12_1749_514,-1,True,2019_Jun_12_1749,Yes-No Task,3,RORE28,
Yes-No Task,64,0,64,0,2.2,-1,Correct Rejection,0.368091100128,False,-1,stimulus_RORE28_Yes-No Task_2019_Jun_12_1749_515,-1,True,2019_Jun_12_1749,Yes-No Task,3,RORE28,
Yes-No Task,65,0,65,0,2.2,-1,Miss,0.600173899904,True,-1,stimulus_RORE28_Yes-No Task_2019_Jun_12_1749_516,-1,True,2019_Jun_12_1749,Yes-No Task,3,RORE28,
Yes-No Task,66,0,66,0,4.4,-1,False Alarm,0.467834299896,False,-1,stimulus_RORE28_Yes-No Task_2019_Jun_12_1749_517,-1,True,2019_Jun_12_1749,Yes-No Task,3,RORE28,
Yes-No Task,67,0,67,0,5,-1,Correct Rejection,0.63309290004,False,-1,stimulus_RORE28_Yes-No Task_2019_Jun_12_1749_518,-1,True,2019_Jun_12_1749,Yes-No Task,3,RORE28,
Yes-No Task,68,0,68,0,6.6,-1,Correct Rejection,0.601115999976,False,-1,stimulus_RORE28_Yes-No Task_2019_Jun_12_1749_519,-1,True,2019_Jun_12_1749,Yes-No Task,3,RORE28,
Yes-No Task,69,0,69,0,6.6,-1,Hit,0.535486199893,True,-1,stimulus_RORE28_Yes-No Task_2019_Jun_12_1749_520,-1,True,2019_Jun_12_1749,Yes-No Task,3,RORE28,
Yes-No Task,70,0,70,0,3.7,-1,Hit,0.566098599927,True,-1,stimulus_RORE28_Yes-No Task_2019_Jun_12_1749_521,-1,True,2019_Jun_12_1749,Yes-No Task,3,RORE28,
Yes-No Task,71,0,71,0,5,-1,Correct Rejection,0.602124899859,False,-1,stimulus_RORE28_Yes-No Task_2019_Jun_12_1749_522,-1,True,2019_Jun_12_1749,Yes-No Task,3,RORE28,
Yes-No Task,72,0,72,0,5,-1,Correct Rejection,0.567098600091,False,-1,stimulus_RORE28_Yes-No Task_2019_Jun_12_1749_523,-1,True,2019_Jun_12_1749,Yes-No Task,3,RORE28,
Yes-No Task,73,0,73,0,5.7,-1,Correct Rejection,0.567544799997,False,-1,stimulus_RORE28_Yes-No Task_2019_Jun_12_1749_524,-1,True,2019_Jun_12_1749,Yes-No Task,3,RORE28,
Yes-No Task,74,0,74,0,3,-1,Correct Rejection,0.564533700002,False,-1,stimulus_RORE28_Yes-No Task_2019_Jun_12_1749_525,-1,True,2019_Jun_12_1749,Yes-No Task,3,RORE28,
Yes-No Task,0,0,0,0,1.4,-1,Correct Rejection,0.53483369993,False,-1,stimulus_RORE28_Yes-No Task_2019_Jun_12_1749_526,-1,True,2019_Jun_12_1749,Yes-No Task,3,RORE28,
Yes-No Task,1,0,1,0,3.7,-1,Correct Rejection,0.567673400044,False,-1,stimulus_RORE28_Yes-No Task_2019_Jun_12_1749_527,-1,True,2019_Jun_12_1749,Yes-No Task,3,RORE28,
Yes-No Task,2,0,2,0,5,-1,Miss,0.535332199885,True,-1,stimulus_RORE28_Yes-No Task_2019_Jun_12_1749_528,-1,True,2019_Jun_12_1749,Yes-No Task,3,RORE28,
Yes-No Task,3,0,3,0,3,-1,Miss,0.635994599899,True,-1,stimulus_RORE28_Yes-No Task_2019_Jun_12_1749_529,-1,True,2019_Jun_12_1749,Yes-No Task,3,RORE28,
Yes-No Task,4,0,4,0,6.6,-1,Hit,0.600332499947,True,-1,stimulus_RORE28_Yes-No Task_2019_Jun_12_1749_530,-1,True,2019_Jun_12_1749,Yes-No Task,3,RORE28,
Yes-No Task,5,0,5,0,2.2,-1,Miss,0.633915299783,True,-1,stimulus_RORE28_Yes-No Task_2019_Jun_12_1749_531,-1,True,2019_Jun_12_1749,Yes-No Task,3,RORE28,
Yes-No Task,6,0,6,0,1.4,-1,Hit,0.534677499905,True,-1,stimulus_RORE28_Yes-No Task_2019_Jun_12_1749_532,-1,True,2019_Jun_12_1749,Yes-No Task,3,RORE28,
Yes-No Task,7,0,7,0,5,-1,False Alarm,0.53371099988,False,-1,stimulus_RORE28_Yes-No Task_2019_Jun_12_1749_533,-1,True,2019_Jun_12_1749,Yes-No Task,3,RORE28,
Yes-No Task,8,0,8,0,4.4,-1,Correct Rejection,0.53458109987,False,-1,stimulus_RORE28_Yes-No Task_2019_Jun_12_1749_534,-1,True,2019_Jun_12_1749,Yes-No Task,3,RORE28,
Yes-No Task,9,0,9,0,1.4,-1,Correct Rejection,0.767446799902,False,-1,stimulus_RORE28_Yes-No Task_2019_Jun_12_1749_535,-1,True,2019_Jun_12_1749,Yes-No Task,3,RORE28,
Yes-No Task,10,0,10,0,2.2,-1,Miss,0.634187399875,True,-1,stimulus_RORE28_Yes-No Task_2019_Jun_12_1749_536,-1,True,2019_Jun_12_1749,Yes-No Task,3,RORE28,
Yes-No Task,11,0,11,0,6.6,-1,False Alarm,0.666839800077,False,-1,stimulus_RORE28_Yes-No Task_2019_Jun_12_1749_537,-1,True,2019_Jun_12_1749,Yes-No Task,3,RORE28,
Yes-No Task,12,0,12,0,1.4,-1,Miss,0.667137900135,True,-1,stimulus_RORE28_Yes-No Task_2019_Jun_12_1749_538,-1,True,2019_Jun_12_1749,Yes-No Task,3,RORE28,
Yes-No Task,13,0,13,0,2.2,-1,False Alarm,0.599548100028,False,-1,stimulus_RORE28_Yes-No Task_2019_Jun_12_1749_539,-1,True,2019_Jun_12_1749,Yes-No Task,3,RORE28,
Yes-No Task,14,0,14,0,5.7,-1,False Alarm,0.834507100051,False,-1,stimulus_RORE28_Yes-No Task_2019_Jun_12_1749_540,-1,True,2019_Jun_12_1749,Yes-No Task,3,RORE28,
Yes-No Task,15,0,15,0,5.7,-1,False Alarm,0.733824500116,False,-1,stimulus_RORE28_Yes-No Task_2019_Jun_12_1749_541,-1,True,2019_Jun_12_1749,Yes-No Task,3,RORE28,
Yes-No Task,16,0,16,0,3,-1,Miss,0.668240899919,True,-1,stimulus_RORE28_Yes-No Task_2019_Jun_12_1749_542,-1,True,2019_Jun_12_1749,Yes-No Task,3,RORE28,
Yes-No Task,17,0,17,0,3.7,-1,Miss,0.801051000133,True,-1,stimulus_RORE28_Yes-No Task_2019_Jun_12_1749_543,-1,True,2019_Jun_12_1749,Yes-No Task,3,RORE28,
Yes-No Task,18,0,18,0,5.7,-1,No Answer,-1,True,-1,stimulus_RORE28_Yes-No Task_2019_Jun_12_1749_544,-1,True,2019_Jun_12_1749,Yes-No Task,3,RORE28,
Yes-No Task,19,0,19,0,3,-1,Miss,0.734021399869,True,-1,stimulus_RORE28_Yes-No Task_2019_Jun_12_1749_545,-1,True,2019_Jun_12_1749,Yes-No Task,3,RORE28,
Yes-No Task,20,0,20,0,6.6,-1,Hit,0.600620900048,True,-1,stimulus_RORE28_Yes-No Task_2019_Jun_12_1749_546,-1,True,2019_Jun_12_1749,Yes-No Task,3,RORE28,
Yes-No Task,21,0,21,0,3.7,-1,Miss,0.634578899946,True,-1,stimulus_RORE28_Yes-No Task_2019_Jun_12_1749_547,-1,True,2019_Jun_12_1749,Yes-No Task,3,RORE28,
Yes-No Task,22,0,22,0,6.6,-1,No Answer,-1,False,-1,stimulus_RORE28_Yes-No Task_2019_Jun_12_1749_548,-1,True,2019_Jun_12_1749,Yes-No Task,3,RORE28,
Yes-No Task,23,0,23,0,2.2,-1,False Alarm,0.500444200123,False,-1,stimulus_RORE28_Yes-No Task_2019_Jun_12_1749_549,-1,True,2019_Jun_12_1749,Yes-No Task,3,RORE28,
Yes-No Task,24,0,24,0,5,-1,No Answer,-1,False,-1,stimulus_RORE28_Yes-No Task_2019_Jun_12_1749_550,-1,True,2019_Jun_12_1749,Yes-No Task,3,RORE28,
Yes-No Task,25,0,25,0,5,-1,Correct Rejection,0.568454700056,False,-1,stimulus_RORE28_Yes-No Task_2019_Jun_12_1749_551,-1,True,2019_Jun_12_1749,Yes-No Task,3,RORE28,
Yes-No Task,26,0,26,0,5,-1,Miss,0.664000699995,True,-1,stimulus_RORE28_Yes-No Task_2019_Jun_12_1749_552,-1,True,2019_Jun_12_1749,Yes-No Task,3,RORE28,
Yes-No Task,27,0,27,0,3.7,-1,Correct Rejection,0.867506999988,False,-1,stimulus_RORE28_Yes-No Task_2019_Jun_12_1749_553,-1,True,2019_Jun_12_1749,Yes-No Task,3,RORE28,
Yes-No Task,28,0,28,0,6.6,-1,Hit,0.667187400162,True,-1,stimulus_RORE28_Yes-No Task_2019_Jun_12_1749_554,-1,True,2019_Jun_12_1749,Yes-No Task,3,RORE28,
Yes-No Task,29,0,29,0,6.6,-1,Correct Rejection,0.867415300105,False,-1,stimulus_RORE28_Yes-No Task_2019_Jun_12_1749_555,-1,True,2019_Jun_12_1749,Yes-No Task,3,RORE28,
Yes-No Task,30,0,30,0,5,-1,Miss,0.766969699878,True,-1,stimulus_RORE28_Yes-No Task_2019_Jun_12_1749_556,-1,True,2019_Jun_12_1749,Yes-No Task,3,RORE28,
Yes-No Task,31,0,31,0,1.4,-1,No Answer,-1,False,-1,stimulus_RORE28_Yes-No Task_2019_Jun_12_1749_557,-1,True,2019_Jun_12_1749,Yes-No Task,3,RORE28,
Yes-No Task,32,0,32,0,4.4,-1,Hit,0.567160299979,True,-1,stimulus_RORE28_Yes-No Task_2019_Jun_12_1749_558,-1,True,2019_Jun_12_1749,Yes-No Task,3,RORE28,
Yes-No Task,33,0,33,0,4.4,-1,No Answer,-1,True,-1,stimulus_RORE28_Yes-No Task_2019_Jun_12_1749_559,-1,True,2019_Jun_12_1749,Yes-No Task,3,RORE28,
Yes-No Task,34,0,34,0,2.2,-1,Miss,0.533733799821,True,-1,stimulus_RORE28_Yes-No Task_2019_Jun_12_1749_560,-1,True,2019_Jun_12_1749,Yes-No Task,3,RORE28,
Yes-No Task,35,0,35,0,6.6,-1,Hit,0.700426899828,True,-1,stimulus_RORE28_Yes-No Task_2019_Jun_12_1749_561,-1,True,2019_Jun_12_1749,Yes-No Task,3,RORE28,
Yes-No Task,36,0,36,0,5,-1,Miss,0.56740929978,True,-1,stimulus_RORE28_Yes-No Task_2019_Jun_12_1749_562,-1,True,2019_Jun_12_1749,Yes-No Task,3,RORE28,
Yes-No Task,37,0,37,0,2.2,-1,Miss,0.765321499901,True,-1,stimulus_RORE28_Yes-No Task_2019_Jun_12_1749_563,-1,True,2019_Jun_12_1749,Yes-No Task,3,RORE28,
Yes-No Task,38,0,38,0,5.7,-1,False Alarm,0.668148400029,False,-1,stimulus_RORE28_Yes-No Task_2019_Jun_12_1749_564,-1,True,2019_Jun_12_1749,Yes-No Task,3,RORE28,
Yes-No Task,39,0,39,0,5,-1,Correct Rejection,0.834542500088,False,-1,stimulus_RORE28_Yes-No Task_2019_Jun_12_1749_565,-1,True,2019_Jun_12_1749,Yes-No Task,3,RORE28,
Yes-No Task,40,0,40,0,5.7,-1,Hit,0.668276699958,True,-1,stimulus_RORE28_Yes-No Task_2019_Jun_12_1749_566,-1,True,2019_Jun_12_1749,Yes-No Task,3,RORE28,
Yes-No Task,41,0,41,0,3.7,-1,Hit,0.700739199994,True,-1,stimulus_RORE28_Yes-No Task_2019_Jun_12_1749_567,-1,True,2019_Jun_12_1749,Yes-No Task,3,RORE28,
Yes-No Task,42,0,42,0,4.4,-1,Miss,0.700401199982,True,-1,stimulus_RORE28_Yes-No Task_2019_Jun_12_1749_568,-1,True,2019_Jun_12_1749,Yes-No Task,3,RORE28,
Yes-No Task,43,0,43,0,1.4,-1,Miss,0.732109099859,True,-1,stimulus_RORE28_Yes-No Task_2019_Jun_12_1749_569,-1,True,2019_Jun_12_1749,Yes-No Task,3,RORE28,
Yes-No Task,44,0,44,0,6.6,-1,Hit,0.567443300039,True,-1,stimulus_RORE28_Yes-No Task_2019_Jun_12_1749_570,-1,True,2019_Jun_12_1749,Yes-No Task,3,RORE28,
Yes-No Task,45,0,45,0,1.4,-1,Hit,0.63355030003,True,-1,stimulus_RORE28_Yes-No Task_2019_Jun_12_1749_571,-1,True,2019_Jun_12_1749,Yes-No Task,3,RORE28,
Yes-No Task,46,0,46,0,6.6,-1,Miss,0.568449100014,True,-1,stimulus_RORE28_Yes-No Task_2019_Jun_12_1749_572,-1,True,2019_Jun_12_1749,Yes-No Task,3,RORE28,
Yes-No Task,47,0,47,0,2.2,-1,Miss,0.767644200008,True,-1,stimulus_RORE28_Yes-No Task_2019_Jun_12_1749_573,-1,True,2019_Jun_12_1749,Yes-No Task,3,RORE28,
Yes-No Task,48,0,48,0,2.2,-1,False Alarm,0.531032699859,False,-1,stimulus_RORE28_Yes-No Task_2019_Jun_12_1749_574,-1,True,2019_Jun_12_1749,Yes-No Task,3,RORE28,
Yes-No Task,49,0,49,0,3.7,-1,False Alarm,0.667095999932,False,-1,stimulus_RORE28_Yes-No Task_2019_Jun_12_1749_575,-1,True,2019_Jun_12_1749,Yes-No Task,3,RORE28,
Yes-No Task,50,0,50,0,6.6,-1,No Answer,-1,False,-1,stimulus_RORE28_Yes-No Task_2019_Jun_12_1749_576,-1,True,2019_Jun_12_1749,Yes-No Task,3,RORE28,
Yes-No Task,51,0,51,0,3,-1,Correct Rejection,0.600990799954,False,-1,stimulus_RORE28_Yes-No Task_2019_Jun_12_1749_577,-1,True,2019_Jun_12_1749,Yes-No Task,3,RORE28,
Yes-No Task,52,0,52,0,6.6,-1,Correct Rejection,0.834005499957,False,-1,stimulus_RORE28_Yes-No Task_2019_Jun_12_1749_578,-1,True,2019_Jun_12_1749,Yes-No Task,3,RORE28,
Yes-No Task,53,0,53,0,4.4,-1,Hit,0.633901099907,True,-1,stimulus_RORE28_Yes-No Task_2019_Jun_12_1749_579,-1,True,2019_Jun_12_1749,Yes-No Task,3,RORE28,
Yes-No Task,54,0,54,0,2.2,-1,Hit,0.866889799945,True,-1,stimulus_RORE28_Yes-No Task_2019_Jun_12_1749_580,-1,True,2019_Jun_12_1749,Yes-No Task,3,RORE28,
Yes-No Task,55,0,55,0,2.2,-1,Hit,0.668369400082,True,-1,stimulus_RORE28_Yes-No Task_2019_Jun_12_1749_581,-1,True,2019_Jun_12_1749,Yes-No Task,3,RORE28,
Yes-No Task,56,0,56,0,5,-1,Hit,0.566925199935,True,-1,stimulus_RORE28_Yes-No Task_2019_Jun_12_1749_582,-1,True,2019_Jun_12_1749,Yes-No Task,3,RORE28,
Yes-No Task,57,0,57,0,1.4,-1,Miss,0.704012099886,True,-1,stimulus_RORE28_Yes-No Task_2019_Jun_12_1749_583,-1,True,2019_Jun_12_1749,Yes-No Task,3,RORE28,
Yes-No Task,58,0,58,0,3.7,-1,Hit,0.600142100127,True,-1,stimulus_RORE28_Yes-No Task_2019_Jun_12_1749_584,-1,True,2019_Jun_12_1749,Yes-No Task,3,RORE28,
Yes-No Task,59,0,59,0,6.6,-1,False Alarm,0.79983230005,False,-1,stimulus_RORE28_Yes-No Task_2019_Jun_12_1749_585,-1,True,2019_Jun_12_1749,Yes-No Task,3,RORE28,
Yes-No Task,60,0,60,0,4.4,-1,Correct Rejection,0.867773300037,False,-1,stimulus_RORE28_Yes-No Task_2019_Jun_12_1749_586,-1,True,2019_Jun_12_1749,Yes-No Task,3,RORE28,
Yes-No Task,61,0,61,0,3.7,-1,Correct Rejection,0.634009900037,False,-1,stimulus_RORE28_Yes-No Task_2019_Jun_12_1749_587,-1,True,2019_Jun_12_1749,Yes-No Task,3,RORE28,
Yes-No Task,62,0,62,0,6.6,-1,Correct Rejection,0.600570200011,False,-1,stimulus_RORE28_Yes-No Task_2019_Jun_12_1749_588,-1,True,2019_Jun_12_1749,Yes-No Task,3,RORE28,
Yes-No Task,63,0,63,0,5,-1,Hit,0.534093800001,True,-1,stimulus_RORE28_Yes-No Task_2019_Jun_12_1749_589,-1,True,2019_Jun_12_1749,Yes-No Task,3,RORE28,
Yes-No Task,64,0,64,0,2.2,-1,Correct Rejection,0.667433600174,False,-1,stimulus_RORE28_Yes-No Task_2019_Jun_12_1749_590,-1,True,2019_Jun_12_1749,Yes-No Task,3,RORE28,
Yes-No Task,65,0,65,0,3.7,-1,False Alarm,0.599993499927,False,-1,stimulus_RORE28_Yes-No Task_2019_Jun_12_1749_591,-1,True,2019_Jun_12_1749,Yes-No Task,3,RORE28,
Yes-No Task,66,0,66,0,6.6,-1,Hit,0.566864399938,True,-1,stimulus_RORE28_Yes-No Task_2019_Jun_12_1749_592,-1,True,2019_Jun_12_1749,Yes-No Task,3,RORE28,
Yes-No Task,67,0,67,0,6.6,-1,Hit,0.533965099836,True,-1,stimulus_RORE28_Yes-No Task_2019_Jun_12_1749_593,-1,True,2019_Jun_12_1749,Yes-No Task,3,RORE28,
Yes-No Task,68,0,68,0,5.7,-1,False Alarm,0.835327500012,False,-1,stimulus_RORE28_Yes-No Task_2019_Jun_12_1749_594,-1,True,2019_Jun_12_1749,Yes-No Task,3,RORE28,
Yes-No Task,69,0,69,0,5.7,-1,Hit,0.66867309995,True,-1,stimulus_RORE28_Yes-No Task_2019_Jun_12_1749_595,-1,True,2019_Jun_12_1749,Yes-No Task,3,RORE28,
Yes-No Task,70,0,70,0,5.7,-1,Hit,0.565990899922,True,-1,stimulus_RORE28_Yes-No Task_2019_Jun_12_1749_596,-1,True,2019_Jun_12_1749,Yes-No Task,3,RORE28,
Yes-No Task,71,0,71,0,3,-1,Miss,0.566815000027,True,-1,stimulus_RORE28_Yes-No Task_2019_Jun_12_1749_597,-1,True,2019_Jun_12_1749,Yes-No Task,3,RORE28,
Yes-No Task,72,0,72,0,5.7,-1,Hit,0.434360899962,True,-1,stimulus_RORE28_Yes-No Task_2019_Jun_12_1749_598,-1,True,2019_Jun_12_1749,Yes-No Task,3,RORE28,
Yes-No Task,73,0,73,0,2.2,-1,Correct Rejection,0.601717500016,False,-1,stimulus_RORE28_Yes-No Task_2019_Jun_12_1749_599,-1,True,2019_Jun_12_1749,Yes-No Task,3,RORE28,
Yes-No Task,74,0,74,0,5,-1,Miss,0.734812699957,True,-1,stimulus_RORE28_Yes-No Task_2019_Jun_12_1749_600,-1,True,2019_Jun_12_1749,Yes-No Task,3,RORE28,
