Task,trials.thisRepN,trials.thisTrialN,trials.thisN,trials.thisIndex,signal_intensity,constant Value,response,time_response,signal_on_stimuluspos1,signal_on_stimuluspos2,stimulus_name_pos1,stimulus_name_pos2,random_intensity,date,expName,session,participant,
2IFC,0,0,0,0,9.7,-1,correct answer,0.633623000002,False,True,stimulusTOSY08_2IFC_2019_Jul_02_1233_1,stimulusTOSY08_2IFC_2019_Jul_02_1233_2,True,2019_Jul_02_1233,2IFC,3,TOSY08,
2IFC,1,0,1,0,10.7,-1,correct answer,0.266961299814,True,False,stimulusTOSY08_2IFC_2019_Jul_02_1233_3,stimulusTOSY08_2IFC_2019_Jul_02_1233_4,True,2019_Jul_02_1233,2IFC,3,TOSY08,
2IFC,2,0,2,0,8.7,-1,correct answer,0.334951499943,True,False,stimulusTOSY08_2IFC_2019_Jul_02_1233_5,stimulusTOSY08_2IFC_2019_Jul_02_1233_6,True,2019_Jul_02_1233,2IFC,3,TOSY08,
2IFC,3,0,3,0,10.7,-1,correct answer,0.46833329997,False,True,stimulusTOSY08_2IFC_2019_Jul_02_1233_7,stimulusTOSY08_2IFC_2019_Jul_02_1233_8,True,2019_Jul_02_1233,2IFC,3,TOSY08,
2IFC,4,0,4,0,7.7,-1,wrong answer,0.597823899938,True,False,stimulusTOSY08_2IFC_2019_Jul_02_1233_9,stimulusTOSY08_2IFC_2019_Jul_02_1233_10,True,2019_Jul_02_1233,2IFC,3,TOSY08,
2IFC,5,0,5,0,12.9,-1,correct answer,0.469378400128,False,True,stimulusTOSY08_2IFC_2019_Jul_02_1233_11,stimulusTOSY08_2IFC_2019_Jul_02_1233_12,True,2019_Jul_02_1233,2IFC,3,TOSY08,
2IFC,6,0,6,0,4.9,-1,correct answer,0.569889300037,True,False,stimulusTOSY08_2IFC_2019_Jul_02_1233_13,stimulusTOSY08_2IFC_2019_Jul_02_1233_14,True,2019_Jul_02_1233,2IFC,3,TOSY08,
2IFC,7,0,7,0,11.7,-1,correct answer,0.266547200037,True,False,stimulusTOSY08_2IFC_2019_Jul_02_1233_15,stimulusTOSY08_2IFC_2019_Jul_02_1233_16,True,2019_Jul_02_1233,2IFC,3,TOSY08,
2IFC,8,0,8,0,6.5,-1,correct answer,0.436626499984,False,True,stimulusTOSY08_2IFC_2019_Jul_02_1233_17,stimulusTOSY08_2IFC_2019_Jul_02_1233_18,True,2019_Jul_02_1233,2IFC,3,TOSY08,
2IFC,9,0,9,0,4.9,-1,correct answer,0.501379600028,False,True,stimulusTOSY08_2IFC_2019_Jul_02_1233_19,stimulusTOSY08_2IFC_2019_Jul_02_1233_20,True,2019_Jul_02_1233,2IFC,3,TOSY08,
2IFC,10,0,10,0,11.7,-1,correct answer,0.535568999825,False,True,stimulusTOSY08_2IFC_2019_Jul_02_1233_21,stimulusTOSY08_2IFC_2019_Jul_02_1233_22,True,2019_Jul_02_1233,2IFC,3,TOSY08,
2IFC,11,0,11,0,12.9,-1,correct answer,0.46698649996,False,True,stimulusTOSY08_2IFC_2019_Jul_02_1233_23,stimulusTOSY08_2IFC_2019_Jul_02_1233_24,True,2019_Jul_02_1233,2IFC,3,TOSY08,
2IFC,12,0,12,0,11.7,-1,correct answer,0.400606399868,False,True,stimulusTOSY08_2IFC_2019_Jul_02_1233_25,stimulusTOSY08_2IFC_2019_Jul_02_1233_26,True,2019_Jul_02_1233,2IFC,3,TOSY08,
2IFC,13,0,13,0,4.9,-1,correct answer,0.433374200016,False,True,stimulusTOSY08_2IFC_2019_Jul_02_1233_27,stimulusTOSY08_2IFC_2019_Jul_02_1233_28,True,2019_Jul_02_1233,2IFC,3,TOSY08,
2IFC,14,0,14,0,8.7,-1,correct answer,0.332241599914,True,False,stimulusTOSY08_2IFC_2019_Jul_02_1233_29,stimulusTOSY08_2IFC_2019_Jul_02_1233_30,True,2019_Jul_02_1233,2IFC,3,TOSY08,
2IFC,15,0,15,0,9.7,-1,correct answer,0.600948499981,False,True,stimulusTOSY08_2IFC_2019_Jul_02_1233_31,stimulusTOSY08_2IFC_2019_Jul_02_1233_32,True,2019_Jul_02_1233,2IFC,3,TOSY08,
2IFC,16,0,16,0,12.9,-1,wrong answer,0.467755600112,False,True,stimulusTOSY08_2IFC_2019_Jul_02_1233_33,stimulusTOSY08_2IFC_2019_Jul_02_1233_34,True,2019_Jul_02_1233,2IFC,3,TOSY08,
2IFC,17,0,17,0,6.5,-1,correct answer,0.53509049979,False,True,stimulusTOSY08_2IFC_2019_Jul_02_1233_35,stimulusTOSY08_2IFC_2019_Jul_02_1233_36,True,2019_Jul_02_1233,2IFC,3,TOSY08,
2IFC,18,0,18,0,11.7,-1,correct answer,0.40066169994,True,False,stimulusTOSY08_2IFC_2019_Jul_02_1233_37,stimulusTOSY08_2IFC_2019_Jul_02_1233_38,True,2019_Jul_02_1233,2IFC,3,TOSY08,
2IFC,19,0,19,0,10.7,-1,correct answer,0.333176600048,True,False,stimulusTOSY08_2IFC_2019_Jul_02_1233_39,stimulusTOSY08_2IFC_2019_Jul_02_1233_40,True,2019_Jul_02_1233,2IFC,3,TOSY08,
2IFC,20,0,20,0,7.7,-1,correct answer,0.700754699996,True,False,stimulusTOSY08_2IFC_2019_Jul_02_1233_41,stimulusTOSY08_2IFC_2019_Jul_02_1233_42,True,2019_Jul_02_1233,2IFC,3,TOSY08,
2IFC,21,0,21,0,4.9,-1,wrong answer,0.734041800024,False,True,stimulusTOSY08_2IFC_2019_Jul_02_1233_43,stimulusTOSY08_2IFC_2019_Jul_02_1233_44,True,2019_Jul_02_1233,2IFC,3,TOSY08,
2IFC,22,0,22,0,6.5,-1,correct answer,0.467545500025,False,True,stimulusTOSY08_2IFC_2019_Jul_02_1233_45,stimulusTOSY08_2IFC_2019_Jul_02_1233_46,True,2019_Jul_02_1233,2IFC,3,TOSY08,
2IFC,23,0,23,0,10.7,-1,correct answer,0.364674299955,True,False,stimulusTOSY08_2IFC_2019_Jul_02_1233_47,stimulusTOSY08_2IFC_2019_Jul_02_1233_48,True,2019_Jul_02_1233,2IFC,3,TOSY08,
2IFC,24,0,24,0,12.9,-1,correct answer,0.434998800047,False,True,stimulusTOSY08_2IFC_2019_Jul_02_1233_49,stimulusTOSY08_2IFC_2019_Jul_02_1233_50,True,2019_Jul_02_1233,2IFC,3,TOSY08,
2IFC,25,0,25,0,6.5,-1,correct answer,0.5025553999,False,True,stimulusTOSY08_2IFC_2019_Jul_02_1233_51,stimulusTOSY08_2IFC_2019_Jul_02_1233_52,True,2019_Jul_02_1233,2IFC,3,TOSY08,
2IFC,26,0,26,0,10.7,-1,correct answer,0.30230910005,True,False,stimulusTOSY08_2IFC_2019_Jul_02_1233_53,stimulusTOSY08_2IFC_2019_Jul_02_1233_54,True,2019_Jul_02_1233,2IFC,3,TOSY08,
2IFC,27,0,27,0,6.5,-1,wrong answer,0.6005708999,False,True,stimulusTOSY08_2IFC_2019_Jul_02_1233_55,stimulusTOSY08_2IFC_2019_Jul_02_1233_56,True,2019_Jul_02_1233,2IFC,3,TOSY08,
2IFC,28,0,28,0,4.9,-1,correct answer,0.634554200107,True,False,stimulusTOSY08_2IFC_2019_Jul_02_1233_57,stimulusTOSY08_2IFC_2019_Jul_02_1233_58,True,2019_Jul_02_1233,2IFC,3,TOSY08,
2IFC,29,0,29,0,7.7,-1,no answer,-1,False,True,stimulusTOSY08_2IFC_2019_Jul_02_1233_59,stimulusTOSY08_2IFC_2019_Jul_02_1233_60,True,2019_Jul_02_1233,2IFC,3,TOSY08,
2IFC,30,0,30,0,11.7,-1,correct answer,0.300793400034,True,False,stimulusTOSY08_2IFC_2019_Jul_02_1233_61,stimulusTOSY08_2IFC_2019_Jul_02_1233_62,True,2019_Jul_02_1233,2IFC,3,TOSY08,
2IFC,31,0,31,0,4.9,-1,correct answer,0.432771499967,True,False,stimulusTOSY08_2IFC_2019_Jul_02_1233_63,stimulusTOSY08_2IFC_2019_Jul_02_1233_64,True,2019_Jul_02_1233,2IFC,3,TOSY08,
2IFC,32,0,32,0,9.7,-1,correct answer,0.431236200035,True,False,stimulusTOSY08_2IFC_2019_Jul_02_1233_65,stimulusTOSY08_2IFC_2019_Jul_02_1233_66,True,2019_Jul_02_1233,2IFC,3,TOSY08,
2IFC,33,0,33,0,7.7,-1,correct answer,0.533744499786,True,False,stimulusTOSY08_2IFC_2019_Jul_02_1233_67,stimulusTOSY08_2IFC_2019_Jul_02_1233_68,True,2019_Jul_02_1233,2IFC,3,TOSY08,
2IFC,34,0,34,0,10.7,-1,correct answer,0.433722600108,True,False,stimulusTOSY08_2IFC_2019_Jul_02_1233_69,stimulusTOSY08_2IFC_2019_Jul_02_1233_70,True,2019_Jul_02_1233,2IFC,3,TOSY08,
2IFC,35,0,35,0,7.7,-1,correct answer,0.602435099892,True,False,stimulusTOSY08_2IFC_2019_Jul_02_1233_71,stimulusTOSY08_2IFC_2019_Jul_02_1233_72,True,2019_Jul_02_1233,2IFC,3,TOSY08,
2IFC,36,0,36,0,6.5,-1,correct answer,0.466799799819,True,False,stimulusTOSY08_2IFC_2019_Jul_02_1233_73,stimulusTOSY08_2IFC_2019_Jul_02_1233_74,True,2019_Jul_02_1233,2IFC,3,TOSY08,
2IFC,37,0,37,0,9.7,-1,correct answer,0.36734170001,True,False,stimulusTOSY08_2IFC_2019_Jul_02_1233_75,stimulusTOSY08_2IFC_2019_Jul_02_1233_76,True,2019_Jul_02_1233,2IFC,3,TOSY08,
2IFC,38,0,38,0,11.7,-1,correct answer,0.334088200005,True,False,stimulusTOSY08_2IFC_2019_Jul_02_1233_77,stimulusTOSY08_2IFC_2019_Jul_02_1233_78,True,2019_Jul_02_1233,2IFC,3,TOSY08,
2IFC,39,0,39,0,10.7,-1,correct answer,0.533527899999,False,True,stimulusTOSY08_2IFC_2019_Jul_02_1233_79,stimulusTOSY08_2IFC_2019_Jul_02_1233_80,True,2019_Jul_02_1233,2IFC,3,TOSY08,
2IFC,40,0,40,0,8.7,-1,correct answer,0.466249899939,False,True,stimulusTOSY08_2IFC_2019_Jul_02_1233_81,stimulusTOSY08_2IFC_2019_Jul_02_1233_82,True,2019_Jul_02_1233,2IFC,3,TOSY08,
2IFC,41,0,41,0,9.7,-1,correct answer,0.501135299914,False,True,stimulusTOSY08_2IFC_2019_Jul_02_1233_83,stimulusTOSY08_2IFC_2019_Jul_02_1233_84,True,2019_Jul_02_1233,2IFC,3,TOSY08,
2IFC,42,0,42,0,8.7,-1,correct answer,0.400274000131,True,False,stimulusTOSY08_2IFC_2019_Jul_02_1233_85,stimulusTOSY08_2IFC_2019_Jul_02_1233_86,True,2019_Jul_02_1233,2IFC,3,TOSY08,
2IFC,43,0,43,0,8.7,-1,correct answer,0.46697920002,False,True,stimulusTOSY08_2IFC_2019_Jul_02_1233_87,stimulusTOSY08_2IFC_2019_Jul_02_1233_88,True,2019_Jul_02_1233,2IFC,3,TOSY08,
2IFC,44,0,44,0,9.7,-1,wrong answer,0.500543399947,False,True,stimulusTOSY08_2IFC_2019_Jul_02_1233_89,stimulusTOSY08_2IFC_2019_Jul_02_1233_90,True,2019_Jul_02_1233,2IFC,3,TOSY08,
2IFC,45,0,45,0,4.9,-1,correct answer,0.46755880001,True,False,stimulusTOSY08_2IFC_2019_Jul_02_1233_91,stimulusTOSY08_2IFC_2019_Jul_02_1233_92,True,2019_Jul_02_1233,2IFC,3,TOSY08,
2IFC,46,0,46,0,11.7,-1,correct answer,0.43359050015,False,True,stimulusTOSY08_2IFC_2019_Jul_02_1233_93,stimulusTOSY08_2IFC_2019_Jul_02_1233_94,True,2019_Jul_02_1233,2IFC,3,TOSY08,
2IFC,47,0,47,0,7.7,-1,correct answer,0.500308600022,False,True,stimulusTOSY08_2IFC_2019_Jul_02_1233_95,stimulusTOSY08_2IFC_2019_Jul_02_1233_96,True,2019_Jul_02_1233,2IFC,3,TOSY08,
2IFC,48,0,48,0,4.9,-1,correct answer,0.537237900076,False,True,stimulusTOSY08_2IFC_2019_Jul_02_1233_97,stimulusTOSY08_2IFC_2019_Jul_02_1233_98,True,2019_Jul_02_1233,2IFC,3,TOSY08,
2IFC,49,0,49,0,7.7,-1,correct answer,0.400889999932,False,True,stimulusTOSY08_2IFC_2019_Jul_02_1233_99,stimulusTOSY08_2IFC_2019_Jul_02_1233_100,True,2019_Jul_02_1233,2IFC,3,TOSY08,
2IFC,50,0,50,0,7.7,-1,correct answer,0.267384599894,True,False,stimulusTOSY08_2IFC_2019_Jul_02_1233_101,stimulusTOSY08_2IFC_2019_Jul_02_1233_102,True,2019_Jul_02_1233,2IFC,3,TOSY08,
2IFC,51,0,51,0,9.7,-1,correct answer,0.434399999911,True,False,stimulusTOSY08_2IFC_2019_Jul_02_1233_103,stimulusTOSY08_2IFC_2019_Jul_02_1233_104,True,2019_Jul_02_1233,2IFC,3,TOSY08,
2IFC,52,0,52,0,6.5,-1,correct answer,0.300200900063,True,False,stimulusTOSY08_2IFC_2019_Jul_02_1233_105,stimulusTOSY08_2IFC_2019_Jul_02_1233_106,True,2019_Jul_02_1233,2IFC,3,TOSY08,
2IFC,53,0,53,0,6.5,-1,correct answer,0.433374099899,False,True,stimulusTOSY08_2IFC_2019_Jul_02_1233_107,stimulusTOSY08_2IFC_2019_Jul_02_1233_108,True,2019_Jul_02_1233,2IFC,3,TOSY08,
2IFC,54,0,54,0,10.7,-1,correct answer,0.400870699901,False,True,stimulusTOSY08_2IFC_2019_Jul_02_1233_109,stimulusTOSY08_2IFC_2019_Jul_02_1233_110,True,2019_Jul_02_1233,2IFC,3,TOSY08,
2IFC,55,0,55,0,11.7,-1,wrong answer,0.601367299911,False,True,stimulusTOSY08_2IFC_2019_Jul_02_1233_111,stimulusTOSY08_2IFC_2019_Jul_02_1233_112,True,2019_Jul_02_1233,2IFC,3,TOSY08,
2IFC,56,0,56,0,10.7,-1,correct answer,0.434071799973,False,True,stimulusTOSY08_2IFC_2019_Jul_02_1233_113,stimulusTOSY08_2IFC_2019_Jul_02_1233_114,True,2019_Jul_02_1233,2IFC,3,TOSY08,
2IFC,57,0,57,0,12.9,-1,correct answer,0.500359100057,False,True,stimulusTOSY08_2IFC_2019_Jul_02_1233_115,stimulusTOSY08_2IFC_2019_Jul_02_1233_116,True,2019_Jul_02_1233,2IFC,3,TOSY08,
2IFC,58,0,58,0,11.7,-1,correct answer,0.767616499914,True,False,stimulusTOSY08_2IFC_2019_Jul_02_1233_117,stimulusTOSY08_2IFC_2019_Jul_02_1233_118,True,2019_Jul_02_1233,2IFC,3,TOSY08,
2IFC,59,0,59,0,8.7,-1,correct answer,0.66874520015,False,True,stimulusTOSY08_2IFC_2019_Jul_02_1233_119,stimulusTOSY08_2IFC_2019_Jul_02_1233_120,True,2019_Jul_02_1233,2IFC,3,TOSY08,
2IFC,60,0,60,0,6.5,-1,correct answer,0.535862599965,True,False,stimulusTOSY08_2IFC_2019_Jul_02_1233_121,stimulusTOSY08_2IFC_2019_Jul_02_1233_122,True,2019_Jul_02_1233,2IFC,3,TOSY08,
2IFC,61,0,61,0,9.7,-1,correct answer,0.533890999854,True,False,stimulusTOSY08_2IFC_2019_Jul_02_1233_123,stimulusTOSY08_2IFC_2019_Jul_02_1233_124,True,2019_Jul_02_1233,2IFC,3,TOSY08,
2IFC,62,0,62,0,6.5,-1,correct answer,0.568485800177,True,False,stimulusTOSY08_2IFC_2019_Jul_02_1233_125,stimulusTOSY08_2IFC_2019_Jul_02_1233_126,True,2019_Jul_02_1233,2IFC,3,TOSY08,
2IFC,63,0,63,0,7.7,-1,correct answer,0.667958100094,True,False,stimulusTOSY08_2IFC_2019_Jul_02_1233_127,stimulusTOSY08_2IFC_2019_Jul_02_1233_128,True,2019_Jul_02_1233,2IFC,3,TOSY08,
2IFC,64,0,64,0,8.7,-1,correct answer,0.433908900013,True,False,stimulusTOSY08_2IFC_2019_Jul_02_1233_129,stimulusTOSY08_2IFC_2019_Jul_02_1233_130,True,2019_Jul_02_1233,2IFC,3,TOSY08,
2IFC,65,0,65,0,12.9,-1,correct answer,0.467511900002,False,True,stimulusTOSY08_2IFC_2019_Jul_02_1233_131,stimulusTOSY08_2IFC_2019_Jul_02_1233_132,True,2019_Jul_02_1233,2IFC,3,TOSY08,
2IFC,66,0,66,0,12.9,-1,correct answer,0.166587000014,True,False,stimulusTOSY08_2IFC_2019_Jul_02_1233_133,stimulusTOSY08_2IFC_2019_Jul_02_1233_134,True,2019_Jul_02_1233,2IFC,3,TOSY08,
2IFC,67,0,67,0,10.7,-1,correct answer,0.302889100043,True,False,stimulusTOSY08_2IFC_2019_Jul_02_1233_135,stimulusTOSY08_2IFC_2019_Jul_02_1233_136,True,2019_Jul_02_1233,2IFC,3,TOSY08,
2IFC,68,0,68,0,10.7,-1,correct answer,0.33484279993,True,False,stimulusTOSY08_2IFC_2019_Jul_02_1233_137,stimulusTOSY08_2IFC_2019_Jul_02_1233_138,True,2019_Jul_02_1233,2IFC,3,TOSY08,
2IFC,69,0,69,0,8.7,-1,correct answer,0.333853299962,False,True,stimulusTOSY08_2IFC_2019_Jul_02_1233_139,stimulusTOSY08_2IFC_2019_Jul_02_1233_140,True,2019_Jul_02_1233,2IFC,3,TOSY08,
2IFC,70,0,70,0,7.7,-1,correct answer,0.534690899774,True,False,stimulusTOSY08_2IFC_2019_Jul_02_1233_141,stimulusTOSY08_2IFC_2019_Jul_02_1233_142,True,2019_Jul_02_1233,2IFC,3,TOSY08,
2IFC,71,0,71,0,9.7,-1,correct answer,0.600674999878,True,False,stimulusTOSY08_2IFC_2019_Jul_02_1233_143,stimulusTOSY08_2IFC_2019_Jul_02_1233_144,True,2019_Jul_02_1233,2IFC,3,TOSY08,
2IFC,72,0,72,0,11.7,-1,correct answer,0.30103740003,True,False,stimulusTOSY08_2IFC_2019_Jul_02_1233_145,stimulusTOSY08_2IFC_2019_Jul_02_1233_146,True,2019_Jul_02_1233,2IFC,3,TOSY08,
2IFC,73,0,73,0,12.9,-1,correct answer,0.40001480002,True,False,stimulusTOSY08_2IFC_2019_Jul_02_1233_147,stimulusTOSY08_2IFC_2019_Jul_02_1233_148,True,2019_Jul_02_1233,2IFC,3,TOSY08,
2IFC,74,0,74,0,4.9,-1,correct answer,0.467953999992,True,False,stimulusTOSY08_2IFC_2019_Jul_02_1233_149,stimulusTOSY08_2IFC_2019_Jul_02_1233_150,True,2019_Jul_02_1233,2IFC,3,TOSY08,
2IFC,0,0,0,0,7.7,-1,correct answer,0.302184900036,False,True,stimulusTOSY08_2IFC_2019_Jul_02_1233_151,stimulusTOSY08_2IFC_2019_Jul_02_1233_152,True,2019_Jul_02_1233,2IFC,3,TOSY08,
2IFC,1,0,1,0,10.7,-1,correct answer,0.467235899996,False,True,stimulusTOSY08_2IFC_2019_Jul_02_1233_153,stimulusTOSY08_2IFC_2019_Jul_02_1233_154,True,2019_Jul_02_1233,2IFC,3,TOSY08,
2IFC,2,0,2,0,9.7,-1,correct answer,0.400924799964,False,True,stimulusTOSY08_2IFC_2019_Jul_02_1233_155,stimulusTOSY08_2IFC_2019_Jul_02_1233_156,True,2019_Jul_02_1233,2IFC,3,TOSY08,
2IFC,3,0,3,0,9.7,-1,correct answer,0.469610499917,False,True,stimulusTOSY08_2IFC_2019_Jul_02_1233_157,stimulusTOSY08_2IFC_2019_Jul_02_1233_158,True,2019_Jul_02_1233,2IFC,3,TOSY08,
2IFC,4,0,4,0,6.5,-1,correct answer,0.434106600005,True,False,stimulusTOSY08_2IFC_2019_Jul_02_1233_159,stimulusTOSY08_2IFC_2019_Jul_02_1233_160,True,2019_Jul_02_1233,2IFC,3,TOSY08,
2IFC,5,0,5,0,4.9,-1,correct answer,0.533773399889,True,False,stimulusTOSY08_2IFC_2019_Jul_02_1233_161,stimulusTOSY08_2IFC_2019_Jul_02_1233_162,True,2019_Jul_02_1233,2IFC,3,TOSY08,
2IFC,6,0,6,0,12.9,-1,correct answer,0.466484299861,True,False,stimulusTOSY08_2IFC_2019_Jul_02_1233_163,stimulusTOSY08_2IFC_2019_Jul_02_1233_164,True,2019_Jul_02_1233,2IFC,3,TOSY08,
2IFC,7,0,7,0,12.9,-1,correct answer,0.667376999976,False,True,stimulusTOSY08_2IFC_2019_Jul_02_1233_165,stimulusTOSY08_2IFC_2019_Jul_02_1233_166,True,2019_Jul_02_1233,2IFC,3,TOSY08,
2IFC,8,0,8,0,12.9,-1,correct answer,0.633189700078,False,True,stimulusTOSY08_2IFC_2019_Jul_02_1233_167,stimulusTOSY08_2IFC_2019_Jul_02_1233_168,True,2019_Jul_02_1233,2IFC,3,TOSY08,
2IFC,9,0,9,0,6.5,-1,correct answer,0.500906900037,False,True,stimulusTOSY08_2IFC_2019_Jul_02_1233_169,stimulusTOSY08_2IFC_2019_Jul_02_1233_170,True,2019_Jul_02_1233,2IFC,3,TOSY08,
2IFC,10,0,10,0,10.7,-1,correct answer,0.499484000029,False,True,stimulusTOSY08_2IFC_2019_Jul_02_1233_171,stimulusTOSY08_2IFC_2019_Jul_02_1233_172,True,2019_Jul_02_1233,2IFC,3,TOSY08,
2IFC,11,0,11,0,7.7,-1,wrong answer,0.668202700093,False,True,stimulusTOSY08_2IFC_2019_Jul_02_1233_173,stimulusTOSY08_2IFC_2019_Jul_02_1233_174,True,2019_Jul_02_1233,2IFC,3,TOSY08,
2IFC,12,0,12,0,10.7,-1,correct answer,0.499256000156,True,False,stimulusTOSY08_2IFC_2019_Jul_02_1233_175,stimulusTOSY08_2IFC_2019_Jul_02_1233_176,True,2019_Jul_02_1233,2IFC,3,TOSY08,
2IFC,13,0,13,0,12.9,-1,correct answer,0.466916800011,False,True,stimulusTOSY08_2IFC_2019_Jul_02_1233_177,stimulusTOSY08_2IFC_2019_Jul_02_1233_178,True,2019_Jul_02_1233,2IFC,3,TOSY08,
2IFC,14,0,14,0,6.5,-1,correct answer,0.601263000164,False,True,stimulusTOSY08_2IFC_2019_Jul_02_1233_179,stimulusTOSY08_2IFC_2019_Jul_02_1233_180,True,2019_Jul_02_1233,2IFC,3,TOSY08,
2IFC,15,0,15,0,9.7,-1,correct answer,0.468699999852,True,False,stimulusTOSY08_2IFC_2019_Jul_02_1233_181,stimulusTOSY08_2IFC_2019_Jul_02_1233_182,True,2019_Jul_02_1233,2IFC,3,TOSY08,
2IFC,16,0,16,0,12.9,-1,correct answer,0.434541900177,False,True,stimulusTOSY08_2IFC_2019_Jul_02_1233_183,stimulusTOSY08_2IFC_2019_Jul_02_1233_184,True,2019_Jul_02_1233,2IFC,3,TOSY08,
2IFC,17,0,17,0,6.5,-1,correct answer,0.334649499971,True,False,stimulusTOSY08_2IFC_2019_Jul_02_1233_185,stimulusTOSY08_2IFC_2019_Jul_02_1233_186,True,2019_Jul_02_1233,2IFC,3,TOSY08,
2IFC,18,0,18,0,4.9,-1,correct answer,0.667848200072,False,True,stimulusTOSY08_2IFC_2019_Jul_02_1233_187,stimulusTOSY08_2IFC_2019_Jul_02_1233_188,True,2019_Jul_02_1233,2IFC,3,TOSY08,
2IFC,19,0,19,0,11.7,-1,correct answer,0.300376500003,True,False,stimulusTOSY08_2IFC_2019_Jul_02_1233_189,stimulusTOSY08_2IFC_2019_Jul_02_1233_190,True,2019_Jul_02_1233,2IFC,3,TOSY08,
2IFC,20,0,20,0,4.9,-1,correct answer,0.567260399926,False,True,stimulusTOSY08_2IFC_2019_Jul_02_1233_191,stimulusTOSY08_2IFC_2019_Jul_02_1233_192,True,2019_Jul_02_1233,2IFC,3,TOSY08,
2IFC,21,0,21,0,8.7,-1,correct answer,0.333679900039,True,False,stimulusTOSY08_2IFC_2019_Jul_02_1233_193,stimulusTOSY08_2IFC_2019_Jul_02_1233_194,True,2019_Jul_02_1233,2IFC,3,TOSY08,
2IFC,22,0,22,0,4.9,-1,wrong answer,0.634636200033,False,True,stimulusTOSY08_2IFC_2019_Jul_02_1233_195,stimulusTOSY08_2IFC_2019_Jul_02_1233_196,True,2019_Jul_02_1233,2IFC,3,TOSY08,
2IFC,23,0,23,0,10.7,-1,correct answer,0.500198499998,True,False,stimulusTOSY08_2IFC_2019_Jul_02_1233_197,stimulusTOSY08_2IFC_2019_Jul_02_1233_198,True,2019_Jul_02_1233,2IFC,3,TOSY08,
2IFC,24,0,24,0,9.7,-1,correct answer,0.46769859991,False,True,stimulusTOSY08_2IFC_2019_Jul_02_1233_199,stimulusTOSY08_2IFC_2019_Jul_02_1233_200,True,2019_Jul_02_1233,2IFC,3,TOSY08,
2IFC,25,0,25,0,11.7,-1,correct answer,0.367647900013,True,False,stimulusTOSY08_2IFC_2019_Jul_02_1233_201,stimulusTOSY08_2IFC_2019_Jul_02_1233_202,True,2019_Jul_02_1233,2IFC,3,TOSY08,
2IFC,26,0,26,0,12.9,-1,correct answer,0.566923200153,True,False,stimulusTOSY08_2IFC_2019_Jul_02_1233_203,stimulusTOSY08_2IFC_2019_Jul_02_1233_204,True,2019_Jul_02_1233,2IFC,3,TOSY08,
2IFC,27,0,27,0,12.9,-1,correct answer,0.501180199906,False,True,stimulusTOSY08_2IFC_2019_Jul_02_1233_205,stimulusTOSY08_2IFC_2019_Jul_02_1233_206,True,2019_Jul_02_1233,2IFC,3,TOSY08,
2IFC,28,0,28,0,10.7,-1,correct answer,0.434918599902,True,False,stimulusTOSY08_2IFC_2019_Jul_02_1233_207,stimulusTOSY08_2IFC_2019_Jul_02_1233_208,True,2019_Jul_02_1233,2IFC,3,TOSY08,
2IFC,29,0,29,0,12.9,-1,correct answer,0.467700599926,True,False,stimulusTOSY08_2IFC_2019_Jul_02_1233_209,stimulusTOSY08_2IFC_2019_Jul_02_1233_210,True,2019_Jul_02_1233,2IFC,3,TOSY08,
2IFC,30,0,30,0,11.7,-1,correct answer,0.768227500143,True,False,stimulusTOSY08_2IFC_2019_Jul_02_1233_211,stimulusTOSY08_2IFC_2019_Jul_02_1233_212,True,2019_Jul_02_1233,2IFC,3,TOSY08,
2IFC,31,0,31,0,6.5,-1,correct answer,0.700621700147,True,False,stimulusTOSY08_2IFC_2019_Jul_02_1233_213,stimulusTOSY08_2IFC_2019_Jul_02_1233_214,True,2019_Jul_02_1233,2IFC,3,TOSY08,
2IFC,32,0,32,0,4.9,-1,correct answer,0.600549699971,True,False,stimulusTOSY08_2IFC_2019_Jul_02_1233_215,stimulusTOSY08_2IFC_2019_Jul_02_1233_216,True,2019_Jul_02_1233,2IFC,3,TOSY08,
2IFC,33,0,33,0,10.7,-1,correct answer,0.367252299795,True,False,stimulusTOSY08_2IFC_2019_Jul_02_1233_217,stimulusTOSY08_2IFC_2019_Jul_02_1233_218,True,2019_Jul_02_1233,2IFC,3,TOSY08,
2IFC,34,0,34,0,9.7,-1,correct answer,0.534256700194,True,False,stimulusTOSY08_2IFC_2019_Jul_02_1233_219,stimulusTOSY08_2IFC_2019_Jul_02_1233_220,True,2019_Jul_02_1233,2IFC,3,TOSY08,
2IFC,35,0,35,0,6.5,-1,correct answer,0.66833549994,False,True,stimulusTOSY08_2IFC_2019_Jul_02_1233_221,stimulusTOSY08_2IFC_2019_Jul_02_1233_222,True,2019_Jul_02_1233,2IFC,3,TOSY08,
2IFC,36,0,36,0,6.5,-1,correct answer,0.465666800039,True,False,stimulusTOSY08_2IFC_2019_Jul_02_1233_223,stimulusTOSY08_2IFC_2019_Jul_02_1233_224,True,2019_Jul_02_1233,2IFC,3,TOSY08,
2IFC,37,0,37,0,11.7,-1,correct answer,0.601334700128,True,False,stimulusTOSY08_2IFC_2019_Jul_02_1233_225,stimulusTOSY08_2IFC_2019_Jul_02_1233_226,True,2019_Jul_02_1233,2IFC,3,TOSY08,
2IFC,38,0,38,0,8.7,-1,correct answer,0.533730399795,False,True,stimulusTOSY08_2IFC_2019_Jul_02_1233_227,stimulusTOSY08_2IFC_2019_Jul_02_1233_228,True,2019_Jul_02_1233,2IFC,3,TOSY08,
2IFC,39,0,39,0,11.7,-1,correct answer,0.634560400154,False,True,stimulusTOSY08_2IFC_2019_Jul_02_1233_229,stimulusTOSY08_2IFC_2019_Jul_02_1233_230,True,2019_Jul_02_1233,2IFC,3,TOSY08,
2IFC,40,0,40,0,9.7,-1,correct answer,0.300505500054,True,False,stimulusTOSY08_2IFC_2019_Jul_02_1233_231,stimulusTOSY08_2IFC_2019_Jul_02_1233_232,True,2019_Jul_02_1233,2IFC,3,TOSY08,
2IFC,41,0,41,0,9.7,-1,correct answer,0.400896199979,True,False,stimulusTOSY08_2IFC_2019_Jul_02_1233_233,stimulusTOSY08_2IFC_2019_Jul_02_1233_234,True,2019_Jul_02_1233,2IFC,3,TOSY08,
2IFC,42,0,42,0,12.9,-1,correct answer,0.366775600007,True,False,stimulusTOSY08_2IFC_2019_Jul_02_1233_235,stimulusTOSY08_2IFC_2019_Jul_02_1233_236,True,2019_Jul_02_1233,2IFC,3,TOSY08,
2IFC,43,0,43,0,9.7,-1,correct answer,0.501197699923,False,True,stimulusTOSY08_2IFC_2019_Jul_02_1233_237,stimulusTOSY08_2IFC_2019_Jul_02_1233_238,True,2019_Jul_02_1233,2IFC,3,TOSY08,
2IFC,44,0,44,0,8.7,-1,correct answer,0.300925699994,True,False,stimulusTOSY08_2IFC_2019_Jul_02_1233_239,stimulusTOSY08_2IFC_2019_Jul_02_1233_240,True,2019_Jul_02_1233,2IFC,3,TOSY08,
2IFC,45,0,45,0,11.7,-1,correct answer,0.467215500074,True,False,stimulusTOSY08_2IFC_2019_Jul_02_1233_241,stimulusTOSY08_2IFC_2019_Jul_02_1233_242,True,2019_Jul_02_1233,2IFC,3,TOSY08,
2IFC,46,0,46,0,9.7,-1,correct answer,0.334671899909,True,False,stimulusTOSY08_2IFC_2019_Jul_02_1233_243,stimulusTOSY08_2IFC_2019_Jul_02_1233_244,True,2019_Jul_02_1233,2IFC,3,TOSY08,
2IFC,47,0,47,0,6.5,-1,correct answer,0.567813500063,True,False,stimulusTOSY08_2IFC_2019_Jul_02_1233_245,stimulusTOSY08_2IFC_2019_Jul_02_1233_246,True,2019_Jul_02_1233,2IFC,3,TOSY08,
2IFC,48,0,48,0,8.7,-1,wrong answer,0.734125799965,False,True,stimulusTOSY08_2IFC_2019_Jul_02_1233_247,stimulusTOSY08_2IFC_2019_Jul_02_1233_248,True,2019_Jul_02_1233,2IFC,3,TOSY08,
2IFC,49,0,49,0,4.9,-1,correct answer,0.768169400049,True,False,stimulusTOSY08_2IFC_2019_Jul_02_1233_249,stimulusTOSY08_2IFC_2019_Jul_02_1233_250,True,2019_Jul_02_1233,2IFC,3,TOSY08,
2IFC,50,0,50,0,9.7,-1,correct answer,0.499673100188,False,True,stimulusTOSY08_2IFC_2019_Jul_02_1233_251,stimulusTOSY08_2IFC_2019_Jul_02_1233_252,True,2019_Jul_02_1233,2IFC,3,TOSY08,
2IFC,51,0,51,0,9.7,-1,correct answer,0.736593700014,False,True,stimulusTOSY08_2IFC_2019_Jul_02_1233_253,stimulusTOSY08_2IFC_2019_Jul_02_1233_254,True,2019_Jul_02_1233,2IFC,3,TOSY08,
2IFC,52,0,52,0,6.5,-1,wrong answer,0.636174000101,False,True,stimulusTOSY08_2IFC_2019_Jul_02_1233_255,stimulusTOSY08_2IFC_2019_Jul_02_1233_256,True,2019_Jul_02_1233,2IFC,3,TOSY08,
2IFC,53,0,53,0,4.9,-1,wrong answer,0.701042899862,False,True,stimulusTOSY08_2IFC_2019_Jul_02_1233_257,stimulusTOSY08_2IFC_2019_Jul_02_1233_258,True,2019_Jul_02_1233,2IFC,3,TOSY08,
2IFC,54,0,54,0,7.7,-1,correct answer,0.603477000026,True,False,stimulusTOSY08_2IFC_2019_Jul_02_1233_259,stimulusTOSY08_2IFC_2019_Jul_02_1233_260,True,2019_Jul_02_1233,2IFC,3,TOSY08,
2IFC,55,0,55,0,6.5,-1,correct answer,0.366359600099,False,True,stimulusTOSY08_2IFC_2019_Jul_02_1233_261,stimulusTOSY08_2IFC_2019_Jul_02_1233_262,True,2019_Jul_02_1233,2IFC,3,TOSY08,
2IFC,56,0,56,0,9.7,-1,correct answer,0.334611200029,True,False,stimulusTOSY08_2IFC_2019_Jul_02_1233_263,stimulusTOSY08_2IFC_2019_Jul_02_1233_264,True,2019_Jul_02_1233,2IFC,3,TOSY08,
2IFC,57,0,57,0,4.9,-1,correct answer,0.366778000025,False,True,stimulusTOSY08_2IFC_2019_Jul_02_1233_265,stimulusTOSY08_2IFC_2019_Jul_02_1233_266,True,2019_Jul_02_1233,2IFC,3,TOSY08,
2IFC,58,0,58,0,9.7,-1,no answer,-1,False,True,stimulusTOSY08_2IFC_2019_Jul_02_1233_267,stimulusTOSY08_2IFC_2019_Jul_02_1233_268,True,2019_Jul_02_1233,2IFC,3,TOSY08,
2IFC,59,0,59,0,7.7,-1,correct answer,0.532645000145,False,True,stimulusTOSY08_2IFC_2019_Jul_02_1233_269,stimulusTOSY08_2IFC_2019_Jul_02_1233_270,True,2019_Jul_02_1233,2IFC,3,TOSY08,
2IFC,60,0,60,0,11.7,-1,correct answer,0.300629000179,True,False,stimulusTOSY08_2IFC_2019_Jul_02_1233_271,stimulusTOSY08_2IFC_2019_Jul_02_1233_272,True,2019_Jul_02_1233,2IFC,3,TOSY08,
2IFC,61,0,61,0,4.9,-1,wrong answer,0.801818199921,True,False,stimulusTOSY08_2IFC_2019_Jul_02_1233_273,stimulusTOSY08_2IFC_2019_Jul_02_1233_274,True,2019_Jul_02_1233,2IFC,3,TOSY08,
2IFC,62,0,62,0,4.9,-1,correct answer,0.497587900143,True,False,stimulusTOSY08_2IFC_2019_Jul_02_1233_275,stimulusTOSY08_2IFC_2019_Jul_02_1233_276,True,2019_Jul_02_1233,2IFC,3,TOSY08,
2IFC,63,0,63,0,9.7,-1,correct answer,0.465802500024,True,False,stimulusTOSY08_2IFC_2019_Jul_02_1233_277,stimulusTOSY08_2IFC_2019_Jul_02_1233_278,True,2019_Jul_02_1233,2IFC,3,TOSY08,
2IFC,64,0,64,0,12.9,-1,correct answer,0.300154899945,True,False,stimulusTOSY08_2IFC_2019_Jul_02_1233_279,stimulusTOSY08_2IFC_2019_Jul_02_1233_280,True,2019_Jul_02_1233,2IFC,3,TOSY08,
2IFC,65,0,65,0,9.7,-1,correct answer,0.466762800002,False,True,stimulusTOSY08_2IFC_2019_Jul_02_1233_281,stimulusTOSY08_2IFC_2019_Jul_02_1233_282,True,2019_Jul_02_1233,2IFC,3,TOSY08,
2IFC,66,0,66,0,9.7,-1,correct answer,0.60098410002,False,True,stimulusTOSY08_2IFC_2019_Jul_02_1233_283,stimulusTOSY08_2IFC_2019_Jul_02_1233_284,True,2019_Jul_02_1233,2IFC,3,TOSY08,
2IFC,67,0,67,0,10.7,-1,wrong answer,0.434355000034,False,True,stimulusTOSY08_2IFC_2019_Jul_02_1233_285,stimulusTOSY08_2IFC_2019_Jul_02_1233_286,True,2019_Jul_02_1233,2IFC,3,TOSY08,
2IFC,68,0,68,0,9.7,-1,correct answer,0.234333500033,True,False,stimulusTOSY08_2IFC_2019_Jul_02_1233_287,stimulusTOSY08_2IFC_2019_Jul_02_1233_288,True,2019_Jul_02_1233,2IFC,3,TOSY08,
2IFC,69,0,69,0,6.5,-1,correct answer,0.368979499908,False,True,stimulusTOSY08_2IFC_2019_Jul_02_1233_289,stimulusTOSY08_2IFC_2019_Jul_02_1233_290,True,2019_Jul_02_1233,2IFC,3,TOSY08,
2IFC,70,0,70,0,8.7,-1,wrong answer,0.501162100118,False,True,stimulusTOSY08_2IFC_2019_Jul_02_1233_291,stimulusTOSY08_2IFC_2019_Jul_02_1233_292,True,2019_Jul_02_1233,2IFC,3,TOSY08,
2IFC,71,0,71,0,7.7,-1,correct answer,0.66871550004,True,False,stimulusTOSY08_2IFC_2019_Jul_02_1233_293,stimulusTOSY08_2IFC_2019_Jul_02_1233_294,True,2019_Jul_02_1233,2IFC,3,TOSY08,
2IFC,72,0,72,0,9.7,-1,correct answer,0.167513699969,False,True,stimulusTOSY08_2IFC_2019_Jul_02_1233_295,stimulusTOSY08_2IFC_2019_Jul_02_1233_296,True,2019_Jul_02_1233,2IFC,3,TOSY08,
2IFC,73,0,73,0,7.7,-1,correct answer,0.500461800024,True,False,stimulusTOSY08_2IFC_2019_Jul_02_1233_297,stimulusTOSY08_2IFC_2019_Jul_02_1233_298,True,2019_Jul_02_1233,2IFC,3,TOSY08,
2IFC,74,0,74,0,9.7,-1,correct answer,0.63402160001,False,True,stimulusTOSY08_2IFC_2019_Jul_02_1233_299,stimulusTOSY08_2IFC_2019_Jul_02_1233_300,True,2019_Jul_02_1233,2IFC,3,TOSY08,
2IFC,0,0,0,0,10.7,-1,correct answer,0.266901999945,True,False,stimulusTOSY08_2IFC_2019_Jul_02_1233_301,stimulusTOSY08_2IFC_2019_Jul_02_1233_302,True,2019_Jul_02_1233,2IFC,3,TOSY08,
2IFC,1,0,1,0,8.7,-1,wrong answer,0.732998500112,False,True,stimulusTOSY08_2IFC_2019_Jul_02_1233_303,stimulusTOSY08_2IFC_2019_Jul_02_1233_304,True,2019_Jul_02_1233,2IFC,3,TOSY08,
2IFC,2,0,2,0,6.5,-1,correct answer,0.565445199842,False,True,stimulusTOSY08_2IFC_2019_Jul_02_1233_305,stimulusTOSY08_2IFC_2019_Jul_02_1233_306,True,2019_Jul_02_1233,2IFC,3,TOSY08,
2IFC,3,0,3,0,7.7,-1,correct answer,0.468066200148,True,False,stimulusTOSY08_2IFC_2019_Jul_02_1233_307,stimulusTOSY08_2IFC_2019_Jul_02_1233_308,True,2019_Jul_02_1233,2IFC,3,TOSY08,
2IFC,4,0,4,0,8.7,-1,correct answer,0.534370400012,False,True,stimulusTOSY08_2IFC_2019_Jul_02_1233_309,stimulusTOSY08_2IFC_2019_Jul_02_1233_310,True,2019_Jul_02_1233,2IFC,3,TOSY08,
2IFC,5,0,5,0,10.7,-1,correct answer,0.466567400144,False,True,stimulusTOSY08_2IFC_2019_Jul_02_1233_311,stimulusTOSY08_2IFC_2019_Jul_02_1233_312,True,2019_Jul_02_1233,2IFC,3,TOSY08,
2IFC,6,0,6,0,10.7,-1,correct answer,0.167257599998,True,False,stimulusTOSY08_2IFC_2019_Jul_02_1233_313,stimulusTOSY08_2IFC_2019_Jul_02_1233_314,True,2019_Jul_02_1233,2IFC,3,TOSY08,
2IFC,7,0,7,0,8.7,-1,wrong answer,0.600228799973,False,True,stimulusTOSY08_2IFC_2019_Jul_02_1233_315,stimulusTOSY08_2IFC_2019_Jul_02_1233_316,True,2019_Jul_02_1233,2IFC,3,TOSY08,
2IFC,8,0,8,0,8.7,-1,correct answer,0.567662300076,True,False,stimulusTOSY08_2IFC_2019_Jul_02_1233_317,stimulusTOSY08_2IFC_2019_Jul_02_1233_318,True,2019_Jul_02_1233,2IFC,3,TOSY08,
2IFC,9,0,9,0,7.7,-1,correct answer,0.56753599993,True,False,stimulusTOSY08_2IFC_2019_Jul_02_1233_319,stimulusTOSY08_2IFC_2019_Jul_02_1233_320,True,2019_Jul_02_1233,2IFC,3,TOSY08,
2IFC,10,0,10,0,7.7,-1,correct answer,0.534532699967,False,True,stimulusTOSY08_2IFC_2019_Jul_02_1233_321,stimulusTOSY08_2IFC_2019_Jul_02_1233_322,True,2019_Jul_02_1233,2IFC,3,TOSY08,
2IFC,11,0,11,0,4.9,-1,correct answer,0.465679600136,False,True,stimulusTOSY08_2IFC_2019_Jul_02_1233_323,stimulusTOSY08_2IFC_2019_Jul_02_1233_324,True,2019_Jul_02_1233,2IFC,3,TOSY08,
2IFC,12,0,12,0,11.7,-1,correct answer,0.467327799881,True,False,stimulusTOSY08_2IFC_2019_Jul_02_1233_325,stimulusTOSY08_2IFC_2019_Jul_02_1233_326,True,2019_Jul_02_1233,2IFC,3,TOSY08,
2IFC,13,0,13,0,11.7,-1,correct answer,0.534713299945,False,True,stimulusTOSY08_2IFC_2019_Jul_02_1233_327,stimulusTOSY08_2IFC_2019_Jul_02_1233_328,True,2019_Jul_02_1233,2IFC,3,TOSY08,
2IFC,14,0,14,0,10.7,-1,correct answer,0.534064899897,False,True,stimulusTOSY08_2IFC_2019_Jul_02_1233_329,stimulusTOSY08_2IFC_2019_Jul_02_1233_330,True,2019_Jul_02_1233,2IFC,3,TOSY08,
2IFC,15,0,15,0,10.7,-1,correct answer,0.500827099895,True,False,stimulusTOSY08_2IFC_2019_Jul_02_1233_331,stimulusTOSY08_2IFC_2019_Jul_02_1233_332,True,2019_Jul_02_1233,2IFC,3,TOSY08,
2IFC,16,0,16,0,8.7,-1,correct answer,0.767420399934,False,True,stimulusTOSY08_2IFC_2019_Jul_02_1233_333,stimulusTOSY08_2IFC_2019_Jul_02_1233_334,True,2019_Jul_02_1233,2IFC,3,TOSY08,
2IFC,17,0,17,0,8.7,-1,correct answer,0.800204799976,True,False,stimulusTOSY08_2IFC_2019_Jul_02_1233_335,stimulusTOSY08_2IFC_2019_Jul_02_1233_336,True,2019_Jul_02_1233,2IFC,3,TOSY08,
2IFC,18,0,18,0,10.7,-1,correct answer,0.534328100039,True,False,stimulusTOSY08_2IFC_2019_Jul_02_1233_337,stimulusTOSY08_2IFC_2019_Jul_02_1233_338,True,2019_Jul_02_1233,2IFC,3,TOSY08,
2IFC,19,0,19,0,8.7,-1,correct answer,0.501167099923,False,True,stimulusTOSY08_2IFC_2019_Jul_02_1233_339,stimulusTOSY08_2IFC_2019_Jul_02_1233_340,True,2019_Jul_02_1233,2IFC,3,TOSY08,
2IFC,20,0,20,0,6.5,-1,correct answer,0.600366000086,False,True,stimulusTOSY08_2IFC_2019_Jul_02_1233_341,stimulusTOSY08_2IFC_2019_Jul_02_1233_342,True,2019_Jul_02_1233,2IFC,3,TOSY08,
2IFC,21,0,21,0,10.7,-1,correct answer,0.40066569997,True,False,stimulusTOSY08_2IFC_2019_Jul_02_1233_343,stimulusTOSY08_2IFC_2019_Jul_02_1233_344,True,2019_Jul_02_1233,2IFC,3,TOSY08,
2IFC,22,0,22,0,9.7,-1,correct answer,0.567134999903,True,False,stimulusTOSY08_2IFC_2019_Jul_02_1233_345,stimulusTOSY08_2IFC_2019_Jul_02_1233_346,True,2019_Jul_02_1233,2IFC,3,TOSY08,
2IFC,23,0,23,0,11.7,-1,correct answer,0.502150600078,False,True,stimulusTOSY08_2IFC_2019_Jul_02_1233_347,stimulusTOSY08_2IFC_2019_Jul_02_1233_348,True,2019_Jul_02_1233,2IFC,3,TOSY08,
2IFC,24,0,24,0,11.7,-1,correct answer,0.266330500133,True,False,stimulusTOSY08_2IFC_2019_Jul_02_1233_349,stimulusTOSY08_2IFC_2019_Jul_02_1233_350,True,2019_Jul_02_1233,2IFC,3,TOSY08,
2IFC,25,0,25,0,11.7,-1,correct answer,0.43448950001,False,True,stimulusTOSY08_2IFC_2019_Jul_02_1233_351,stimulusTOSY08_2IFC_2019_Jul_02_1233_352,True,2019_Jul_02_1233,2IFC,3,TOSY08,
2IFC,26,0,26,0,6.5,-1,wrong answer,0.56862289994,False,True,stimulusTOSY08_2IFC_2019_Jul_02_1233_353,stimulusTOSY08_2IFC_2019_Jul_02_1233_354,True,2019_Jul_02_1233,2IFC,3,TOSY08,
2IFC,27,0,27,0,4.9,-1,correct answer,0.600698000053,True,False,stimulusTOSY08_2IFC_2019_Jul_02_1233_355,stimulusTOSY08_2IFC_2019_Jul_02_1233_356,True,2019_Jul_02_1233,2IFC,3,TOSY08,
2IFC,28,0,28,0,12.9,-1,correct answer,0.500438299961,False,True,stimulusTOSY08_2IFC_2019_Jul_02_1233_357,stimulusTOSY08_2IFC_2019_Jul_02_1233_358,True,2019_Jul_02_1233,2IFC,3,TOSY08,
2IFC,29,0,29,0,9.7,-1,correct answer,0.300811300054,True,False,stimulusTOSY08_2IFC_2019_Jul_02_1233_359,stimulusTOSY08_2IFC_2019_Jul_02_1233_360,True,2019_Jul_02_1233,2IFC,3,TOSY08,
2IFC,30,0,30,0,11.7,-1,correct answer,0.468301399844,False,True,stimulusTOSY08_2IFC_2019_Jul_02_1233_361,stimulusTOSY08_2IFC_2019_Jul_02_1233_362,True,2019_Jul_02_1233,2IFC,3,TOSY08,
2IFC,31,0,31,0,10.7,-1,correct answer,0.235161999939,True,False,stimulusTOSY08_2IFC_2019_Jul_02_1233_363,stimulusTOSY08_2IFC_2019_Jul_02_1233_364,True,2019_Jul_02_1233,2IFC,3,TOSY08,
2IFC,32,0,32,0,9.7,-1,correct answer,0.466946600005,False,True,stimulusTOSY08_2IFC_2019_Jul_02_1233_365,stimulusTOSY08_2IFC_2019_Jul_02_1233_366,True,2019_Jul_02_1233,2IFC,3,TOSY08,
2IFC,33,0,33,0,4.9,-1,wrong answer,0.667047499912,False,True,stimulusTOSY08_2IFC_2019_Jul_02_1233_367,stimulusTOSY08_2IFC_2019_Jul_02_1233_368,True,2019_Jul_02_1233,2IFC,3,TOSY08,
2IFC,34,0,34,0,6.5,-1,wrong answer,0.367459699977,True,False,stimulusTOSY08_2IFC_2019_Jul_02_1233_369,stimulusTOSY08_2IFC_2019_Jul_02_1233_370,True,2019_Jul_02_1233,2IFC,3,TOSY08,
2IFC,35,0,35,0,10.7,-1,correct answer,0.434539499925,False,True,stimulusTOSY08_2IFC_2019_Jul_02_1233_371,stimulusTOSY08_2IFC_2019_Jul_02_1233_372,True,2019_Jul_02_1233,2IFC,3,TOSY08,
2IFC,36,0,36,0,10.7,-1,correct answer,0.700203899993,False,True,stimulusTOSY08_2IFC_2019_Jul_02_1233_373,stimulusTOSY08_2IFC_2019_Jul_02_1233_374,True,2019_Jul_02_1233,2IFC,3,TOSY08,
2IFC,37,0,37,0,12.9,-1,correct answer,0.502718699863,False,True,stimulusTOSY08_2IFC_2019_Jul_02_1233_375,stimulusTOSY08_2IFC_2019_Jul_02_1233_376,True,2019_Jul_02_1233,2IFC,3,TOSY08,
2IFC,38,0,38,0,10.7,-1,correct answer,0.33436800004,True,False,stimulusTOSY08_2IFC_2019_Jul_02_1233_377,stimulusTOSY08_2IFC_2019_Jul_02_1233_378,True,2019_Jul_02_1233,2IFC,3,TOSY08,
2IFC,39,0,39,0,7.7,-1,correct answer,0.53338209982,True,False,stimulusTOSY08_2IFC_2019_Jul_02_1233_379,stimulusTOSY08_2IFC_2019_Jul_02_1233_380,True,2019_Jul_02_1233,2IFC,3,TOSY08,
2IFC,40,0,40,0,11.7,-1,correct answer,0.433926899917,True,False,stimulusTOSY08_2IFC_2019_Jul_02_1233_381,stimulusTOSY08_2IFC_2019_Jul_02_1233_382,True,2019_Jul_02_1233,2IFC,3,TOSY08,
2IFC,41,0,41,0,9.7,-1,correct answer,0.40027299989,True,False,stimulusTOSY08_2IFC_2019_Jul_02_1233_383,stimulusTOSY08_2IFC_2019_Jul_02_1233_384,True,2019_Jul_02_1233,2IFC,3,TOSY08,
2IFC,42,0,42,0,7.7,-1,wrong answer,0.600283799926,False,True,stimulusTOSY08_2IFC_2019_Jul_02_1233_385,stimulusTOSY08_2IFC_2019_Jul_02_1233_386,True,2019_Jul_02_1233,2IFC,3,TOSY08,
2IFC,43,0,43,0,11.7,-1,correct answer,0.334371600067,True,False,stimulusTOSY08_2IFC_2019_Jul_02_1233_387,stimulusTOSY08_2IFC_2019_Jul_02_1233_388,True,2019_Jul_02_1233,2IFC,3,TOSY08,
2IFC,44,0,44,0,8.7,-1,correct answer,0.566192600178,True,False,stimulusTOSY08_2IFC_2019_Jul_02_1233_389,stimulusTOSY08_2IFC_2019_Jul_02_1233_390,True,2019_Jul_02_1233,2IFC,3,TOSY08,
2IFC,45,0,45,0,7.7,-1,correct answer,0.467616399983,False,True,stimulusTOSY08_2IFC_2019_Jul_02_1233_391,stimulusTOSY08_2IFC_2019_Jul_02_1233_392,True,2019_Jul_02_1233,2IFC,3,TOSY08,
2IFC,46,0,46,0,8.7,-1,correct answer,0.698996299878,False,True,stimulusTOSY08_2IFC_2019_Jul_02_1233_393,stimulusTOSY08_2IFC_2019_Jul_02_1233_394,True,2019_Jul_02_1233,2IFC,3,TOSY08,
2IFC,47,0,47,0,4.9,-1,correct answer,0.567307900172,True,False,stimulusTOSY08_2IFC_2019_Jul_02_1233_395,stimulusTOSY08_2IFC_2019_Jul_02_1233_396,True,2019_Jul_02_1233,2IFC,3,TOSY08,
2IFC,48,0,48,0,10.7,-1,correct answer,0.26733339997,True,False,stimulusTOSY08_2IFC_2019_Jul_02_1233_397,stimulusTOSY08_2IFC_2019_Jul_02_1233_398,True,2019_Jul_02_1233,2IFC,3,TOSY08,
2IFC,49,0,49,0,8.7,-1,correct answer,0.50083740009,False,True,stimulusTOSY08_2IFC_2019_Jul_02_1233_399,stimulusTOSY08_2IFC_2019_Jul_02_1233_400,True,2019_Jul_02_1233,2IFC,3,TOSY08,
2IFC,50,0,50,0,7.7,-1,correct answer,0.300836500013,True,False,stimulusTOSY08_2IFC_2019_Jul_02_1233_401,stimulusTOSY08_2IFC_2019_Jul_02_1233_402,True,2019_Jul_02_1233,2IFC,3,TOSY08,
2IFC,51,0,51,0,10.7,-1,correct answer,0.403362199897,False,True,stimulusTOSY08_2IFC_2019_Jul_02_1233_403,stimulusTOSY08_2IFC_2019_Jul_02_1233_404,True,2019_Jul_02_1233,2IFC,3,TOSY08,
2IFC,52,0,52,0,9.7,-1,wrong answer,0.46714159986,False,True,stimulusTOSY08_2IFC_2019_Jul_02_1233_405,stimulusTOSY08_2IFC_2019_Jul_02_1233_406,True,2019_Jul_02_1233,2IFC,3,TOSY08,
2IFC,53,0,53,0,8.7,-1,correct answer,0.501237100223,False,True,stimulusTOSY08_2IFC_2019_Jul_02_1233_407,stimulusTOSY08_2IFC_2019_Jul_02_1233_408,True,2019_Jul_02_1233,2IFC,3,TOSY08,
2IFC,54,0,54,0,12.9,-1,correct answer,0.300912000006,True,False,stimulusTOSY08_2IFC_2019_Jul_02_1233_409,stimulusTOSY08_2IFC_2019_Jul_02_1233_410,True,2019_Jul_02_1233,2IFC,3,TOSY08,
2IFC,55,0,55,0,9.7,-1,correct answer,0.367437600158,False,True,stimulusTOSY08_2IFC_2019_Jul_02_1233_411,stimulusTOSY08_2IFC_2019_Jul_02_1233_412,True,2019_Jul_02_1233,2IFC,3,TOSY08,
2IFC,56,0,56,0,9.7,-1,correct answer,0.43402639986,False,True,stimulusTOSY08_2IFC_2019_Jul_02_1233_413,stimulusTOSY08_2IFC_2019_Jul_02_1233_414,True,2019_Jul_02_1233,2IFC,3,TOSY08,
2IFC,57,0,57,0,10.7,-1,correct answer,0.333046799991,True,False,stimulusTOSY08_2IFC_2019_Jul_02_1233_415,stimulusTOSY08_2IFC_2019_Jul_02_1233_416,True,2019_Jul_02_1233,2IFC,3,TOSY08,
2IFC,58,0,58,0,4.9,-1,correct answer,0.60075930017,True,False,stimulusTOSY08_2IFC_2019_Jul_02_1233_417,stimulusTOSY08_2IFC_2019_Jul_02_1233_418,True,2019_Jul_02_1233,2IFC,3,TOSY08,
2IFC,59,0,59,0,9.7,-1,correct answer,0.433824900072,False,True,stimulusTOSY08_2IFC_2019_Jul_02_1233_419,stimulusTOSY08_2IFC_2019_Jul_02_1233_420,True,2019_Jul_02_1233,2IFC,3,TOSY08,
2IFC,60,0,60,0,10.7,-1,wrong answer,0.569019200047,False,True,stimulusTOSY08_2IFC_2019_Jul_02_1233_421,stimulusTOSY08_2IFC_2019_Jul_02_1233_422,True,2019_Jul_02_1233,2IFC,3,TOSY08,
2IFC,61,0,61,0,8.7,-1,correct answer,0.400884999894,False,True,stimulusTOSY08_2IFC_2019_Jul_02_1233_423,stimulusTOSY08_2IFC_2019_Jul_02_1233_424,True,2019_Jul_02_1233,2IFC,3,TOSY08,
2IFC,62,0,62,0,4.9,-1,correct answer,0.56733520003,False,True,stimulusTOSY08_2IFC_2019_Jul_02_1233_425,stimulusTOSY08_2IFC_2019_Jul_02_1233_426,True,2019_Jul_02_1233,2IFC,3,TOSY08,
2IFC,63,0,63,0,12.9,-1,correct answer,0.568320099963,False,True,stimulusTOSY08_2IFC_2019_Jul_02_1233_427,stimulusTOSY08_2IFC_2019_Jul_02_1233_428,True,2019_Jul_02_1233,2IFC,3,TOSY08,
2IFC,64,0,64,0,4.9,-1,correct answer,0.499075999949,True,False,stimulusTOSY08_2IFC_2019_Jul_02_1233_429,stimulusTOSY08_2IFC_2019_Jul_02_1233_430,True,2019_Jul_02_1233,2IFC,3,TOSY08,
2IFC,65,0,65,0,8.7,-1,correct answer,0.467751699965,False,True,stimulusTOSY08_2IFC_2019_Jul_02_1233_431,stimulusTOSY08_2IFC_2019_Jul_02_1233_432,True,2019_Jul_02_1233,2IFC,3,TOSY08,
2IFC,66,0,66,0,7.7,-1,correct answer,0.46783139999,True,False,stimulusTOSY08_2IFC_2019_Jul_02_1233_433,stimulusTOSY08_2IFC_2019_Jul_02_1233_434,True,2019_Jul_02_1233,2IFC,3,TOSY08,
2IFC,67,0,67,0,4.9,-1,correct answer,0.567587699974,True,False,stimulusTOSY08_2IFC_2019_Jul_02_1233_435,stimulusTOSY08_2IFC_2019_Jul_02_1233_436,True,2019_Jul_02_1233,2IFC,3,TOSY08,
2IFC,68,0,68,0,11.7,-1,correct answer,0.467276900075,True,False,stimulusTOSY08_2IFC_2019_Jul_02_1233_437,stimulusTOSY08_2IFC_2019_Jul_02_1233_438,True,2019_Jul_02_1233,2IFC,3,TOSY08,
2IFC,69,0,69,0,8.7,-1,correct answer,0.567503200145,False,True,stimulusTOSY08_2IFC_2019_Jul_02_1233_439,stimulusTOSY08_2IFC_2019_Jul_02_1233_440,True,2019_Jul_02_1233,2IFC,3,TOSY08,
2IFC,70,0,70,0,10.7,-1,correct answer,0.534514199942,False,True,stimulusTOSY08_2IFC_2019_Jul_02_1233_441,stimulusTOSY08_2IFC_2019_Jul_02_1233_442,True,2019_Jul_02_1233,2IFC,3,TOSY08,
2IFC,71,0,71,0,6.5,-1,correct answer,0.568108600099,True,False,stimulusTOSY08_2IFC_2019_Jul_02_1233_443,stimulusTOSY08_2IFC_2019_Jul_02_1233_444,True,2019_Jul_02_1233,2IFC,3,TOSY08,
2IFC,72,0,72,0,8.7,-1,correct answer,0.367649900028,False,True,stimulusTOSY08_2IFC_2019_Jul_02_1233_445,stimulusTOSY08_2IFC_2019_Jul_02_1233_446,True,2019_Jul_02_1233,2IFC,3,TOSY08,
2IFC,73,0,73,0,8.7,-1,correct answer,0.467993600061,False,True,stimulusTOSY08_2IFC_2019_Jul_02_1233_447,stimulusTOSY08_2IFC_2019_Jul_02_1233_448,True,2019_Jul_02_1233,2IFC,3,TOSY08,
2IFC,74,0,74,0,10.7,-1,correct answer,0.500993900001,False,True,stimulusTOSY08_2IFC_2019_Jul_02_1233_449,stimulusTOSY08_2IFC_2019_Jul_02_1233_450,True,2019_Jul_02_1233,2IFC,3,TOSY08,
2IFC,0,0,0,0,12.9,-1,correct answer,0.33324060007,True,False,stimulusTOSY08_2IFC_2019_Jul_02_1233_451,stimulusTOSY08_2IFC_2019_Jul_02_1233_452,True,2019_Jul_02_1233,2IFC,3,TOSY08,
2IFC,1,0,1,0,7.7,-1,correct answer,0.331545700086,False,True,stimulusTOSY08_2IFC_2019_Jul_02_1233_453,stimulusTOSY08_2IFC_2019_Jul_02_1233_454,True,2019_Jul_02_1233,2IFC,3,TOSY08,
2IFC,2,0,2,0,10.7,-1,correct answer,0.367033100221,True,False,stimulusTOSY08_2IFC_2019_Jul_02_1233_455,stimulusTOSY08_2IFC_2019_Jul_02_1233_456,True,2019_Jul_02_1233,2IFC,3,TOSY08,
2IFC,3,0,3,0,6.5,-1,correct answer,0.334025499877,True,False,stimulusTOSY08_2IFC_2019_Jul_02_1233_457,stimulusTOSY08_2IFC_2019_Jul_02_1233_458,True,2019_Jul_02_1233,2IFC,3,TOSY08,
2IFC,4,0,4,0,11.7,-1,correct answer,0.300051099854,True,False,stimulusTOSY08_2IFC_2019_Jul_02_1233_459,stimulusTOSY08_2IFC_2019_Jul_02_1233_460,True,2019_Jul_02_1233,2IFC,3,TOSY08,
2IFC,5,0,5,0,6.5,-1,correct answer,0.300174499862,True,False,stimulusTOSY08_2IFC_2019_Jul_02_1233_461,stimulusTOSY08_2IFC_2019_Jul_02_1233_462,True,2019_Jul_02_1233,2IFC,3,TOSY08,
2IFC,6,0,6,0,6.5,-1,correct answer,0.600606299937,False,True,stimulusTOSY08_2IFC_2019_Jul_02_1233_463,stimulusTOSY08_2IFC_2019_Jul_02_1233_464,True,2019_Jul_02_1233,2IFC,3,TOSY08,
2IFC,7,0,7,0,12.9,-1,correct answer,0.301035400014,True,False,stimulusTOSY08_2IFC_2019_Jul_02_1233_465,stimulusTOSY08_2IFC_2019_Jul_02_1233_466,True,2019_Jul_02_1233,2IFC,3,TOSY08,
2IFC,8,0,8,0,10.7,-1,correct answer,0.334351300029,False,True,stimulusTOSY08_2IFC_2019_Jul_02_1233_467,stimulusTOSY08_2IFC_2019_Jul_02_1233_468,True,2019_Jul_02_1233,2IFC,3,TOSY08,
2IFC,9,0,9,0,4.9,-1,correct answer,0.669577700086,False,True,stimulusTOSY08_2IFC_2019_Jul_02_1233_469,stimulusTOSY08_2IFC_2019_Jul_02_1233_470,True,2019_Jul_02_1233,2IFC,3,TOSY08,
2IFC,10,0,10,0,12.9,-1,correct answer,0.465286200168,False,True,stimulusTOSY08_2IFC_2019_Jul_02_1233_471,stimulusTOSY08_2IFC_2019_Jul_02_1233_472,True,2019_Jul_02_1233,2IFC,3,TOSY08,
2IFC,11,0,11,0,10.7,-1,correct answer,0.700584099861,False,True,stimulusTOSY08_2IFC_2019_Jul_02_1233_473,stimulusTOSY08_2IFC_2019_Jul_02_1233_474,True,2019_Jul_02_1233,2IFC,3,TOSY08,
2IFC,12,0,12,0,4.9,-1,correct answer,0.467364999931,False,True,stimulusTOSY08_2IFC_2019_Jul_02_1233_475,stimulusTOSY08_2IFC_2019_Jul_02_1233_476,True,2019_Jul_02_1233,2IFC,3,TOSY08,
2IFC,13,0,13,0,7.7,-1,wrong answer,0.567639800021,False,True,stimulusTOSY08_2IFC_2019_Jul_02_1233_477,stimulusTOSY08_2IFC_2019_Jul_02_1233_478,True,2019_Jul_02_1233,2IFC,3,TOSY08,
2IFC,14,0,14,0,7.7,-1,correct answer,0.633865399985,True,False,stimulusTOSY08_2IFC_2019_Jul_02_1233_479,stimulusTOSY08_2IFC_2019_Jul_02_1233_480,True,2019_Jul_02_1233,2IFC,3,TOSY08,
2IFC,15,0,15,0,7.7,-1,wrong answer,0.567527000094,True,False,stimulusTOSY08_2IFC_2019_Jul_02_1233_481,stimulusTOSY08_2IFC_2019_Jul_02_1233_482,True,2019_Jul_02_1233,2IFC,3,TOSY08,
2IFC,16,0,16,0,4.9,-1,wrong answer,0.400585999945,True,False,stimulusTOSY08_2IFC_2019_Jul_02_1233_483,stimulusTOSY08_2IFC_2019_Jul_02_1233_484,True,2019_Jul_02_1233,2IFC,3,TOSY08,
2IFC,17,0,17,0,11.7,-1,correct answer,0.266985600116,True,False,stimulusTOSY08_2IFC_2019_Jul_02_1233_485,stimulusTOSY08_2IFC_2019_Jul_02_1233_486,True,2019_Jul_02_1233,2IFC,3,TOSY08,
2IFC,18,0,18,0,8.7,-1,correct answer,0.50100030005,True,False,stimulusTOSY08_2IFC_2019_Jul_02_1233_487,stimulusTOSY08_2IFC_2019_Jul_02_1233_488,True,2019_Jul_02_1233,2IFC,3,TOSY08,
2IFC,19,0,19,0,10.7,-1,correct answer,0.600231499877,False,True,stimulusTOSY08_2IFC_2019_Jul_02_1233_489,stimulusTOSY08_2IFC_2019_Jul_02_1233_490,True,2019_Jul_02_1233,2IFC,3,TOSY08,
2IFC,20,0,20,0,4.9,-1,wrong answer,0.4674505,True,False,stimulusTOSY08_2IFC_2019_Jul_02_1233_491,stimulusTOSY08_2IFC_2019_Jul_02_1233_492,True,2019_Jul_02_1233,2IFC,3,TOSY08,
2IFC,21,0,21,0,6.5,-1,correct answer,0.600277399877,True,False,stimulusTOSY08_2IFC_2019_Jul_02_1233_493,stimulusTOSY08_2IFC_2019_Jul_02_1233_494,True,2019_Jul_02_1233,2IFC,3,TOSY08,
2IFC,22,0,22,0,9.7,-1,correct answer,0.300832599867,True,False,stimulusTOSY08_2IFC_2019_Jul_02_1233_495,stimulusTOSY08_2IFC_2019_Jul_02_1233_496,True,2019_Jul_02_1233,2IFC,3,TOSY08,
2IFC,23,0,23,0,10.7,-1,correct answer,0.534570399905,False,True,stimulusTOSY08_2IFC_2019_Jul_02_1233_497,stimulusTOSY08_2IFC_2019_Jul_02_1233_498,True,2019_Jul_02_1233,2IFC,3,TOSY08,
2IFC,24,0,24,0,11.7,-1,correct answer,0.535430100048,False,True,stimulusTOSY08_2IFC_2019_Jul_02_1233_499,stimulusTOSY08_2IFC_2019_Jul_02_1233_500,True,2019_Jul_02_1233,2IFC,3,TOSY08,
2IFC,25,0,25,0,10.7,-1,correct answer,0.500642400002,False,True,stimulusTOSY08_2IFC_2019_Jul_02_1233_501,stimulusTOSY08_2IFC_2019_Jul_02_1233_502,True,2019_Jul_02_1233,2IFC,3,TOSY08,
2IFC,26,0,26,0,8.7,-1,correct answer,0.336364000104,True,False,stimulusTOSY08_2IFC_2019_Jul_02_1233_503,stimulusTOSY08_2IFC_2019_Jul_02_1233_504,True,2019_Jul_02_1233,2IFC,3,TOSY08,
2IFC,27,0,27,0,12.9,-1,correct answer,0.300609499915,True,False,stimulusTOSY08_2IFC_2019_Jul_02_1233_505,stimulusTOSY08_2IFC_2019_Jul_02_1233_506,True,2019_Jul_02_1233,2IFC,3,TOSY08,
2IFC,28,0,28,0,8.7,-1,correct answer,0.567713500001,False,True,stimulusTOSY08_2IFC_2019_Jul_02_1233_507,stimulusTOSY08_2IFC_2019_Jul_02_1233_508,True,2019_Jul_02_1233,2IFC,3,TOSY08,
2IFC,29,0,29,0,8.7,-1,correct answer,0.499590500025,False,True,stimulusTOSY08_2IFC_2019_Jul_02_1233_509,stimulusTOSY08_2IFC_2019_Jul_02_1233_510,True,2019_Jul_02_1233,2IFC,3,TOSY08,
2IFC,30,0,30,0,11.7,-1,correct answer,0.569726999849,False,True,stimulusTOSY08_2IFC_2019_Jul_02_1233_511,stimulusTOSY08_2IFC_2019_Jul_02_1233_512,True,2019_Jul_02_1233,2IFC,3,TOSY08,
2IFC,31,0,31,0,11.7,-1,correct answer,0.200463500107,True,False,stimulusTOSY08_2IFC_2019_Jul_02_1233_513,stimulusTOSY08_2IFC_2019_Jul_02_1233_514,True,2019_Jul_02_1233,2IFC,3,TOSY08,
2IFC,32,0,32,0,8.7,-1,correct answer,0.266604200006,True,False,stimulusTOSY08_2IFC_2019_Jul_02_1233_515,stimulusTOSY08_2IFC_2019_Jul_02_1233_516,True,2019_Jul_02_1233,2IFC,3,TOSY08,
2IFC,33,0,33,0,8.7,-1,correct answer,0.567081799963,False,True,stimulusTOSY08_2IFC_2019_Jul_02_1233_517,stimulusTOSY08_2IFC_2019_Jul_02_1233_518,True,2019_Jul_02_1233,2IFC,3,TOSY08,
2IFC,34,0,34,0,7.7,-1,correct answer,0.56764530018,True,False,stimulusTOSY08_2IFC_2019_Jul_02_1233_519,stimulusTOSY08_2IFC_2019_Jul_02_1233_520,True,2019_Jul_02_1233,2IFC,3,TOSY08,
2IFC,35,0,35,0,4.9,-1,correct answer,0.534275300102,False,True,stimulusTOSY08_2IFC_2019_Jul_02_1233_521,stimulusTOSY08_2IFC_2019_Jul_02_1233_522,True,2019_Jul_02_1233,2IFC,3,TOSY08,
2IFC,36,0,36,0,4.9,-1,correct answer,0.633370299824,False,True,stimulusTOSY08_2IFC_2019_Jul_02_1233_523,stimulusTOSY08_2IFC_2019_Jul_02_1233_524,True,2019_Jul_02_1233,2IFC,3,TOSY08,
2IFC,37,0,37,0,12.9,-1,correct answer,0.5682812999,False,True,stimulusTOSY08_2IFC_2019_Jul_02_1233_525,stimulusTOSY08_2IFC_2019_Jul_02_1233_526,True,2019_Jul_02_1233,2IFC,3,TOSY08,
2IFC,38,0,38,0,11.7,-1,correct answer,0.634878000012,False,True,stimulusTOSY08_2IFC_2019_Jul_02_1233_527,stimulusTOSY08_2IFC_2019_Jul_02_1233_528,True,2019_Jul_02_1233,2IFC,3,TOSY08,
2IFC,39,0,39,0,4.9,-1,correct answer,0.667183999904,True,False,stimulusTOSY08_2IFC_2019_Jul_02_1233_529,stimulusTOSY08_2IFC_2019_Jul_02_1233_530,True,2019_Jul_02_1233,2IFC,3,TOSY08,
2IFC,40,0,40,0,12.9,-1,correct answer,0.333903400227,True,False,stimulusTOSY08_2IFC_2019_Jul_02_1233_531,stimulusTOSY08_2IFC_2019_Jul_02_1233_532,True,2019_Jul_02_1233,2IFC,3,TOSY08,
2IFC,41,0,41,0,6.5,-1,correct answer,0.534845999908,True,False,stimulusTOSY08_2IFC_2019_Jul_02_1233_533,stimulusTOSY08_2IFC_2019_Jul_02_1233_534,True,2019_Jul_02_1233,2IFC,3,TOSY08,
2IFC,42,0,42,0,7.7,-1,correct answer,0.53409849992,False,True,stimulusTOSY08_2IFC_2019_Jul_02_1233_535,stimulusTOSY08_2IFC_2019_Jul_02_1233_536,True,2019_Jul_02_1233,2IFC,3,TOSY08,
2IFC,43,0,43,0,9.7,-1,correct answer,0.667601699941,False,True,stimulusTOSY08_2IFC_2019_Jul_02_1233_537,stimulusTOSY08_2IFC_2019_Jul_02_1233_538,True,2019_Jul_02_1233,2IFC,3,TOSY08,
2IFC,44,0,44,0,8.7,-1,correct answer,0.668178000022,False,True,stimulusTOSY08_2IFC_2019_Jul_02_1233_539,stimulusTOSY08_2IFC_2019_Jul_02_1233_540,True,2019_Jul_02_1233,2IFC,3,TOSY08,
2IFC,45,0,45,0,11.7,-1,correct answer,0.534218900139,False,True,stimulusTOSY08_2IFC_2019_Jul_02_1233_541,stimulusTOSY08_2IFC_2019_Jul_02_1233_542,True,2019_Jul_02_1233,2IFC,3,TOSY08,
2IFC,46,0,46,0,8.7,-1,correct answer,0.500622200081,True,False,stimulusTOSY08_2IFC_2019_Jul_02_1233_543,stimulusTOSY08_2IFC_2019_Jul_02_1233_544,True,2019_Jul_02_1233,2IFC,3,TOSY08,
2IFC,47,0,47,0,9.7,-1,correct answer,0.500251900172,False,True,stimulusTOSY08_2IFC_2019_Jul_02_1233_545,stimulusTOSY08_2IFC_2019_Jul_02_1233_546,True,2019_Jul_02_1233,2IFC,3,TOSY08,
2IFC,48,0,48,0,4.9,-1,wrong answer,0.734284100123,False,True,stimulusTOSY08_2IFC_2019_Jul_02_1233_547,stimulusTOSY08_2IFC_2019_Jul_02_1233_548,True,2019_Jul_02_1233,2IFC,3,TOSY08,
2IFC,49,0,49,0,9.7,-1,correct answer,0.567176199984,False,True,stimulusTOSY08_2IFC_2019_Jul_02_1233_549,stimulusTOSY08_2IFC_2019_Jul_02_1233_550,True,2019_Jul_02_1233,2IFC,3,TOSY08,
2IFC,50,0,50,0,10.7,-1,correct answer,0.433954000007,True,False,stimulusTOSY08_2IFC_2019_Jul_02_1233_551,stimulusTOSY08_2IFC_2019_Jul_02_1233_552,True,2019_Jul_02_1233,2IFC,3,TOSY08,
2IFC,51,0,51,0,12.9,-1,correct answer,0.367292900104,True,False,stimulusTOSY08_2IFC_2019_Jul_02_1233_553,stimulusTOSY08_2IFC_2019_Jul_02_1233_554,True,2019_Jul_02_1233,2IFC,3,TOSY08,
2IFC,52,0,52,0,10.7,-1,correct answer,0.300352299819,True,False,stimulusTOSY08_2IFC_2019_Jul_02_1233_555,stimulusTOSY08_2IFC_2019_Jul_02_1233_556,True,2019_Jul_02_1233,2IFC,3,TOSY08,
2IFC,53,0,53,0,4.9,-1,correct answer,0.567026600009,True,False,stimulusTOSY08_2IFC_2019_Jul_02_1233_557,stimulusTOSY08_2IFC_2019_Jul_02_1233_558,True,2019_Jul_02_1233,2IFC,3,TOSY08,
2IFC,54,0,54,0,10.7,-1,correct answer,0.400135100121,True,False,stimulusTOSY08_2IFC_2019_Jul_02_1233_559,stimulusTOSY08_2IFC_2019_Jul_02_1233_560,True,2019_Jul_02_1233,2IFC,3,TOSY08,
2IFC,55,0,55,0,6.5,-1,correct answer,0.502994199982,False,True,stimulusTOSY08_2IFC_2019_Jul_02_1233_561,stimulusTOSY08_2IFC_2019_Jul_02_1233_562,True,2019_Jul_02_1233,2IFC,3,TOSY08,
2IFC,56,0,56,0,8.7,-1,correct answer,0.467549399938,True,False,stimulusTOSY08_2IFC_2019_Jul_02_1233_563,stimulusTOSY08_2IFC_2019_Jul_02_1233_564,True,2019_Jul_02_1233,2IFC,3,TOSY08,
2IFC,57,0,57,0,12.9,-1,correct answer,0.436094899895,False,True,stimulusTOSY08_2IFC_2019_Jul_02_1233_565,stimulusTOSY08_2IFC_2019_Jul_02_1233_566,True,2019_Jul_02_1233,2IFC,3,TOSY08,
2IFC,58,0,58,0,6.5,-1,correct answer,0.500475999899,True,False,stimulusTOSY08_2IFC_2019_Jul_02_1233_567,stimulusTOSY08_2IFC_2019_Jul_02_1233_568,True,2019_Jul_02_1233,2IFC,3,TOSY08,
2IFC,59,0,59,0,7.7,-1,correct answer,0.569022400072,True,False,stimulusTOSY08_2IFC_2019_Jul_02_1233_569,stimulusTOSY08_2IFC_2019_Jul_02_1233_570,True,2019_Jul_02_1233,2IFC,3,TOSY08,
2IFC,60,0,60,0,6.5,-1,correct answer,0.402003799798,False,True,stimulusTOSY08_2IFC_2019_Jul_02_1233_571,stimulusTOSY08_2IFC_2019_Jul_02_1233_572,True,2019_Jul_02_1233,2IFC,3,TOSY08,
2IFC,61,0,61,0,11.7,-1,correct answer,0.400246300036,True,False,stimulusTOSY08_2IFC_2019_Jul_02_1233_573,stimulusTOSY08_2IFC_2019_Jul_02_1233_574,True,2019_Jul_02_1233,2IFC,3,TOSY08,
2IFC,62,0,62,0,8.7,-1,correct answer,0.567604900105,True,False,stimulusTOSY08_2IFC_2019_Jul_02_1233_575,stimulusTOSY08_2IFC_2019_Jul_02_1233_576,True,2019_Jul_02_1233,2IFC,3,TOSY08,
2IFC,63,0,63,0,11.7,-1,correct answer,0.602000500076,True,False,stimulusTOSY08_2IFC_2019_Jul_02_1233_577,stimulusTOSY08_2IFC_2019_Jul_02_1233_578,True,2019_Jul_02_1233,2IFC,3,TOSY08,
2IFC,64,0,64,0,9.7,-1,correct answer,0.534496099921,True,False,stimulusTOSY08_2IFC_2019_Jul_02_1233_579,stimulusTOSY08_2IFC_2019_Jul_02_1233_580,True,2019_Jul_02_1233,2IFC,3,TOSY08,
2IFC,65,0,65,0,9.7,-1,correct answer,0.367257299833,True,False,stimulusTOSY08_2IFC_2019_Jul_02_1233_581,stimulusTOSY08_2IFC_2019_Jul_02_1233_582,True,2019_Jul_02_1233,2IFC,3,TOSY08,
2IFC,66,0,66,0,6.5,-1,correct answer,0.567327399971,True,False,stimulusTOSY08_2IFC_2019_Jul_02_1233_583,stimulusTOSY08_2IFC_2019_Jul_02_1233_584,True,2019_Jul_02_1233,2IFC,3,TOSY08,
2IFC,67,0,67,0,12.9,-1,no answer,-1,False,True,stimulusTOSY08_2IFC_2019_Jul_02_1233_585,stimulusTOSY08_2IFC_2019_Jul_02_1233_586,True,2019_Jul_02_1233,2IFC,3,TOSY08,
2IFC,68,0,68,0,7.7,-1,correct answer,0.666972900042,True,False,stimulusTOSY08_2IFC_2019_Jul_02_1233_587,stimulusTOSY08_2IFC_2019_Jul_02_1233_588,True,2019_Jul_02_1233,2IFC,3,TOSY08,
2IFC,69,0,69,0,9.7,-1,correct answer,0.601002299925,False,True,stimulusTOSY08_2IFC_2019_Jul_02_1233_589,stimulusTOSY08_2IFC_2019_Jul_02_1233_590,True,2019_Jul_02_1233,2IFC,3,TOSY08,
2IFC,70,0,70,0,11.7,-1,correct answer,0.201169800013,True,False,stimulusTOSY08_2IFC_2019_Jul_02_1233_591,stimulusTOSY08_2IFC_2019_Jul_02_1233_592,True,2019_Jul_02_1233,2IFC,3,TOSY08,
2IFC,71,0,71,0,6.5,-1,correct answer,0.634149099933,True,False,stimulusTOSY08_2IFC_2019_Jul_02_1233_593,stimulusTOSY08_2IFC_2019_Jul_02_1233_594,True,2019_Jul_02_1233,2IFC,3,TOSY08,
2IFC,72,0,72,0,11.7,-1,correct answer,0.800449799979,True,False,stimulusTOSY08_2IFC_2019_Jul_02_1233_595,stimulusTOSY08_2IFC_2019_Jul_02_1233_596,True,2019_Jul_02_1233,2IFC,3,TOSY08,
2IFC,73,0,73,0,4.9,-1,correct answer,0.667093799915,True,False,stimulusTOSY08_2IFC_2019_Jul_02_1233_597,stimulusTOSY08_2IFC_2019_Jul_02_1233_598,True,2019_Jul_02_1233,2IFC,3,TOSY08,
2IFC,74,0,74,0,11.7,-1,correct answer,0.533615600085,True,False,stimulusTOSY08_2IFC_2019_Jul_02_1233_599,stimulusTOSY08_2IFC_2019_Jul_02_1233_600,True,2019_Jul_02_1233,2IFC,3,TOSY08,
2IFC,0,0,0,0,6.5,-1,correct answer,0.433828099864,False,True,stimulusTOSY08_2IFC_2019_Jul_02_1233_601,stimulusTOSY08_2IFC_2019_Jul_02_1233_602,True,2019_Jul_02_1233,2IFC,3,TOSY08,
2IFC,1,0,1,0,4.9,-1,correct answer,0.602489399957,False,True,stimulusTOSY08_2IFC_2019_Jul_02_1233_603,stimulusTOSY08_2IFC_2019_Jul_02_1233_604,True,2019_Jul_02_1233,2IFC,3,TOSY08,
2IFC,2,0,2,0,12.9,-1,correct answer,0.533197500044,False,True,stimulusTOSY08_2IFC_2019_Jul_02_1233_605,stimulusTOSY08_2IFC_2019_Jul_02_1233_606,True,2019_Jul_02_1233,2IFC,3,TOSY08,
2IFC,3,0,3,0,11.7,-1,correct answer,0.433925600024,False,True,stimulusTOSY08_2IFC_2019_Jul_02_1233_607,stimulusTOSY08_2IFC_2019_Jul_02_1233_608,True,2019_Jul_02_1233,2IFC,3,TOSY08,
2IFC,4,0,4,0,12.9,-1,correct answer,0.567212399794,False,True,stimulusTOSY08_2IFC_2019_Jul_02_1233_609,stimulusTOSY08_2IFC_2019_Jul_02_1233_610,True,2019_Jul_02_1233,2IFC,3,TOSY08,
2IFC,5,0,5,0,6.5,-1,correct answer,0.500084999949,False,True,stimulusTOSY08_2IFC_2019_Jul_02_1233_611,stimulusTOSY08_2IFC_2019_Jul_02_1233_612,True,2019_Jul_02_1233,2IFC,3,TOSY08,
2IFC,6,0,6,0,8.7,-1,correct answer,0.400353399804,True,False,stimulusTOSY08_2IFC_2019_Jul_02_1233_613,stimulusTOSY08_2IFC_2019_Jul_02_1233_614,True,2019_Jul_02_1233,2IFC,3,TOSY08,
2IFC,7,0,7,0,9.7,-1,correct answer,0.400345599977,False,True,stimulusTOSY08_2IFC_2019_Jul_02_1233_615,stimulusTOSY08_2IFC_2019_Jul_02_1233_616,True,2019_Jul_02_1233,2IFC,3,TOSY08,
2IFC,8,0,8,0,11.7,-1,correct answer,0.467346799793,False,True,stimulusTOSY08_2IFC_2019_Jul_02_1233_617,stimulusTOSY08_2IFC_2019_Jul_02_1233_618,True,2019_Jul_02_1233,2IFC,3,TOSY08,
2IFC,9,0,9,0,10.7,-1,correct answer,0.467297499999,False,True,stimulusTOSY08_2IFC_2019_Jul_02_1233_619,stimulusTOSY08_2IFC_2019_Jul_02_1233_620,True,2019_Jul_02_1233,2IFC,3,TOSY08,
2IFC,10,0,10,0,6.5,-1,correct answer,0.667468100088,False,True,stimulusTOSY08_2IFC_2019_Jul_02_1233_621,stimulusTOSY08_2IFC_2019_Jul_02_1233_622,True,2019_Jul_02_1233,2IFC,3,TOSY08,
2IFC,11,0,11,0,9.7,-1,correct answer,0.566929099848,False,True,stimulusTOSY08_2IFC_2019_Jul_02_1233_623,stimulusTOSY08_2IFC_2019_Jul_02_1233_624,True,2019_Jul_02_1233,2IFC,3,TOSY08,
2IFC,12,0,12,0,8.7,-1,correct answer,0.366940799868,False,True,stimulusTOSY08_2IFC_2019_Jul_02_1233_625,stimulusTOSY08_2IFC_2019_Jul_02_1233_626,True,2019_Jul_02_1233,2IFC,3,TOSY08,
2IFC,13,0,13,0,12.9,-1,correct answer,0.500646600034,False,True,stimulusTOSY08_2IFC_2019_Jul_02_1233_627,stimulusTOSY08_2IFC_2019_Jul_02_1233_628,True,2019_Jul_02_1233,2IFC,3,TOSY08,
2IFC,14,0,14,0,4.9,-1,correct answer,0.601900700014,False,True,stimulusTOSY08_2IFC_2019_Jul_02_1233_629,stimulusTOSY08_2IFC_2019_Jul_02_1233_630,True,2019_Jul_02_1233,2IFC,3,TOSY08,
2IFC,15,0,15,0,9.7,-1,correct answer,0.433039299911,True,False,stimulusTOSY08_2IFC_2019_Jul_02_1233_631,stimulusTOSY08_2IFC_2019_Jul_02_1233_632,True,2019_Jul_02_1233,2IFC,3,TOSY08,
2IFC,16,0,16,0,9.7,-1,correct answer,0.533910699887,True,False,stimulusTOSY08_2IFC_2019_Jul_02_1233_633,stimulusTOSY08_2IFC_2019_Jul_02_1233_634,True,2019_Jul_02_1233,2IFC,3,TOSY08,
2IFC,17,0,17,0,8.7,-1,correct answer,0.433005600004,False,True,stimulusTOSY08_2IFC_2019_Jul_02_1233_635,stimulusTOSY08_2IFC_2019_Jul_02_1233_636,True,2019_Jul_02_1233,2IFC,3,TOSY08,
2IFC,18,0,18,0,8.7,-1,correct answer,0.534340699902,True,False,stimulusTOSY08_2IFC_2019_Jul_02_1233_637,stimulusTOSY08_2IFC_2019_Jul_02_1233_638,True,2019_Jul_02_1233,2IFC,3,TOSY08,
2IFC,19,0,19,0,11.7,-1,correct answer,0.500121099874,False,True,stimulusTOSY08_2IFC_2019_Jul_02_1233_639,stimulusTOSY08_2IFC_2019_Jul_02_1233_640,True,2019_Jul_02_1233,2IFC,3,TOSY08,
2IFC,20,0,20,0,10.7,-1,correct answer,0.434020000044,False,True,stimulusTOSY08_2IFC_2019_Jul_02_1233_641,stimulusTOSY08_2IFC_2019_Jul_02_1233_642,True,2019_Jul_02_1233,2IFC,3,TOSY08,
2IFC,21,0,21,0,8.7,-1,correct answer,0.301314100157,True,False,stimulusTOSY08_2IFC_2019_Jul_02_1233_643,stimulusTOSY08_2IFC_2019_Jul_02_1233_644,True,2019_Jul_02_1233,2IFC,3,TOSY08,
2IFC,22,0,22,0,10.7,-1,correct answer,0.569645000156,False,True,stimulusTOSY08_2IFC_2019_Jul_02_1233_645,stimulusTOSY08_2IFC_2019_Jul_02_1233_646,True,2019_Jul_02_1233,2IFC,3,TOSY08,
2IFC,23,0,23,0,9.7,-1,correct answer,0.467349000042,False,True,stimulusTOSY08_2IFC_2019_Jul_02_1233_647,stimulusTOSY08_2IFC_2019_Jul_02_1233_648,True,2019_Jul_02_1233,2IFC,3,TOSY08,
2IFC,24,0,24,0,4.9,-1,correct answer,0.634675499983,True,False,stimulusTOSY08_2IFC_2019_Jul_02_1233_649,stimulusTOSY08_2IFC_2019_Jul_02_1233_650,True,2019_Jul_02_1233,2IFC,3,TOSY08,
2IFC,25,0,25,0,12.9,-1,correct answer,0.402007200057,False,True,stimulusTOSY08_2IFC_2019_Jul_02_1233_651,stimulusTOSY08_2IFC_2019_Jul_02_1233_652,True,2019_Jul_02_1233,2IFC,3,TOSY08,
2IFC,26,0,26,0,10.7,-1,correct answer,0.300551899942,True,False,stimulusTOSY08_2IFC_2019_Jul_02_1233_653,stimulusTOSY08_2IFC_2019_Jul_02_1233_654,True,2019_Jul_02_1233,2IFC,3,TOSY08,
2IFC,27,0,27,0,8.7,-1,correct answer,0.334333300125,True,False,stimulusTOSY08_2IFC_2019_Jul_02_1233_655,stimulusTOSY08_2IFC_2019_Jul_02_1233_656,True,2019_Jul_02_1233,2IFC,3,TOSY08,
2IFC,28,0,28,0,6.5,-1,correct answer,0.535341900075,True,False,stimulusTOSY08_2IFC_2019_Jul_02_1233_657,stimulusTOSY08_2IFC_2019_Jul_02_1233_658,True,2019_Jul_02_1233,2IFC,3,TOSY08,
2IFC,29,0,29,0,7.7,-1,correct answer,0.300582800061,True,False,stimulusTOSY08_2IFC_2019_Jul_02_1233_659,stimulusTOSY08_2IFC_2019_Jul_02_1233_660,True,2019_Jul_02_1233,2IFC,3,TOSY08,
2IFC,30,0,30,0,8.7,-1,correct answer,0.301590700168,True,False,stimulusTOSY08_2IFC_2019_Jul_02_1233_661,stimulusTOSY08_2IFC_2019_Jul_02_1233_662,True,2019_Jul_02_1233,2IFC,3,TOSY08,
2IFC,31,0,31,0,7.7,-1,correct answer,0.400867699878,True,False,stimulusTOSY08_2IFC_2019_Jul_02_1233_663,stimulusTOSY08_2IFC_2019_Jul_02_1233_664,True,2019_Jul_02_1233,2IFC,3,TOSY08,
2IFC,32,0,32,0,8.7,-1,correct answer,0.567917299923,True,False,stimulusTOSY08_2IFC_2019_Jul_02_1233_665,stimulusTOSY08_2IFC_2019_Jul_02_1233_666,True,2019_Jul_02_1233,2IFC,3,TOSY08,
2IFC,33,0,33,0,11.7,-1,correct answer,0.535181900021,False,True,stimulusTOSY08_2IFC_2019_Jul_02_1233_667,stimulusTOSY08_2IFC_2019_Jul_02_1233_668,True,2019_Jul_02_1233,2IFC,3,TOSY08,
2IFC,34,0,34,0,11.7,-1,correct answer,0.367015599972,True,False,stimulusTOSY08_2IFC_2019_Jul_02_1233_669,stimulusTOSY08_2IFC_2019_Jul_02_1233_670,True,2019_Jul_02_1233,2IFC,3,TOSY08,
2IFC,35,0,35,0,6.5,-1,correct answer,0.367417400004,False,True,stimulusTOSY08_2IFC_2019_Jul_02_1233_671,stimulusTOSY08_2IFC_2019_Jul_02_1233_672,True,2019_Jul_02_1233,2IFC,3,TOSY08,
2IFC,36,0,36,0,9.7,-1,correct answer,0.533097099978,True,False,stimulusTOSY08_2IFC_2019_Jul_02_1233_673,stimulusTOSY08_2IFC_2019_Jul_02_1233_674,True,2019_Jul_02_1233,2IFC,3,TOSY08,
2IFC,37,0,37,0,4.9,-1,correct answer,0.400725600077,False,True,stimulusTOSY08_2IFC_2019_Jul_02_1233_675,stimulusTOSY08_2IFC_2019_Jul_02_1233_676,True,2019_Jul_02_1233,2IFC,3,TOSY08,
2IFC,38,0,38,0,9.7,-1,correct answer,0.40063300007,False,True,stimulusTOSY08_2IFC_2019_Jul_02_1233_677,stimulusTOSY08_2IFC_2019_Jul_02_1233_678,True,2019_Jul_02_1233,2IFC,3,TOSY08,
2IFC,39,0,39,0,6.5,-1,correct answer,0.500267300056,True,False,stimulusTOSY08_2IFC_2019_Jul_02_1233_679,stimulusTOSY08_2IFC_2019_Jul_02_1233_680,True,2019_Jul_02_1233,2IFC,3,TOSY08,
2IFC,40,0,40,0,9.7,-1,correct answer,0.466903399909,False,True,stimulusTOSY08_2IFC_2019_Jul_02_1233_681,stimulusTOSY08_2IFC_2019_Jul_02_1233_682,True,2019_Jul_02_1233,2IFC,3,TOSY08,
2IFC,41,0,41,0,9.7,-1,correct answer,0.435120400041,False,True,stimulusTOSY08_2IFC_2019_Jul_02_1233_683,stimulusTOSY08_2IFC_2019_Jul_02_1233_684,True,2019_Jul_02_1233,2IFC,3,TOSY08,
2IFC,42,0,42,0,12.9,-1,correct answer,0.335190000013,False,True,stimulusTOSY08_2IFC_2019_Jul_02_1233_685,stimulusTOSY08_2IFC_2019_Jul_02_1233_686,True,2019_Jul_02_1233,2IFC,3,TOSY08,
2IFC,43,0,43,0,9.7,-1,correct answer,0.434363099979,True,False,stimulusTOSY08_2IFC_2019_Jul_02_1233_687,stimulusTOSY08_2IFC_2019_Jul_02_1233_688,True,2019_Jul_02_1233,2IFC,3,TOSY08,
2IFC,44,0,44,0,12.9,-1,correct answer,0.300653999904,True,False,stimulusTOSY08_2IFC_2019_Jul_02_1233_689,stimulusTOSY08_2IFC_2019_Jul_02_1233_690,True,2019_Jul_02_1233,2IFC,3,TOSY08,
2IFC,45,0,45,0,6.5,-1,correct answer,0.367275999859,True,False,stimulusTOSY08_2IFC_2019_Jul_02_1233_691,stimulusTOSY08_2IFC_2019_Jul_02_1233_692,True,2019_Jul_02_1233,2IFC,3,TOSY08,
2IFC,46,0,46,0,9.7,-1,correct answer,0.334102799883,False,True,stimulusTOSY08_2IFC_2019_Jul_02_1233_693,stimulusTOSY08_2IFC_2019_Jul_02_1233_694,True,2019_Jul_02_1233,2IFC,3,TOSY08,
2IFC,47,0,47,0,4.9,-1,correct answer,0.568049200112,True,False,stimulusTOSY08_2IFC_2019_Jul_02_1233_695,stimulusTOSY08_2IFC_2019_Jul_02_1233_696,True,2019_Jul_02_1233,2IFC,3,TOSY08,
2IFC,48,0,48,0,4.9,-1,correct answer,0.568753500003,True,False,stimulusTOSY08_2IFC_2019_Jul_02_1233_697,stimulusTOSY08_2IFC_2019_Jul_02_1233_698,True,2019_Jul_02_1233,2IFC,3,TOSY08,
2IFC,49,0,49,0,11.7,-1,correct answer,0.466788199963,True,False,stimulusTOSY08_2IFC_2019_Jul_02_1233_699,stimulusTOSY08_2IFC_2019_Jul_02_1233_700,True,2019_Jul_02_1233,2IFC,3,TOSY08,
2IFC,50,0,50,0,6.5,-1,correct answer,0.43355680001,False,True,stimulusTOSY08_2IFC_2019_Jul_02_1233_701,stimulusTOSY08_2IFC_2019_Jul_02_1233_702,True,2019_Jul_02_1233,2IFC,3,TOSY08,
2IFC,51,0,51,0,10.7,-1,correct answer,0.400897099869,False,True,stimulusTOSY08_2IFC_2019_Jul_02_1233_703,stimulusTOSY08_2IFC_2019_Jul_02_1233_704,True,2019_Jul_02_1233,2IFC,3,TOSY08,
2IFC,52,0,52,0,7.7,-1,wrong answer,0.432511700084,False,True,stimulusTOSY08_2IFC_2019_Jul_02_1233_705,stimulusTOSY08_2IFC_2019_Jul_02_1233_706,True,2019_Jul_02_1233,2IFC,3,TOSY08,
2IFC,53,0,53,0,4.9,-1,wrong answer,0.300686700037,True,False,stimulusTOSY08_2IFC_2019_Jul_02_1233_707,stimulusTOSY08_2IFC_2019_Jul_02_1233_708,True,2019_Jul_02_1233,2IFC,3,TOSY08,
2IFC,54,0,54,0,7.7,-1,correct answer,0.300252099987,True,False,stimulusTOSY08_2IFC_2019_Jul_02_1233_709,stimulusTOSY08_2IFC_2019_Jul_02_1233_710,True,2019_Jul_02_1233,2IFC,3,TOSY08,
2IFC,55,0,55,0,9.7,-1,correct answer,0.0673056000378,False,True,stimulusTOSY08_2IFC_2019_Jul_02_1233_711,stimulusTOSY08_2IFC_2019_Jul_02_1233_712,True,2019_Jul_02_1233,2IFC,3,TOSY08,
2IFC,56,0,56,0,9.7,-1,wrong answer,0.500645499909,False,True,stimulusTOSY08_2IFC_2019_Jul_02_1233_713,stimulusTOSY08_2IFC_2019_Jul_02_1233_714,True,2019_Jul_02_1233,2IFC,3,TOSY08,
2IFC,57,0,57,0,7.7,-1,correct answer,0.467608999927,True,False,stimulusTOSY08_2IFC_2019_Jul_02_1233_715,stimulusTOSY08_2IFC_2019_Jul_02_1233_716,True,2019_Jul_02_1233,2IFC,3,TOSY08,
2IFC,58,0,58,0,7.7,-1,correct answer,0.336446100147,False,True,stimulusTOSY08_2IFC_2019_Jul_02_1233_717,stimulusTOSY08_2IFC_2019_Jul_02_1233_718,True,2019_Jul_02_1233,2IFC,3,TOSY08,
2IFC,59,0,59,0,4.9,-1,correct answer,0.401147900149,True,False,stimulusTOSY08_2IFC_2019_Jul_02_1233_719,stimulusTOSY08_2IFC_2019_Jul_02_1233_720,True,2019_Jul_02_1233,2IFC,3,TOSY08,
2IFC,60,0,60,0,9.7,-1,correct answer,0.334175999975,False,True,stimulusTOSY08_2IFC_2019_Jul_02_1233_721,stimulusTOSY08_2IFC_2019_Jul_02_1233_722,True,2019_Jul_02_1233,2IFC,3,TOSY08,
2IFC,61,0,61,0,6.5,-1,correct answer,0.433679899899,False,True,stimulusTOSY08_2IFC_2019_Jul_02_1233_723,stimulusTOSY08_2IFC_2019_Jul_02_1233_724,True,2019_Jul_02_1233,2IFC,3,TOSY08,
2IFC,62,0,62,0,4.9,-1,correct answer,0.434399700025,False,True,stimulusTOSY08_2IFC_2019_Jul_02_1233_725,stimulusTOSY08_2IFC_2019_Jul_02_1233_726,True,2019_Jul_02_1233,2IFC,3,TOSY08,
2IFC,63,0,63,0,7.7,-1,correct answer,0.434369599912,False,True,stimulusTOSY08_2IFC_2019_Jul_02_1233_727,stimulusTOSY08_2IFC_2019_Jul_02_1233_728,True,2019_Jul_02_1233,2IFC,3,TOSY08,
2IFC,64,0,64,0,6.5,-1,correct answer,0.504093799973,True,False,stimulusTOSY08_2IFC_2019_Jul_02_1233_729,stimulusTOSY08_2IFC_2019_Jul_02_1233_730,True,2019_Jul_02_1233,2IFC,3,TOSY08,
2IFC,65,0,65,0,4.9,-1,correct answer,0.536871999968,True,False,stimulusTOSY08_2IFC_2019_Jul_02_1233_731,stimulusTOSY08_2IFC_2019_Jul_02_1233_732,True,2019_Jul_02_1233,2IFC,3,TOSY08,
2IFC,66,0,66,0,4.9,-1,correct answer,0.366722400067,True,False,stimulusTOSY08_2IFC_2019_Jul_02_1233_733,stimulusTOSY08_2IFC_2019_Jul_02_1233_734,True,2019_Jul_02_1233,2IFC,3,TOSY08,
2IFC,67,0,67,0,7.7,-1,correct answer,0.534580899868,True,False,stimulusTOSY08_2IFC_2019_Jul_02_1233_735,stimulusTOSY08_2IFC_2019_Jul_02_1233_736,True,2019_Jul_02_1233,2IFC,3,TOSY08,
2IFC,68,0,68,0,11.7,-1,correct answer,0.36560879997,True,False,stimulusTOSY08_2IFC_2019_Jul_02_1233_737,stimulusTOSY08_2IFC_2019_Jul_02_1233_738,True,2019_Jul_02_1233,2IFC,3,TOSY08,
2IFC,69,0,69,0,9.7,-1,correct answer,0.437512099976,False,True,stimulusTOSY08_2IFC_2019_Jul_02_1233_739,stimulusTOSY08_2IFC_2019_Jul_02_1233_740,True,2019_Jul_02_1233,2IFC,3,TOSY08,
2IFC,70,0,70,0,12.9,-1,wrong answer,0.568590100156,False,True,stimulusTOSY08_2IFC_2019_Jul_02_1233_741,stimulusTOSY08_2IFC_2019_Jul_02_1233_742,True,2019_Jul_02_1233,2IFC,3,TOSY08,
2IFC,71,0,71,0,6.5,-1,correct answer,0.336181999883,True,False,stimulusTOSY08_2IFC_2019_Jul_02_1233_743,stimulusTOSY08_2IFC_2019_Jul_02_1233_744,True,2019_Jul_02_1233,2IFC,3,TOSY08,
2IFC,72,0,72,0,6.5,-1,correct answer,0.299064599909,True,False,stimulusTOSY08_2IFC_2019_Jul_02_1233_745,stimulusTOSY08_2IFC_2019_Jul_02_1233_746,True,2019_Jul_02_1233,2IFC,3,TOSY08,
2IFC,73,0,73,0,11.7,-1,correct answer,0.201324599795,True,False,stimulusTOSY08_2IFC_2019_Jul_02_1233_747,stimulusTOSY08_2IFC_2019_Jul_02_1233_748,True,2019_Jul_02_1233,2IFC,3,TOSY08,
2IFC,74,0,74,0,9.7,-1,correct answer,0.468954700045,True,False,stimulusTOSY08_2IFC_2019_Jul_02_1233_749,stimulusTOSY08_2IFC_2019_Jul_02_1233_750,True,2019_Jul_02_1233,2IFC,3,TOSY08,
2IFC,0,0,0,0,6.5,-1,correct answer,0.400878699962,False,True,stimulusTOSY08_2IFC_2019_Jul_02_1233_751,stimulusTOSY08_2IFC_2019_Jul_02_1233_752,True,2019_Jul_02_1233,2IFC,3,TOSY08,
2IFC,1,0,1,0,9.7,-1,correct answer,0.266868000152,True,False,stimulusTOSY08_2IFC_2019_Jul_02_1233_753,stimulusTOSY08_2IFC_2019_Jul_02_1233_754,True,2019_Jul_02_1233,2IFC,3,TOSY08,
2IFC,2,0,2,0,7.7,-1,correct answer,0.300763000036,True,False,stimulusTOSY08_2IFC_2019_Jul_02_1233_755,stimulusTOSY08_2IFC_2019_Jul_02_1233_756,True,2019_Jul_02_1233,2IFC,3,TOSY08,
2IFC,3,0,3,0,8.7,-1,correct answer,0.40067789983,False,True,stimulusTOSY08_2IFC_2019_Jul_02_1233_757,stimulusTOSY08_2IFC_2019_Jul_02_1233_758,True,2019_Jul_02_1233,2IFC,3,TOSY08,
2IFC,4,0,4,0,12.9,-1,correct answer,0.533795600059,False,True,stimulusTOSY08_2IFC_2019_Jul_02_1233_759,stimulusTOSY08_2IFC_2019_Jul_02_1233_760,True,2019_Jul_02_1233,2IFC,3,TOSY08,
2IFC,5,0,5,0,4.9,-1,correct answer,0.56670919992,True,False,stimulusTOSY08_2IFC_2019_Jul_02_1233_761,stimulusTOSY08_2IFC_2019_Jul_02_1233_762,True,2019_Jul_02_1233,2IFC,3,TOSY08,
2IFC,6,0,6,0,12.9,-1,correct answer,0.467845999869,False,True,stimulusTOSY08_2IFC_2019_Jul_02_1233_763,stimulusTOSY08_2IFC_2019_Jul_02_1233_764,True,2019_Jul_02_1233,2IFC,3,TOSY08,
2IFC,7,0,7,0,4.9,-1,correct answer,0.633944000117,False,True,stimulusTOSY08_2IFC_2019_Jul_02_1233_765,stimulusTOSY08_2IFC_2019_Jul_02_1233_766,True,2019_Jul_02_1233,2IFC,3,TOSY08,
2IFC,8,0,8,0,11.7,-1,correct answer,0.533548500156,False,True,stimulusTOSY08_2IFC_2019_Jul_02_1233_767,stimulusTOSY08_2IFC_2019_Jul_02_1233_768,True,2019_Jul_02_1233,2IFC,3,TOSY08,
2IFC,9,0,9,0,12.9,-1,correct answer,0.565725699998,False,True,stimulusTOSY08_2IFC_2019_Jul_02_1233_769,stimulusTOSY08_2IFC_2019_Jul_02_1233_770,True,2019_Jul_02_1233,2IFC,3,TOSY08,
2IFC,10,0,10,0,6.5,-1,correct answer,0.467825599946,True,False,stimulusTOSY08_2IFC_2019_Jul_02_1233_771,stimulusTOSY08_2IFC_2019_Jul_02_1233_772,True,2019_Jul_02_1233,2IFC,3,TOSY08,
2IFC,11,0,11,0,10.7,-1,correct answer,0.400700700004,True,False,stimulusTOSY08_2IFC_2019_Jul_02_1233_773,stimulusTOSY08_2IFC_2019_Jul_02_1233_774,True,2019_Jul_02_1233,2IFC,3,TOSY08,
2IFC,12,0,12,0,4.9,-1,wrong answer,0.601310100174,False,True,stimulusTOSY08_2IFC_2019_Jul_02_1233_775,stimulusTOSY08_2IFC_2019_Jul_02_1233_776,True,2019_Jul_02_1233,2IFC,3,TOSY08,
2IFC,13,0,13,0,9.7,-1,correct answer,0.367383699864,False,True,stimulusTOSY08_2IFC_2019_Jul_02_1233_777,stimulusTOSY08_2IFC_2019_Jul_02_1233_778,True,2019_Jul_02_1233,2IFC,3,TOSY08,
2IFC,14,0,14,0,6.5,-1,correct answer,0.434212699998,True,False,stimulusTOSY08_2IFC_2019_Jul_02_1233_779,stimulusTOSY08_2IFC_2019_Jul_02_1233_780,True,2019_Jul_02_1233,2IFC,3,TOSY08,
2IFC,15,0,15,0,4.9,-1,correct answer,0.333553300006,False,True,stimulusTOSY08_2IFC_2019_Jul_02_1233_781,stimulusTOSY08_2IFC_2019_Jul_02_1233_782,True,2019_Jul_02_1233,2IFC,3,TOSY08,
2IFC,16,0,16,0,9.7,-1,correct answer,0.267109700013,True,False,stimulusTOSY08_2IFC_2019_Jul_02_1233_783,stimulusTOSY08_2IFC_2019_Jul_02_1233_784,True,2019_Jul_02_1233,2IFC,3,TOSY08,
2IFC,17,0,17,0,6.5,-1,correct answer,0.467505600071,False,True,stimulusTOSY08_2IFC_2019_Jul_02_1233_785,stimulusTOSY08_2IFC_2019_Jul_02_1233_786,True,2019_Jul_02_1233,2IFC,3,TOSY08,
2IFC,18,0,18,0,12.9,-1,correct answer,0.267496499931,True,False,stimulusTOSY08_2IFC_2019_Jul_02_1233_787,stimulusTOSY08_2IFC_2019_Jul_02_1233_788,True,2019_Jul_02_1233,2IFC,3,TOSY08,
2IFC,19,0,19,0,9.7,-1,correct answer,0.400466699852,False,True,stimulusTOSY08_2IFC_2019_Jul_02_1233_789,stimulusTOSY08_2IFC_2019_Jul_02_1233_790,True,2019_Jul_02_1233,2IFC,3,TOSY08,
2IFC,20,0,20,0,11.7,-1,correct answer,0.434584300034,False,True,stimulusTOSY08_2IFC_2019_Jul_02_1233_791,stimulusTOSY08_2IFC_2019_Jul_02_1233_792,True,2019_Jul_02_1233,2IFC,3,TOSY08,
2IFC,21,0,21,0,9.7,-1,correct answer,0.433531199815,False,True,stimulusTOSY08_2IFC_2019_Jul_02_1233_793,stimulusTOSY08_2IFC_2019_Jul_02_1233_794,True,2019_Jul_02_1233,2IFC,3,TOSY08,
2IFC,22,0,22,0,9.7,-1,correct answer,0.366761300014,True,False,stimulusTOSY08_2IFC_2019_Jul_02_1233_795,stimulusTOSY08_2IFC_2019_Jul_02_1233_796,True,2019_Jul_02_1233,2IFC,3,TOSY08,
2IFC,23,0,23,0,9.7,-1,correct answer,0.501053600106,True,False,stimulusTOSY08_2IFC_2019_Jul_02_1233_797,stimulusTOSY08_2IFC_2019_Jul_02_1233_798,True,2019_Jul_02_1233,2IFC,3,TOSY08,
2IFC,24,0,24,0,6.5,-1,correct answer,0.367987600155,False,True,stimulusTOSY08_2IFC_2019_Jul_02_1233_799,stimulusTOSY08_2IFC_2019_Jul_02_1233_800,True,2019_Jul_02_1233,2IFC,3,TOSY08,
2IFC,25,0,25,0,7.7,-1,correct answer,0.366604200099,True,False,stimulusTOSY08_2IFC_2019_Jul_02_1233_801,stimulusTOSY08_2IFC_2019_Jul_02_1233_802,True,2019_Jul_02_1233,2IFC,3,TOSY08,
2IFC,26,0,26,0,7.7,-1,correct answer,0.565926400013,True,False,stimulusTOSY08_2IFC_2019_Jul_02_1233_803,stimulusTOSY08_2IFC_2019_Jul_02_1233_804,True,2019_Jul_02_1233,2IFC,3,TOSY08,
2IFC,27,0,27,0,9.7,-1,correct answer,0.500922500156,True,False,stimulusTOSY08_2IFC_2019_Jul_02_1233_805,stimulusTOSY08_2IFC_2019_Jul_02_1233_806,True,2019_Jul_02_1233,2IFC,3,TOSY08,
2IFC,28,0,28,0,12.9,-1,correct answer,0.299772000173,True,False,stimulusTOSY08_2IFC_2019_Jul_02_1233_807,stimulusTOSY08_2IFC_2019_Jul_02_1233_808,True,2019_Jul_02_1233,2IFC,3,TOSY08,
2IFC,29,0,29,0,6.5,-1,wrong answer,0.667639099993,False,True,stimulusTOSY08_2IFC_2019_Jul_02_1233_809,stimulusTOSY08_2IFC_2019_Jul_02_1233_810,True,2019_Jul_02_1233,2IFC,3,TOSY08,
2IFC,30,0,30,0,11.7,-1,correct answer,0.466657900019,True,False,stimulusTOSY08_2IFC_2019_Jul_02_1233_811,stimulusTOSY08_2IFC_2019_Jul_02_1233_812,True,2019_Jul_02_1233,2IFC,3,TOSY08,
2IFC,31,0,31,0,12.9,-1,correct answer,0.466571900062,False,True,stimulusTOSY08_2IFC_2019_Jul_02_1233_813,stimulusTOSY08_2IFC_2019_Jul_02_1233_814,True,2019_Jul_02_1233,2IFC,3,TOSY08,
2IFC,32,0,32,0,7.7,-1,correct answer,0.33370009996,True,False,stimulusTOSY08_2IFC_2019_Jul_02_1233_815,stimulusTOSY08_2IFC_2019_Jul_02_1233_816,True,2019_Jul_02_1233,2IFC,3,TOSY08,
2IFC,33,0,33,0,12.9,-1,correct answer,0.533904699842,False,True,stimulusTOSY08_2IFC_2019_Jul_02_1233_817,stimulusTOSY08_2IFC_2019_Jul_02_1233_818,True,2019_Jul_02_1233,2IFC,3,TOSY08,
2IFC,34,0,34,0,7.7,-1,correct answer,0.634155999869,False,True,stimulusTOSY08_2IFC_2019_Jul_02_1233_819,stimulusTOSY08_2IFC_2019_Jul_02_1233_820,True,2019_Jul_02_1233,2IFC,3,TOSY08,
2IFC,35,0,35,0,8.7,-1,correct answer,0.334341999842,True,False,stimulusTOSY08_2IFC_2019_Jul_02_1233_821,stimulusTOSY08_2IFC_2019_Jul_02_1233_822,True,2019_Jul_02_1233,2IFC,3,TOSY08,
2IFC,36,0,36,0,12.9,-1,correct answer,0.301200899994,False,True,stimulusTOSY08_2IFC_2019_Jul_02_1233_823,stimulusTOSY08_2IFC_2019_Jul_02_1233_824,True,2019_Jul_02_1233,2IFC,3,TOSY08,
2IFC,37,0,37,0,11.7,-1,correct answer,0.531777800061,False,True,stimulusTOSY08_2IFC_2019_Jul_02_1233_825,stimulusTOSY08_2IFC_2019_Jul_02_1233_826,True,2019_Jul_02_1233,2IFC,3,TOSY08,
2IFC,38,0,38,0,10.7,-1,correct answer,0.43392939982,True,False,stimulusTOSY08_2IFC_2019_Jul_02_1233_827,stimulusTOSY08_2IFC_2019_Jul_02_1233_828,True,2019_Jul_02_1233,2IFC,3,TOSY08,
2IFC,39,0,39,0,8.7,-1,correct answer,0.500991899986,False,True,stimulusTOSY08_2IFC_2019_Jul_02_1233_829,stimulusTOSY08_2IFC_2019_Jul_02_1233_830,True,2019_Jul_02_1233,2IFC,3,TOSY08,
2IFC,40,0,40,0,9.7,-1,correct answer,0.534115199931,False,True,stimulusTOSY08_2IFC_2019_Jul_02_1233_831,stimulusTOSY08_2IFC_2019_Jul_02_1233_832,True,2019_Jul_02_1233,2IFC,3,TOSY08,
2IFC,41,0,41,0,9.7,-1,correct answer,0.567250800086,False,True,stimulusTOSY08_2IFC_2019_Jul_02_1233_833,stimulusTOSY08_2IFC_2019_Jul_02_1233_834,True,2019_Jul_02_1233,2IFC,3,TOSY08,
2IFC,42,0,42,0,6.5,-1,wrong answer,0.601168000139,False,True,stimulusTOSY08_2IFC_2019_Jul_02_1233_835,stimulusTOSY08_2IFC_2019_Jul_02_1233_836,True,2019_Jul_02_1233,2IFC,3,TOSY08,
2IFC,43,0,43,0,7.7,-1,correct answer,0.334139799932,False,True,stimulusTOSY08_2IFC_2019_Jul_02_1233_837,stimulusTOSY08_2IFC_2019_Jul_02_1233_838,True,2019_Jul_02_1233,2IFC,3,TOSY08,
2IFC,44,0,44,0,4.9,-1,correct answer,0.567997599952,False,True,stimulusTOSY08_2IFC_2019_Jul_02_1233_839,stimulusTOSY08_2IFC_2019_Jul_02_1233_840,True,2019_Jul_02_1233,2IFC,3,TOSY08,
2IFC,45,0,45,0,9.7,-1,correct answer,0.466491000028,False,True,stimulusTOSY08_2IFC_2019_Jul_02_1233_841,stimulusTOSY08_2IFC_2019_Jul_02_1233_842,True,2019_Jul_02_1233,2IFC,3,TOSY08,
2IFC,46,0,46,0,6.5,-1,correct answer,0.467453099787,False,True,stimulusTOSY08_2IFC_2019_Jul_02_1233_843,stimulusTOSY08_2IFC_2019_Jul_02_1233_844,True,2019_Jul_02_1233,2IFC,3,TOSY08,
2IFC,47,0,47,0,4.9,-1,correct answer,0.499172899872,True,False,stimulusTOSY08_2IFC_2019_Jul_02_1233_845,stimulusTOSY08_2IFC_2019_Jul_02_1233_846,True,2019_Jul_02_1233,2IFC,3,TOSY08,
2IFC,48,0,48,0,9.7,-1,correct answer,0.466963899788,False,True,stimulusTOSY08_2IFC_2019_Jul_02_1233_847,stimulusTOSY08_2IFC_2019_Jul_02_1233_848,True,2019_Jul_02_1233,2IFC,3,TOSY08,
2IFC,49,0,49,0,7.7,-1,correct answer,0.434197199997,True,False,stimulusTOSY08_2IFC_2019_Jul_02_1233_849,stimulusTOSY08_2IFC_2019_Jul_02_1233_850,True,2019_Jul_02_1233,2IFC,3,TOSY08,
2IFC,50,0,50,0,10.7,-1,correct answer,0.46715440019,False,True,stimulusTOSY08_2IFC_2019_Jul_02_1233_851,stimulusTOSY08_2IFC_2019_Jul_02_1233_852,True,2019_Jul_02_1233,2IFC,3,TOSY08,
2IFC,51,0,51,0,10.7,-1,correct answer,0.300906799966,True,False,stimulusTOSY08_2IFC_2019_Jul_02_1233_853,stimulusTOSY08_2IFC_2019_Jul_02_1233_854,True,2019_Jul_02_1233,2IFC,3,TOSY08,
2IFC,52,0,52,0,4.9,-1,wrong answer,0.600632300135,False,True,stimulusTOSY08_2IFC_2019_Jul_02_1233_855,stimulusTOSY08_2IFC_2019_Jul_02_1233_856,True,2019_Jul_02_1233,2IFC,3,TOSY08,
2IFC,53,0,53,0,11.7,-1,correct answer,0.433531299932,False,True,stimulusTOSY08_2IFC_2019_Jul_02_1233_857,stimulusTOSY08_2IFC_2019_Jul_02_1233_858,True,2019_Jul_02_1233,2IFC,3,TOSY08,
2IFC,54,0,54,0,6.5,-1,correct answer,0.400547999889,True,False,stimulusTOSY08_2IFC_2019_Jul_02_1233_859,stimulusTOSY08_2IFC_2019_Jul_02_1233_860,True,2019_Jul_02_1233,2IFC,3,TOSY08,
2IFC,55,0,55,0,9.7,-1,correct answer,0.433440899942,True,False,stimulusTOSY08_2IFC_2019_Jul_02_1233_861,stimulusTOSY08_2IFC_2019_Jul_02_1233_862,True,2019_Jul_02_1233,2IFC,3,TOSY08,
2IFC,56,0,56,0,8.7,-1,correct answer,0.39996979991,False,True,stimulusTOSY08_2IFC_2019_Jul_02_1233_863,stimulusTOSY08_2IFC_2019_Jul_02_1233_864,True,2019_Jul_02_1233,2IFC,3,TOSY08,
2IFC,57,0,57,0,8.7,-1,correct answer,0.300668400014,True,False,stimulusTOSY08_2IFC_2019_Jul_02_1233_865,stimulusTOSY08_2IFC_2019_Jul_02_1233_866,True,2019_Jul_02_1233,2IFC,3,TOSY08,
2IFC,58,0,58,0,11.7,-1,correct answer,0.367907800013,False,True,stimulusTOSY08_2IFC_2019_Jul_02_1233_867,stimulusTOSY08_2IFC_2019_Jul_02_1233_868,True,2019_Jul_02_1233,2IFC,3,TOSY08,
2IFC,59,0,59,0,10.7,-1,correct answer,0.467692000093,False,True,stimulusTOSY08_2IFC_2019_Jul_02_1233_869,stimulusTOSY08_2IFC_2019_Jul_02_1233_870,True,2019_Jul_02_1233,2IFC,3,TOSY08,
2IFC,60,0,60,0,8.7,-1,correct answer,0.465746400179,False,True,stimulusTOSY08_2IFC_2019_Jul_02_1233_871,stimulusTOSY08_2IFC_2019_Jul_02_1233_872,True,2019_Jul_02_1233,2IFC,3,TOSY08,
2IFC,61,0,61,0,8.7,-1,correct answer,0.367547699949,True,False,stimulusTOSY08_2IFC_2019_Jul_02_1233_873,stimulusTOSY08_2IFC_2019_Jul_02_1233_874,True,2019_Jul_02_1233,2IFC,3,TOSY08,
2IFC,62,0,62,0,12.9,-1,correct answer,0.333390400046,True,False,stimulusTOSY08_2IFC_2019_Jul_02_1233_875,stimulusTOSY08_2IFC_2019_Jul_02_1233_876,True,2019_Jul_02_1233,2IFC,3,TOSY08,
2IFC,63,0,63,0,7.7,-1,correct answer,0.434781899909,False,True,stimulusTOSY08_2IFC_2019_Jul_02_1233_877,stimulusTOSY08_2IFC_2019_Jul_02_1233_878,True,2019_Jul_02_1233,2IFC,3,TOSY08,
2IFC,64,0,64,0,7.7,-1,correct answer,0.533696600003,False,True,stimulusTOSY08_2IFC_2019_Jul_02_1233_879,stimulusTOSY08_2IFC_2019_Jul_02_1233_880,True,2019_Jul_02_1233,2IFC,3,TOSY08,
2IFC,65,0,65,0,4.9,-1,correct answer,0.400881399866,True,False,stimulusTOSY08_2IFC_2019_Jul_02_1233_881,stimulusTOSY08_2IFC_2019_Jul_02_1233_882,True,2019_Jul_02_1233,2IFC,3,TOSY08,
2IFC,66,0,66,0,8.7,-1,correct answer,0.46893480001,True,False,stimulusTOSY08_2IFC_2019_Jul_02_1233_883,stimulusTOSY08_2IFC_2019_Jul_02_1233_884,True,2019_Jul_02_1233,2IFC,3,TOSY08,
2IFC,67,0,67,0,4.9,-1,wrong answer,0.634608299937,True,False,stimulusTOSY08_2IFC_2019_Jul_02_1233_885,stimulusTOSY08_2IFC_2019_Jul_02_1233_886,True,2019_Jul_02_1233,2IFC,3,TOSY08,
2IFC,68,0,68,0,9.7,-1,wrong answer,0.400306399912,True,False,stimulusTOSY08_2IFC_2019_Jul_02_1233_887,stimulusTOSY08_2IFC_2019_Jul_02_1233_888,True,2019_Jul_02_1233,2IFC,3,TOSY08,
2IFC,69,0,69,0,7.7,-1,correct answer,0.50066010002,True,False,stimulusTOSY08_2IFC_2019_Jul_02_1233_889,stimulusTOSY08_2IFC_2019_Jul_02_1233_890,True,2019_Jul_02_1233,2IFC,3,TOSY08,
2IFC,70,0,70,0,7.7,-1,correct answer,0.431235699914,False,True,stimulusTOSY08_2IFC_2019_Jul_02_1233_891,stimulusTOSY08_2IFC_2019_Jul_02_1233_892,True,2019_Jul_02_1233,2IFC,3,TOSY08,
2IFC,71,0,71,0,10.7,-1,correct answer,0.634316199925,False,True,stimulusTOSY08_2IFC_2019_Jul_02_1233_893,stimulusTOSY08_2IFC_2019_Jul_02_1233_894,True,2019_Jul_02_1233,2IFC,3,TOSY08,
2IFC,72,0,72,0,12.9,-1,correct answer,0.534132299945,False,True,stimulusTOSY08_2IFC_2019_Jul_02_1233_895,stimulusTOSY08_2IFC_2019_Jul_02_1233_896,True,2019_Jul_02_1233,2IFC,3,TOSY08,
2IFC,73,0,73,0,11.7,-1,correct answer,0.467896200018,False,True,stimulusTOSY08_2IFC_2019_Jul_02_1233_897,stimulusTOSY08_2IFC_2019_Jul_02_1233_898,True,2019_Jul_02_1233,2IFC,3,TOSY08,
2IFC,74,0,74,0,8.7,-1,correct answer,0.300984099973,True,False,stimulusTOSY08_2IFC_2019_Jul_02_1233_899,stimulusTOSY08_2IFC_2019_Jul_02_1233_900,True,2019_Jul_02_1233,2IFC,3,TOSY08,
2IFC,0,0,0,0,9.7,-1,correct answer,0.367369200103,False,True,stimulusTOSY08_2IFC_2019_Jul_02_1233_901,stimulusTOSY08_2IFC_2019_Jul_02_1233_902,True,2019_Jul_02_1233,2IFC,3,TOSY08,
2IFC,1,0,1,0,8.7,-1,correct answer,0.333375000162,True,False,stimulusTOSY08_2IFC_2019_Jul_02_1233_903,stimulusTOSY08_2IFC_2019_Jul_02_1233_904,True,2019_Jul_02_1233,2IFC,3,TOSY08,
2IFC,2,0,2,0,11.7,-1,correct answer,0.46403719997,False,True,stimulusTOSY08_2IFC_2019_Jul_02_1233_905,stimulusTOSY08_2IFC_2019_Jul_02_1233_906,True,2019_Jul_02_1233,2IFC,3,TOSY08,
2IFC,3,0,3,0,12.9,-1,correct answer,0.467761199921,False,True,stimulusTOSY08_2IFC_2019_Jul_02_1233_907,stimulusTOSY08_2IFC_2019_Jul_02_1233_908,True,2019_Jul_02_1233,2IFC,3,TOSY08,
2IFC,4,0,4,0,7.7,-1,correct answer,0.367388900137,True,False,stimulusTOSY08_2IFC_2019_Jul_02_1233_909,stimulusTOSY08_2IFC_2019_Jul_02_1233_910,True,2019_Jul_02_1233,2IFC,3,TOSY08,
2IFC,5,0,5,0,9.7,-1,correct answer,0.532927999971,True,False,stimulusTOSY08_2IFC_2019_Jul_02_1233_911,stimulusTOSY08_2IFC_2019_Jul_02_1233_912,True,2019_Jul_02_1233,2IFC,3,TOSY08,
2IFC,6,0,6,0,9.7,-1,correct answer,0.566200400004,False,True,stimulusTOSY08_2IFC_2019_Jul_02_1233_913,stimulusTOSY08_2IFC_2019_Jul_02_1233_914,True,2019_Jul_02_1233,2IFC,3,TOSY08,
2IFC,7,0,7,0,9.7,-1,correct answer,0.601210100111,False,True,stimulusTOSY08_2IFC_2019_Jul_02_1233_915,stimulusTOSY08_2IFC_2019_Jul_02_1233_916,True,2019_Jul_02_1233,2IFC,3,TOSY08,
2IFC,8,0,8,0,11.7,-1,correct answer,0.266143899877,True,False,stimulusTOSY08_2IFC_2019_Jul_02_1233_917,stimulusTOSY08_2IFC_2019_Jul_02_1233_918,True,2019_Jul_02_1233,2IFC,3,TOSY08,
2IFC,9,0,9,0,6.5,-1,wrong answer,0.467394100036,False,True,stimulusTOSY08_2IFC_2019_Jul_02_1233_919,stimulusTOSY08_2IFC_2019_Jul_02_1233_920,True,2019_Jul_02_1233,2IFC,3,TOSY08,
2IFC,10,0,10,0,8.7,-1,correct answer,0.532452899963,True,False,stimulusTOSY08_2IFC_2019_Jul_02_1233_921,stimulusTOSY08_2IFC_2019_Jul_02_1233_922,True,2019_Jul_02_1233,2IFC,3,TOSY08,
2IFC,11,0,11,0,7.7,-1,correct answer,0.535692400066,True,False,stimulusTOSY08_2IFC_2019_Jul_02_1233_923,stimulusTOSY08_2IFC_2019_Jul_02_1233_924,True,2019_Jul_02_1233,2IFC,3,TOSY08,
2IFC,12,0,12,0,12.9,-1,correct answer,0.567862700205,True,False,stimulusTOSY08_2IFC_2019_Jul_02_1233_925,stimulusTOSY08_2IFC_2019_Jul_02_1233_926,True,2019_Jul_02_1233,2IFC,3,TOSY08,
2IFC,13,0,13,0,11.7,-1,correct answer,0.567325399956,True,False,stimulusTOSY08_2IFC_2019_Jul_02_1233_927,stimulusTOSY08_2IFC_2019_Jul_02_1233_928,True,2019_Jul_02_1233,2IFC,3,TOSY08,
2IFC,14,0,14,0,8.7,-1,correct answer,0.500701399986,True,False,stimulusTOSY08_2IFC_2019_Jul_02_1233_929,stimulusTOSY08_2IFC_2019_Jul_02_1233_930,True,2019_Jul_02_1233,2IFC,3,TOSY08,
2IFC,15,0,15,0,8.7,-1,correct answer,0.534993499983,False,True,stimulusTOSY08_2IFC_2019_Jul_02_1233_931,stimulusTOSY08_2IFC_2019_Jul_02_1233_932,True,2019_Jul_02_1233,2IFC,3,TOSY08,
2IFC,16,0,16,0,4.9,-1,correct answer,0.566688199993,True,False,stimulusTOSY08_2IFC_2019_Jul_02_1233_933,stimulusTOSY08_2IFC_2019_Jul_02_1233_934,True,2019_Jul_02_1233,2IFC,3,TOSY08,
2IFC,17,0,17,0,9.7,-1,correct answer,0.533873299835,True,False,stimulusTOSY08_2IFC_2019_Jul_02_1233_935,stimulusTOSY08_2IFC_2019_Jul_02_1233_936,True,2019_Jul_02_1233,2IFC,3,TOSY08,
2IFC,18,0,18,0,11.7,-1,correct answer,0.567042600131,True,False,stimulusTOSY08_2IFC_2019_Jul_02_1233_937,stimulusTOSY08_2IFC_2019_Jul_02_1233_938,True,2019_Jul_02_1233,2IFC,3,TOSY08,
2IFC,19,0,19,0,11.7,-1,correct answer,0.500528800068,False,True,stimulusTOSY08_2IFC_2019_Jul_02_1233_939,stimulusTOSY08_2IFC_2019_Jul_02_1233_940,True,2019_Jul_02_1233,2IFC,3,TOSY08,
2IFC,20,0,20,0,12.9,-1,correct answer,0.499569799984,False,True,stimulusTOSY08_2IFC_2019_Jul_02_1233_941,stimulusTOSY08_2IFC_2019_Jul_02_1233_942,True,2019_Jul_02_1233,2IFC,3,TOSY08,
2IFC,21,0,21,0,6.5,-1,wrong answer,0.600709499791,False,True,stimulusTOSY08_2IFC_2019_Jul_02_1233_943,stimulusTOSY08_2IFC_2019_Jul_02_1233_944,True,2019_Jul_02_1233,2IFC,3,TOSY08,
2IFC,22,0,22,0,9.7,-1,wrong answer,0.433845099993,True,False,stimulusTOSY08_2IFC_2019_Jul_02_1233_945,stimulusTOSY08_2IFC_2019_Jul_02_1233_946,True,2019_Jul_02_1233,2IFC,3,TOSY08,
2IFC,23,0,23,0,10.7,-1,correct answer,0.334376099985,False,True,stimulusTOSY08_2IFC_2019_Jul_02_1233_947,stimulusTOSY08_2IFC_2019_Jul_02_1233_948,True,2019_Jul_02_1233,2IFC,3,TOSY08,
2IFC,24,0,24,0,9.7,-1,correct answer,0.434051200049,False,True,stimulusTOSY08_2IFC_2019_Jul_02_1233_949,stimulusTOSY08_2IFC_2019_Jul_02_1233_950,True,2019_Jul_02_1233,2IFC,3,TOSY08,
2IFC,25,0,25,0,4.9,-1,correct answer,0.568872400094,True,False,stimulusTOSY08_2IFC_2019_Jul_02_1233_951,stimulusTOSY08_2IFC_2019_Jul_02_1233_952,True,2019_Jul_02_1233,2IFC,3,TOSY08,
2IFC,26,0,26,0,7.7,-1,correct answer,0.469254199881,False,True,stimulusTOSY08_2IFC_2019_Jul_02_1233_953,stimulusTOSY08_2IFC_2019_Jul_02_1233_954,True,2019_Jul_02_1233,2IFC,3,TOSY08,
2IFC,27,0,27,0,8.7,-1,correct answer,0.532350599999,True,False,stimulusTOSY08_2IFC_2019_Jul_02_1233_955,stimulusTOSY08_2IFC_2019_Jul_02_1233_956,True,2019_Jul_02_1233,2IFC,3,TOSY08,
2IFC,28,0,28,0,11.7,-1,correct answer,0.463465899928,True,False,stimulusTOSY08_2IFC_2019_Jul_02_1233_957,stimulusTOSY08_2IFC_2019_Jul_02_1233_958,True,2019_Jul_02_1233,2IFC,3,TOSY08,
2IFC,29,0,29,0,7.7,-1,correct answer,0.367370299995,False,True,stimulusTOSY08_2IFC_2019_Jul_02_1233_959,stimulusTOSY08_2IFC_2019_Jul_02_1233_960,True,2019_Jul_02_1233,2IFC,3,TOSY08,
2IFC,30,0,30,0,11.7,-1,correct answer,0.366892499849,True,False,stimulusTOSY08_2IFC_2019_Jul_02_1233_961,stimulusTOSY08_2IFC_2019_Jul_02_1233_962,True,2019_Jul_02_1233,2IFC,3,TOSY08,
2IFC,31,0,31,0,9.7,-1,correct answer,0.496656199917,True,False,stimulusTOSY08_2IFC_2019_Jul_02_1233_963,stimulusTOSY08_2IFC_2019_Jul_02_1233_964,True,2019_Jul_02_1233,2IFC,3,TOSY08,
2IFC,32,0,32,0,10.7,-1,correct answer,0.401522499975,False,True,stimulusTOSY08_2IFC_2019_Jul_02_1233_965,stimulusTOSY08_2IFC_2019_Jul_02_1233_966,True,2019_Jul_02_1233,2IFC,3,TOSY08,
2IFC,33,0,33,0,11.7,-1,correct answer,0.264972200152,True,False,stimulusTOSY08_2IFC_2019_Jul_02_1233_967,stimulusTOSY08_2IFC_2019_Jul_02_1233_968,True,2019_Jul_02_1233,2IFC,3,TOSY08,
2IFC,34,0,34,0,9.7,-1,correct answer,0.366983799962,True,False,stimulusTOSY08_2IFC_2019_Jul_02_1233_969,stimulusTOSY08_2IFC_2019_Jul_02_1233_970,True,2019_Jul_02_1233,2IFC,3,TOSY08,
2IFC,35,0,35,0,9.7,-1,correct answer,0.333414500114,True,False,stimulusTOSY08_2IFC_2019_Jul_02_1233_971,stimulusTOSY08_2IFC_2019_Jul_02_1233_972,True,2019_Jul_02_1233,2IFC,3,TOSY08,
2IFC,36,0,36,0,7.7,-1,correct answer,0.500552100129,True,False,stimulusTOSY08_2IFC_2019_Jul_02_1233_973,stimulusTOSY08_2IFC_2019_Jul_02_1233_974,True,2019_Jul_02_1233,2IFC,3,TOSY08,
2IFC,37,0,37,0,10.7,-1,correct answer,0.366169899935,True,False,stimulusTOSY08_2IFC_2019_Jul_02_1233_975,stimulusTOSY08_2IFC_2019_Jul_02_1233_976,True,2019_Jul_02_1233,2IFC,3,TOSY08,
2IFC,38,0,38,0,9.7,-1,correct answer,0.334015900036,True,False,stimulusTOSY08_2IFC_2019_Jul_02_1233_977,stimulusTOSY08_2IFC_2019_Jul_02_1233_978,True,2019_Jul_02_1233,2IFC,3,TOSY08,
2IFC,39,0,39,0,10.7,-1,correct answer,0.401002899976,False,True,stimulusTOSY08_2IFC_2019_Jul_02_1233_979,stimulusTOSY08_2IFC_2019_Jul_02_1233_980,True,2019_Jul_02_1233,2IFC,3,TOSY08,
2IFC,40,0,40,0,7.7,-1,correct answer,0.467035300098,False,True,stimulusTOSY08_2IFC_2019_Jul_02_1233_981,stimulusTOSY08_2IFC_2019_Jul_02_1233_982,True,2019_Jul_02_1233,2IFC,3,TOSY08,
2IFC,41,0,41,0,7.7,-1,correct answer,0.466844199924,True,False,stimulusTOSY08_2IFC_2019_Jul_02_1233_983,stimulusTOSY08_2IFC_2019_Jul_02_1233_984,True,2019_Jul_02_1233,2IFC,3,TOSY08,
2IFC,42,0,42,0,7.7,-1,correct answer,0.331217899919,False,True,stimulusTOSY08_2IFC_2019_Jul_02_1233_985,stimulusTOSY08_2IFC_2019_Jul_02_1233_986,True,2019_Jul_02_1233,2IFC,3,TOSY08,
2IFC,43,0,43,0,7.7,-1,wrong answer,0.467025900027,False,True,stimulusTOSY08_2IFC_2019_Jul_02_1233_987,stimulusTOSY08_2IFC_2019_Jul_02_1233_988,True,2019_Jul_02_1233,2IFC,3,TOSY08,
2IFC,44,0,44,0,9.7,-1,correct answer,0.367091299966,False,True,stimulusTOSY08_2IFC_2019_Jul_02_1233_989,stimulusTOSY08_2IFC_2019_Jul_02_1233_990,True,2019_Jul_02_1233,2IFC,3,TOSY08,
2IFC,45,0,45,0,8.7,-1,correct answer,0.398864899995,True,False,stimulusTOSY08_2IFC_2019_Jul_02_1233_991,stimulusTOSY08_2IFC_2019_Jul_02_1233_992,True,2019_Jul_02_1233,2IFC,3,TOSY08,
2IFC,46,0,46,0,11.7,-1,correct answer,0.434465300059,False,True,stimulusTOSY08_2IFC_2019_Jul_02_1233_993,stimulusTOSY08_2IFC_2019_Jul_02_1233_994,True,2019_Jul_02_1233,2IFC,3,TOSY08,
2IFC,47,0,47,0,10.7,-1,correct answer,0.567347799893,True,False,stimulusTOSY08_2IFC_2019_Jul_02_1233_995,stimulusTOSY08_2IFC_2019_Jul_02_1233_996,True,2019_Jul_02_1233,2IFC,3,TOSY08,
2IFC,48,0,48,0,8.7,-1,correct answer,0.534910699818,True,False,stimulusTOSY08_2IFC_2019_Jul_02_1233_997,stimulusTOSY08_2IFC_2019_Jul_02_1233_998,True,2019_Jul_02_1233,2IFC,3,TOSY08,
2IFC,49,0,49,0,9.7,-1,correct answer,0.500998100033,False,True,stimulusTOSY08_2IFC_2019_Jul_02_1233_999,stimulusTOSY08_2IFC_2019_Jul_02_1233_1000,True,2019_Jul_02_1233,2IFC,3,TOSY08,
2IFC,50,0,50,0,12.9,-1,wrong answer,0.434081699932,False,True,stimulusTOSY08_2IFC_2019_Jul_02_1233_1001,stimulusTOSY08_2IFC_2019_Jul_02_1233_1002,True,2019_Jul_02_1233,2IFC,3,TOSY08,
2IFC,51,0,51,0,11.7,-1,correct answer,0.535345799988,True,False,stimulusTOSY08_2IFC_2019_Jul_02_1233_1003,stimulusTOSY08_2IFC_2019_Jul_02_1233_1004,True,2019_Jul_02_1233,2IFC,3,TOSY08,
2IFC,52,0,52,0,10.7,-1,correct answer,0.566455899971,False,True,stimulusTOSY08_2IFC_2019_Jul_02_1233_1005,stimulusTOSY08_2IFC_2019_Jul_02_1233_1006,True,2019_Jul_02_1233,2IFC,3,TOSY08,
2IFC,53,0,53,0,7.7,-1,correct answer,0.534314200049,False,True,stimulusTOSY08_2IFC_2019_Jul_02_1233_1007,stimulusTOSY08_2IFC_2019_Jul_02_1233_1008,True,2019_Jul_02_1233,2IFC,3,TOSY08,
2IFC,54,0,54,0,8.7,-1,correct answer,0.601893600076,False,True,stimulusTOSY08_2IFC_2019_Jul_02_1233_1009,stimulusTOSY08_2IFC_2019_Jul_02_1233_1010,True,2019_Jul_02_1233,2IFC,3,TOSY08,
2IFC,55,0,55,0,4.9,-1,correct answer,0.536657699849,False,True,stimulusTOSY08_2IFC_2019_Jul_02_1233_1011,stimulusTOSY08_2IFC_2019_Jul_02_1233_1012,True,2019_Jul_02_1233,2IFC,3,TOSY08,
2IFC,56,0,56,0,9.7,-1,correct answer,0.500675899908,False,True,stimulusTOSY08_2IFC_2019_Jul_02_1233_1013,stimulusTOSY08_2IFC_2019_Jul_02_1233_1014,True,2019_Jul_02_1233,2IFC,3,TOSY08,
2IFC,57,0,57,0,7.7,-1,correct answer,0.600005200133,True,False,stimulusTOSY08_2IFC_2019_Jul_02_1233_1015,stimulusTOSY08_2IFC_2019_Jul_02_1233_1016,True,2019_Jul_02_1233,2IFC,3,TOSY08,
2IFC,58,0,58,0,11.7,-1,correct answer,0.400911799865,False,True,stimulusTOSY08_2IFC_2019_Jul_02_1233_1017,stimulusTOSY08_2IFC_2019_Jul_02_1233_1018,True,2019_Jul_02_1233,2IFC,3,TOSY08,
2IFC,59,0,59,0,4.9,-1,correct answer,0.434445100138,True,False,stimulusTOSY08_2IFC_2019_Jul_02_1233_1019,stimulusTOSY08_2IFC_2019_Jul_02_1233_1020,True,2019_Jul_02_1233,2IFC,3,TOSY08,
2IFC,60,0,60,0,11.7,-1,correct answer,0.333975499962,True,False,stimulusTOSY08_2IFC_2019_Jul_02_1233_1021,stimulusTOSY08_2IFC_2019_Jul_02_1233_1022,True,2019_Jul_02_1233,2IFC,3,TOSY08,
2IFC,61,0,61,0,11.7,-1,correct answer,0.467262299964,False,True,stimulusTOSY08_2IFC_2019_Jul_02_1233_1023,stimulusTOSY08_2IFC_2019_Jul_02_1233_1024,True,2019_Jul_02_1233,2IFC,3,TOSY08,
2IFC,62,0,62,0,9.7,-1,correct answer,0.333630500128,True,False,stimulusTOSY08_2IFC_2019_Jul_02_1233_1025,stimulusTOSY08_2IFC_2019_Jul_02_1233_1026,True,2019_Jul_02_1233,2IFC,3,TOSY08,
2IFC,63,0,63,0,4.9,-1,correct answer,0.467846400104,False,True,stimulusTOSY08_2IFC_2019_Jul_02_1233_1027,stimulusTOSY08_2IFC_2019_Jul_02_1233_1028,True,2019_Jul_02_1233,2IFC,3,TOSY08,
2IFC,64,0,64,0,6.5,-1,correct answer,0.566051200032,True,False,stimulusTOSY08_2IFC_2019_Jul_02_1233_1029,stimulusTOSY08_2IFC_2019_Jul_02_1233_1030,True,2019_Jul_02_1233,2IFC,3,TOSY08,
2IFC,65,0,65,0,7.7,-1,correct answer,0.534044499975,False,True,stimulusTOSY08_2IFC_2019_Jul_02_1233_1031,stimulusTOSY08_2IFC_2019_Jul_02_1233_1032,True,2019_Jul_02_1233,2IFC,3,TOSY08,
2IFC,66,0,66,0,9.7,-1,correct answer,0.601354300044,False,True,stimulusTOSY08_2IFC_2019_Jul_02_1233_1033,stimulusTOSY08_2IFC_2019_Jul_02_1233_1034,True,2019_Jul_02_1233,2IFC,3,TOSY08,
2IFC,67,0,67,0,8.7,-1,wrong answer,0.667894299841,False,True,stimulusTOSY08_2IFC_2019_Jul_02_1233_1035,stimulusTOSY08_2IFC_2019_Jul_02_1233_1036,True,2019_Jul_02_1233,2IFC,3,TOSY08,
2IFC,68,0,68,0,8.7,-1,correct answer,0.466494599823,False,True,stimulusTOSY08_2IFC_2019_Jul_02_1233_1037,stimulusTOSY08_2IFC_2019_Jul_02_1233_1038,True,2019_Jul_02_1233,2IFC,3,TOSY08,
2IFC,69,0,69,0,9.7,-1,correct answer,0.634596399963,False,True,stimulusTOSY08_2IFC_2019_Jul_02_1233_1039,stimulusTOSY08_2IFC_2019_Jul_02_1233_1040,True,2019_Jul_02_1233,2IFC,3,TOSY08,
2IFC,70,0,70,0,11.7,-1,correct answer,0.601622399874,False,True,stimulusTOSY08_2IFC_2019_Jul_02_1233_1041,stimulusTOSY08_2IFC_2019_Jul_02_1233_1042,True,2019_Jul_02_1233,2IFC,3,TOSY08,
2IFC,71,0,71,0,8.7,-1,correct answer,0.43398099998,True,False,stimulusTOSY08_2IFC_2019_Jul_02_1233_1043,stimulusTOSY08_2IFC_2019_Jul_02_1233_1044,True,2019_Jul_02_1233,2IFC,3,TOSY08,
2IFC,72,0,72,0,9.7,-1,correct answer,0.534478799906,True,False,stimulusTOSY08_2IFC_2019_Jul_02_1233_1045,stimulusTOSY08_2IFC_2019_Jul_02_1233_1046,True,2019_Jul_02_1233,2IFC,3,TOSY08,
2IFC,73,0,73,0,8.7,-1,correct answer,0.53355589998,True,False,stimulusTOSY08_2IFC_2019_Jul_02_1233_1047,stimulusTOSY08_2IFC_2019_Jul_02_1233_1048,True,2019_Jul_02_1233,2IFC,3,TOSY08,
2IFC,74,0,74,0,9.7,-1,correct answer,0.367529199924,False,True,stimulusTOSY08_2IFC_2019_Jul_02_1233_1049,stimulusTOSY08_2IFC_2019_Jul_02_1233_1050,True,2019_Jul_02_1233,2IFC,3,TOSY08,
2IFC,0,0,0,0,10.7,-1,correct answer,0.500166299986,False,True,stimulusTOSY08_2IFC_2019_Jul_02_1233_1051,stimulusTOSY08_2IFC_2019_Jul_02_1233_1052,True,2019_Jul_02_1233,2IFC,3,TOSY08,
2IFC,1,0,1,0,11.7,-1,correct answer,0.333573100157,True,False,stimulusTOSY08_2IFC_2019_Jul_02_1233_1053,stimulusTOSY08_2IFC_2019_Jul_02_1233_1054,True,2019_Jul_02_1233,2IFC,3,TOSY08,
2IFC,2,0,2,0,7.7,-1,correct answer,0.500237399945,True,False,stimulusTOSY08_2IFC_2019_Jul_02_1233_1055,stimulusTOSY08_2IFC_2019_Jul_02_1233_1056,True,2019_Jul_02_1233,2IFC,3,TOSY08,
2IFC,3,0,3,0,8.7,-1,correct answer,0.502260799985,False,True,stimulusTOSY08_2IFC_2019_Jul_02_1233_1057,stimulusTOSY08_2IFC_2019_Jul_02_1233_1058,True,2019_Jul_02_1233,2IFC,3,TOSY08,
2IFC,4,0,4,0,12.9,-1,correct answer,0.600787300151,False,True,stimulusTOSY08_2IFC_2019_Jul_02_1233_1059,stimulusTOSY08_2IFC_2019_Jul_02_1233_1060,True,2019_Jul_02_1233,2IFC,3,TOSY08,
2IFC,5,0,5,0,12.9,-1,correct answer,0.534340800019,False,True,stimulusTOSY08_2IFC_2019_Jul_02_1233_1061,stimulusTOSY08_2IFC_2019_Jul_02_1233_1062,True,2019_Jul_02_1233,2IFC,3,TOSY08,
2IFC,6,0,6,0,12.9,-1,correct answer,0.366694499971,True,False,stimulusTOSY08_2IFC_2019_Jul_02_1233_1063,stimulusTOSY08_2IFC_2019_Jul_02_1233_1064,True,2019_Jul_02_1233,2IFC,3,TOSY08,
2IFC,7,0,7,0,9.7,-1,correct answer,0.367776399944,True,False,stimulusTOSY08_2IFC_2019_Jul_02_1233_1065,stimulusTOSY08_2IFC_2019_Jul_02_1233_1066,True,2019_Jul_02_1233,2IFC,3,TOSY08,
2IFC,8,0,8,0,7.7,-1,correct answer,0.367276600096,True,False,stimulusTOSY08_2IFC_2019_Jul_02_1233_1067,stimulusTOSY08_2IFC_2019_Jul_02_1233_1068,True,2019_Jul_02_1233,2IFC,3,TOSY08,
2IFC,9,0,9,0,10.7,-1,correct answer,0.536010500044,False,True,stimulusTOSY08_2IFC_2019_Jul_02_1233_1069,stimulusTOSY08_2IFC_2019_Jul_02_1233_1070,True,2019_Jul_02_1233,2IFC,3,TOSY08,
2IFC,10,0,10,0,9.7,-1,correct answer,0.633123400155,False,True,stimulusTOSY08_2IFC_2019_Jul_02_1233_1071,stimulusTOSY08_2IFC_2019_Jul_02_1233_1072,True,2019_Jul_02_1233,2IFC,3,TOSY08,
2IFC,11,0,11,0,11.7,-1,correct answer,0.368066100171,False,True,stimulusTOSY08_2IFC_2019_Jul_02_1233_1073,stimulusTOSY08_2IFC_2019_Jul_02_1233_1074,True,2019_Jul_02_1233,2IFC,3,TOSY08,
2IFC,12,0,12,0,12.9,-1,correct answer,0.56627229997,False,True,stimulusTOSY08_2IFC_2019_Jul_02_1233_1075,stimulusTOSY08_2IFC_2019_Jul_02_1233_1076,True,2019_Jul_02_1233,2IFC,3,TOSY08,
2IFC,13,0,13,0,12.9,-1,correct answer,0.634055000031,False,True,stimulusTOSY08_2IFC_2019_Jul_02_1233_1077,stimulusTOSY08_2IFC_2019_Jul_02_1233_1078,True,2019_Jul_02_1233,2IFC,3,TOSY08,
2IFC,14,0,14,0,8.7,-1,correct answer,0.633942899993,False,True,stimulusTOSY08_2IFC_2019_Jul_02_1233_1079,stimulusTOSY08_2IFC_2019_Jul_02_1233_1080,True,2019_Jul_02_1233,2IFC,3,TOSY08,
2IFC,15,0,15,0,4.9,-1,correct answer,0.535098000197,True,False,stimulusTOSY08_2IFC_2019_Jul_02_1233_1081,stimulusTOSY08_2IFC_2019_Jul_02_1233_1082,True,2019_Jul_02_1233,2IFC,3,TOSY08,
2IFC,16,0,16,0,6.5,-1,correct answer,0.600375700044,True,False,stimulusTOSY08_2IFC_2019_Jul_02_1233_1083,stimulusTOSY08_2IFC_2019_Jul_02_1233_1084,True,2019_Jul_02_1233,2IFC,3,TOSY08,
2IFC,17,0,17,0,6.5,-1,correct answer,0.33392470004,True,False,stimulusTOSY08_2IFC_2019_Jul_02_1233_1085,stimulusTOSY08_2IFC_2019_Jul_02_1233_1086,True,2019_Jul_02_1233,2IFC,3,TOSY08,
2IFC,18,0,18,0,9.7,-1,correct answer,0.467240799917,False,True,stimulusTOSY08_2IFC_2019_Jul_02_1233_1087,stimulusTOSY08_2IFC_2019_Jul_02_1233_1088,True,2019_Jul_02_1233,2IFC,3,TOSY08,
2IFC,19,0,19,0,4.9,-1,wrong answer,0.667432900053,False,True,stimulusTOSY08_2IFC_2019_Jul_02_1233_1089,stimulusTOSY08_2IFC_2019_Jul_02_1233_1090,True,2019_Jul_02_1233,2IFC,3,TOSY08,
2IFC,20,0,20,0,6.5,-1,correct answer,0.600313100033,False,True,stimulusTOSY08_2IFC_2019_Jul_02_1233_1091,stimulusTOSY08_2IFC_2019_Jul_02_1233_1092,True,2019_Jul_02_1233,2IFC,3,TOSY08,
2IFC,21,0,21,0,4.9,-1,correct answer,0.433863400016,False,True,stimulusTOSY08_2IFC_2019_Jul_02_1233_1093,stimulusTOSY08_2IFC_2019_Jul_02_1233_1094,True,2019_Jul_02_1233,2IFC,3,TOSY08,
2IFC,22,0,22,0,12.9,-1,correct answer,0.332789500011,True,False,stimulusTOSY08_2IFC_2019_Jul_02_1233_1095,stimulusTOSY08_2IFC_2019_Jul_02_1233_1096,True,2019_Jul_02_1233,2IFC,3,TOSY08,
2IFC,23,0,23,0,7.7,-1,correct answer,0.433267100016,True,False,stimulusTOSY08_2IFC_2019_Jul_02_1233_1097,stimulusTOSY08_2IFC_2019_Jul_02_1233_1098,True,2019_Jul_02_1233,2IFC,3,TOSY08,
