Task,trials.thisRepN,trials.thisTrialN,trials.thisN,trials.thisIndex,signal_intensity,constant Value,response,time_response,signal_on_stimuluspos1,signal_on_stimuluspos2,stimulus_name_pos1,stimulus_name_pos2,random_intensity,date,expName,session,participant,
Yes-No Task,0,0,0,0,9,-1,Correct Rejection,0.466949400026,False,-1,stimulus_TOSY08_Yes-No Task_2019_Jun_18_1208_1,-1,False,2019_Jun_18_1208,Yes-No Task,1,TOSY08,
Yes-No Task,1,0,1,0,9,-1,Miss,0.367157600005,True,-1,stimulus_TOSY08_Yes-No Task_2019_Jun_18_1208_2,-1,False,2019_Jun_18_1208,Yes-No Task,1,TOSY08,
Yes-No Task,2,0,2,0,9,-1,False Alarm,0.400533000007,False,-1,stimulus_TOSY08_Yes-No Task_2019_Jun_18_1208_3,-1,False,2019_Jun_18_1208,Yes-No Task,1,TOSY08,
Yes-No Task,3,0,3,0,9,-1,Correct Rejection,0.467346600024,False,-1,stimulus_TOSY08_Yes-No Task_2019_Jun_18_1208_4,-1,False,2019_Jun_18_1208,Yes-No Task,1,TOSY08,
Yes-No Task,4,0,4,0,9,-1,Miss,0.534290800046,True,-1,stimulus_TOSY08_Yes-No Task_2019_Jun_18_1208_5,-1,False,2019_Jun_18_1208,Yes-No Task,1,TOSY08,
Yes-No Task,5,0,5,0,9,-1,Hit,0.600976600021,True,-1,stimulus_TOSY08_Yes-No Task_2019_Jun_18_1208_6,-1,False,2019_Jun_18_1208,Yes-No Task,1,TOSY08,
Yes-No Task,6,0,6,0,9,-1,Hit,0.468838600034,True,-1,stimulus_TOSY08_Yes-No Task_2019_Jun_18_1208_7,-1,False,2019_Jun_18_1208,Yes-No Task,1,TOSY08,
Yes-No Task,7,0,7,0,9,-1,Hit,0.366724399966,True,-1,stimulus_TOSY08_Yes-No Task_2019_Jun_18_1208_8,-1,False,2019_Jun_18_1208,Yes-No Task,1,TOSY08,
Yes-No Task,8,0,8,0,9,-1,Hit,0.40106449998,True,-1,stimulus_TOSY08_Yes-No Task_2019_Jun_18_1208_9,-1,False,2019_Jun_18_1208,Yes-No Task,1,TOSY08,
Yes-No Task,9,0,9,0,9,-1,False Alarm,0.468973800016,False,-1,stimulus_TOSY08_Yes-No Task_2019_Jun_18_1208_10,-1,False,2019_Jun_18_1208,Yes-No Task,1,TOSY08,
Yes-No Task,10,0,10,0,9,-1,False Alarm,0.50047269999,False,-1,stimulus_TOSY08_Yes-No Task_2019_Jun_18_1208_11,-1,False,2019_Jun_18_1208,Yes-No Task,1,TOSY08,
Yes-No Task,11,0,11,0,9,-1,Miss,0.333427199977,True,-1,stimulus_TOSY08_Yes-No Task_2019_Jun_18_1208_12,-1,False,2019_Jun_18_1208,Yes-No Task,1,TOSY08,
Yes-No Task,12,0,12,0,9,-1,Hit,0.333523500012,True,-1,stimulus_TOSY08_Yes-No Task_2019_Jun_18_1208_13,-1,False,2019_Jun_18_1208,Yes-No Task,1,TOSY08,
Yes-No Task,13,0,13,0,9,-1,Hit,0.501569400018,True,-1,stimulus_TOSY08_Yes-No Task_2019_Jun_18_1208_14,-1,False,2019_Jun_18_1208,Yes-No Task,1,TOSY08,
Yes-No Task,14,0,14,0,9,-1,Correct Rejection,0.400489099964,False,-1,stimulus_TOSY08_Yes-No Task_2019_Jun_18_1208_15,-1,False,2019_Jun_18_1208,Yes-No Task,1,TOSY08,
Yes-No Task,15,0,15,0,9,-1,Miss,0.466756700014,True,-1,stimulus_TOSY08_Yes-No Task_2019_Jun_18_1208_16,-1,False,2019_Jun_18_1208,Yes-No Task,1,TOSY08,
Yes-No Task,16,0,16,0,9,-1,Hit,0.36727290001,True,-1,stimulus_TOSY08_Yes-No Task_2019_Jun_18_1208_17,-1,False,2019_Jun_18_1208,Yes-No Task,1,TOSY08,
Yes-No Task,17,0,17,0,9,-1,False Alarm,0.467319299991,False,-1,stimulus_TOSY08_Yes-No Task_2019_Jun_18_1208_18,-1,False,2019_Jun_18_1208,Yes-No Task,1,TOSY08,
Yes-No Task,18,0,18,0,9,-1,Hit,0.600720199989,True,-1,stimulus_TOSY08_Yes-No Task_2019_Jun_18_1208_19,-1,False,2019_Jun_18_1208,Yes-No Task,1,TOSY08,
Yes-No Task,19,0,19,0,9,-1,Miss,0.504531099985,True,-1,stimulus_TOSY08_Yes-No Task_2019_Jun_18_1208_20,-1,False,2019_Jun_18_1208,Yes-No Task,1,TOSY08,
Yes-No Task,20,0,20,0,9,-1,Correct Rejection,0.699103999999,False,-1,stimulus_TOSY08_Yes-No Task_2019_Jun_18_1208_21,-1,False,2019_Jun_18_1208,Yes-No Task,1,TOSY08,
Yes-No Task,21,0,21,0,9,-1,False Alarm,0.699292200035,False,-1,stimulus_TOSY08_Yes-No Task_2019_Jun_18_1208_22,-1,False,2019_Jun_18_1208,Yes-No Task,1,TOSY08,
Yes-No Task,22,0,22,0,9,-1,Correct Rejection,0.467376900022,False,-1,stimulus_TOSY08_Yes-No Task_2019_Jun_18_1208_23,-1,False,2019_Jun_18_1208,Yes-No Task,1,TOSY08,
Yes-No Task,23,0,23,0,9,-1,Hit,0.599940499989,True,-1,stimulus_TOSY08_Yes-No Task_2019_Jun_18_1208_24,-1,False,2019_Jun_18_1208,Yes-No Task,1,TOSY08,
Yes-No Task,24,0,24,0,9,-1,Hit,0.701404199994,True,-1,stimulus_TOSY08_Yes-No Task_2019_Jun_18_1208_25,-1,False,2019_Jun_18_1208,Yes-No Task,1,TOSY08,
Yes-No Task,25,0,25,0,9,-1,Correct Rejection,0.566823300032,False,-1,stimulus_TOSY08_Yes-No Task_2019_Jun_18_1208_26,-1,False,2019_Jun_18_1208,Yes-No Task,1,TOSY08,
Yes-No Task,26,0,26,0,9,-1,Hit,0.534085899999,True,-1,stimulus_TOSY08_Yes-No Task_2019_Jun_18_1208_27,-1,False,2019_Jun_18_1208,Yes-No Task,1,TOSY08,
Yes-No Task,27,0,27,0,9,-1,Miss,0.467171400029,True,-1,stimulus_TOSY08_Yes-No Task_2019_Jun_18_1208_28,-1,False,2019_Jun_18_1208,Yes-No Task,1,TOSY08,
Yes-No Task,28,0,28,0,9,-1,Hit,0.603652699967,True,-1,stimulus_TOSY08_Yes-No Task_2019_Jun_18_1208_29,-1,False,2019_Jun_18_1208,Yes-No Task,1,TOSY08,
Yes-No Task,29,0,29,0,9,-1,Hit,0.467429800017,True,-1,stimulus_TOSY08_Yes-No Task_2019_Jun_18_1208_30,-1,False,2019_Jun_18_1208,Yes-No Task,1,TOSY08,
Yes-No Task,0,0,0,0,6,-1,False Alarm,0.5672701,False,-1,stimulus_TOSY08_Yes-No Task_2019_Jun_18_1208_31,-1,False,2019_Jun_18_1208,Yes-No Task,1,TOSY08,
Yes-No Task,1,0,1,0,6,-1,Correct Rejection,0.399801099964,False,-1,stimulus_TOSY08_Yes-No Task_2019_Jun_18_1208_32,-1,False,2019_Jun_18_1208,Yes-No Task,1,TOSY08,
Yes-No Task,2,0,2,0,6,-1,Correct Rejection,0.567046899989,False,-1,stimulus_TOSY08_Yes-No Task_2019_Jun_18_1208_33,-1,False,2019_Jun_18_1208,Yes-No Task,1,TOSY08,
Yes-No Task,3,0,3,0,6,-1,Correct Rejection,0.734487400041,False,-1,stimulus_TOSY08_Yes-No Task_2019_Jun_18_1208_34,-1,False,2019_Jun_18_1208,Yes-No Task,1,TOSY08,
Yes-No Task,4,0,4,0,6,-1,False Alarm,0.634222400025,False,-1,stimulus_TOSY08_Yes-No Task_2019_Jun_18_1208_35,-1,False,2019_Jun_18_1208,Yes-No Task,1,TOSY08,
Yes-No Task,5,0,5,0,6,-1,Correct Rejection,0.634230100026,False,-1,stimulus_TOSY08_Yes-No Task_2019_Jun_18_1208_36,-1,False,2019_Jun_18_1208,Yes-No Task,1,TOSY08,
Yes-No Task,6,0,6,0,6,-1,Hit,0.634104600002,True,-1,stimulus_TOSY08_Yes-No Task_2019_Jun_18_1208_37,-1,False,2019_Jun_18_1208,Yes-No Task,1,TOSY08,
Yes-No Task,7,0,7,0,6,-1,Hit,0.667468899977,True,-1,stimulus_TOSY08_Yes-No Task_2019_Jun_18_1208_38,-1,False,2019_Jun_18_1208,Yes-No Task,1,TOSY08,
Yes-No Task,8,0,8,0,6,-1,Hit,0.6679152,True,-1,stimulus_TOSY08_Yes-No Task_2019_Jun_18_1208_39,-1,False,2019_Jun_18_1208,Yes-No Task,1,TOSY08,
Yes-No Task,9,0,9,0,6,-1,Hit,0.634412900021,True,-1,stimulus_TOSY08_Yes-No Task_2019_Jun_18_1208_40,-1,False,2019_Jun_18_1208,Yes-No Task,1,TOSY08,
Yes-No Task,10,0,10,0,6,-1,Correct Rejection,0.63466739998,False,-1,stimulus_TOSY08_Yes-No Task_2019_Jun_18_1208_41,-1,False,2019_Jun_18_1208,Yes-No Task,1,TOSY08,
Yes-No Task,11,0,11,0,6,-1,False Alarm,0.5005504,False,-1,stimulus_TOSY08_Yes-No Task_2019_Jun_18_1208_42,-1,False,2019_Jun_18_1208,Yes-No Task,1,TOSY08,
Yes-No Task,12,0,12,0,6,-1,False Alarm,0.734147700015,False,-1,stimulus_TOSY08_Yes-No Task_2019_Jun_18_1208_43,-1,False,2019_Jun_18_1208,Yes-No Task,1,TOSY08,
Yes-No Task,13,0,13,0,6,-1,False Alarm,0.566948299995,False,-1,stimulus_TOSY08_Yes-No Task_2019_Jun_18_1208_44,-1,False,2019_Jun_18_1208,Yes-No Task,1,TOSY08,
Yes-No Task,14,0,14,0,6,-1,Correct Rejection,0.533958400018,False,-1,stimulus_TOSY08_Yes-No Task_2019_Jun_18_1208_45,-1,False,2019_Jun_18_1208,Yes-No Task,1,TOSY08,
Yes-No Task,15,0,15,0,6,-1,Miss,0.601033599989,True,-1,stimulus_TOSY08_Yes-No Task_2019_Jun_18_1208_46,-1,False,2019_Jun_18_1208,Yes-No Task,1,TOSY08,
Yes-No Task,16,0,16,0,6,-1,False Alarm,0.500734600006,False,-1,stimulus_TOSY08_Yes-No Task_2019_Jun_18_1208_47,-1,False,2019_Jun_18_1208,Yes-No Task,1,TOSY08,
Yes-No Task,17,0,17,0,6,-1,Correct Rejection,0.599598400004,False,-1,stimulus_TOSY08_Yes-No Task_2019_Jun_18_1208_48,-1,False,2019_Jun_18_1208,Yes-No Task,1,TOSY08,
Yes-No Task,18,0,18,0,6,-1,Hit,0.567293800006,True,-1,stimulus_TOSY08_Yes-No Task_2019_Jun_18_1208_49,-1,False,2019_Jun_18_1208,Yes-No Task,1,TOSY08,
Yes-No Task,19,0,19,0,6,-1,False Alarm,0.533136299986,False,-1,stimulus_TOSY08_Yes-No Task_2019_Jun_18_1208_50,-1,False,2019_Jun_18_1208,Yes-No Task,1,TOSY08,
Yes-No Task,20,0,20,0,6,-1,Correct Rejection,0.46680460003,False,-1,stimulus_TOSY08_Yes-No Task_2019_Jun_18_1208_51,-1,False,2019_Jun_18_1208,Yes-No Task,1,TOSY08,
Yes-No Task,21,0,21,0,6,-1,Miss,0.600401399948,True,-1,stimulus_TOSY08_Yes-No Task_2019_Jun_18_1208_52,-1,False,2019_Jun_18_1208,Yes-No Task,1,TOSY08,
Yes-No Task,22,0,22,0,6,-1,False Alarm,0.50123179995,False,-1,stimulus_TOSY08_Yes-No Task_2019_Jun_18_1208_53,-1,False,2019_Jun_18_1208,Yes-No Task,1,TOSY08,
Yes-No Task,23,0,23,0,6,-1,Miss,0.467285800027,True,-1,stimulus_TOSY08_Yes-No Task_2019_Jun_18_1208_54,-1,False,2019_Jun_18_1208,Yes-No Task,1,TOSY08,
Yes-No Task,24,0,24,0,6,-1,Correct Rejection,0.733049300034,False,-1,stimulus_TOSY08_Yes-No Task_2019_Jun_18_1208_55,-1,False,2019_Jun_18_1208,Yes-No Task,1,TOSY08,
Yes-No Task,25,0,25,0,6,-1,False Alarm,0.567370000004,False,-1,stimulus_TOSY08_Yes-No Task_2019_Jun_18_1208_56,-1,False,2019_Jun_18_1208,Yes-No Task,1,TOSY08,
Yes-No Task,26,0,26,0,6,-1,Correct Rejection,0.600745800009,False,-1,stimulus_TOSY08_Yes-No Task_2019_Jun_18_1208_57,-1,False,2019_Jun_18_1208,Yes-No Task,1,TOSY08,
Yes-No Task,27,0,27,0,6,-1,Correct Rejection,0.767289399984,False,-1,stimulus_TOSY08_Yes-No Task_2019_Jun_18_1208_58,-1,False,2019_Jun_18_1208,Yes-No Task,1,TOSY08,
Yes-No Task,28,0,28,0,6,-1,Hit,0.667384199973,True,-1,stimulus_TOSY08_Yes-No Task_2019_Jun_18_1208_59,-1,False,2019_Jun_18_1208,Yes-No Task,1,TOSY08,
Yes-No Task,29,0,29,0,6,-1,Miss,0.500382099999,True,-1,stimulus_TOSY08_Yes-No Task_2019_Jun_18_1208_60,-1,False,2019_Jun_18_1208,Yes-No Task,1,TOSY08,
Yes-No Task,0,0,0,0,12,-1,Hit,0.432588499971,True,-1,stimulus_TOSY08_Yes-No Task_2019_Jun_18_1208_61,-1,False,2019_Jun_18_1208,Yes-No Task,1,TOSY08,
Yes-No Task,1,0,1,0,12,-1,Hit,0.399954100023,True,-1,stimulus_TOSY08_Yes-No Task_2019_Jun_18_1208_62,-1,False,2019_Jun_18_1208,Yes-No Task,1,TOSY08,
Yes-No Task,2,0,2,0,12,-1,Hit,0.433557100012,True,-1,stimulus_TOSY08_Yes-No Task_2019_Jun_18_1208_63,-1,False,2019_Jun_18_1208,Yes-No Task,1,TOSY08,
Yes-No Task,3,0,3,0,12,-1,Correct Rejection,0.533607499965,False,-1,stimulus_TOSY08_Yes-No Task_2019_Jun_18_1208_64,-1,False,2019_Jun_18_1208,Yes-No Task,1,TOSY08,
Yes-No Task,4,0,4,0,12,-1,Correct Rejection,0.466058799997,False,-1,stimulus_TOSY08_Yes-No Task_2019_Jun_18_1208_65,-1,False,2019_Jun_18_1208,Yes-No Task,1,TOSY08,
Yes-No Task,5,0,5,0,12,-1,Miss,0.431607400009,True,-1,stimulus_TOSY08_Yes-No Task_2019_Jun_18_1208_66,-1,False,2019_Jun_18_1208,Yes-No Task,1,TOSY08,
Yes-No Task,6,0,6,0,12,-1,False Alarm,0.502017099992,False,-1,stimulus_TOSY08_Yes-No Task_2019_Jun_18_1208_67,-1,False,2019_Jun_18_1208,Yes-No Task,1,TOSY08,
Yes-No Task,7,0,7,0,12,-1,Correct Rejection,0.435305399995,False,-1,stimulus_TOSY08_Yes-No Task_2019_Jun_18_1208_68,-1,False,2019_Jun_18_1208,Yes-No Task,1,TOSY08,
Yes-No Task,8,0,8,0,12,-1,Hit,0.5675605,True,-1,stimulus_TOSY08_Yes-No Task_2019_Jun_18_1208_69,-1,False,2019_Jun_18_1208,Yes-No Task,1,TOSY08,
Yes-No Task,9,0,9,0,12,-1,Hit,0.566560100007,True,-1,stimulus_TOSY08_Yes-No Task_2019_Jun_18_1208_70,-1,False,2019_Jun_18_1208,Yes-No Task,1,TOSY08,
Yes-No Task,10,0,10,0,12,-1,Correct Rejection,0.53607729997,False,-1,stimulus_TOSY08_Yes-No Task_2019_Jun_18_1208_71,-1,False,2019_Jun_18_1208,Yes-No Task,1,TOSY08,
Yes-No Task,11,0,11,0,12,-1,Correct Rejection,0.635763500002,False,-1,stimulus_TOSY08_Yes-No Task_2019_Jun_18_1208_72,-1,False,2019_Jun_18_1208,Yes-No Task,1,TOSY08,
Yes-No Task,12,0,12,0,12,-1,Hit,0.499415500031,True,-1,stimulus_TOSY08_Yes-No Task_2019_Jun_18_1208_73,-1,False,2019_Jun_18_1208,Yes-No Task,1,TOSY08,
Yes-No Task,13,0,13,0,12,-1,Hit,0.467538699973,True,-1,stimulus_TOSY08_Yes-No Task_2019_Jun_18_1208_74,-1,False,2019_Jun_18_1208,Yes-No Task,1,TOSY08,
Yes-No Task,14,0,14,0,12,-1,Correct Rejection,0.434110799979,False,-1,stimulus_TOSY08_Yes-No Task_2019_Jun_18_1208_75,-1,False,2019_Jun_18_1208,Yes-No Task,1,TOSY08,
Yes-No Task,15,0,15,0,12,-1,Hit,0.566801500041,True,-1,stimulus_TOSY08_Yes-No Task_2019_Jun_18_1208_76,-1,False,2019_Jun_18_1208,Yes-No Task,1,TOSY08,
Yes-No Task,16,0,16,0,12,-1,Correct Rejection,0.501902599994,False,-1,stimulus_TOSY08_Yes-No Task_2019_Jun_18_1208_77,-1,False,2019_Jun_18_1208,Yes-No Task,1,TOSY08,
Yes-No Task,17,0,17,0,12,-1,Hit,0.435098699993,True,-1,stimulus_TOSY08_Yes-No Task_2019_Jun_18_1208_78,-1,False,2019_Jun_18_1208,Yes-No Task,1,TOSY08,
Yes-No Task,18,0,18,0,12,-1,Correct Rejection,0.333805900009,False,-1,stimulus_TOSY08_Yes-No Task_2019_Jun_18_1208_79,-1,False,2019_Jun_18_1208,Yes-No Task,1,TOSY08,
Yes-No Task,19,0,19,0,12,-1,False Alarm,0.300824399979,False,-1,stimulus_TOSY08_Yes-No Task_2019_Jun_18_1208_80,-1,False,2019_Jun_18_1208,Yes-No Task,1,TOSY08,
Yes-No Task,20,0,20,0,12,-1,Correct Rejection,0.398102800013,False,-1,stimulus_TOSY08_Yes-No Task_2019_Jun_18_1208_81,-1,False,2019_Jun_18_1208,Yes-No Task,1,TOSY08,
Yes-No Task,21,0,21,0,12,-1,Miss,0.333960000018,True,-1,stimulus_TOSY08_Yes-No Task_2019_Jun_18_1208_82,-1,False,2019_Jun_18_1208,Yes-No Task,1,TOSY08,
Yes-No Task,22,0,22,0,12,-1,Hit,0.367181100009,True,-1,stimulus_TOSY08_Yes-No Task_2019_Jun_18_1208_83,-1,False,2019_Jun_18_1208,Yes-No Task,1,TOSY08,
Yes-No Task,23,0,23,0,12,-1,Hit,0.534152799984,True,-1,stimulus_TOSY08_Yes-No Task_2019_Jun_18_1208_84,-1,False,2019_Jun_18_1208,Yes-No Task,1,TOSY08,
Yes-No Task,24,0,24,0,12,-1,Correct Rejection,0.601024999982,False,-1,stimulus_TOSY08_Yes-No Task_2019_Jun_18_1208_85,-1,False,2019_Jun_18_1208,Yes-No Task,1,TOSY08,
Yes-No Task,25,0,25,0,12,-1,False Alarm,0.534135600028,False,-1,stimulus_TOSY08_Yes-No Task_2019_Jun_18_1208_86,-1,False,2019_Jun_18_1208,Yes-No Task,1,TOSY08,
Yes-No Task,26,0,26,0,12,-1,Hit,0.601039099973,True,-1,stimulus_TOSY08_Yes-No Task_2019_Jun_18_1208_87,-1,False,2019_Jun_18_1208,Yes-No Task,1,TOSY08,
Yes-No Task,27,0,27,0,12,-1,Correct Rejection,0.467642200005,False,-1,stimulus_TOSY08_Yes-No Task_2019_Jun_18_1208_88,-1,False,2019_Jun_18_1208,Yes-No Task,1,TOSY08,
Yes-No Task,28,0,28,0,12,-1,Correct Rejection,0.434599099972,False,-1,stimulus_TOSY08_Yes-No Task_2019_Jun_18_1208_89,-1,False,2019_Jun_18_1208,Yes-No Task,1,TOSY08,
Yes-No Task,29,0,29,0,12,-1,Correct Rejection,0.399907400017,False,-1,stimulus_TOSY08_Yes-No Task_2019_Jun_18_1208_90,-1,False,2019_Jun_18_1208,Yes-No Task,1,TOSY08,
Yes-No Task,0,0,0,0,3,-1,False Alarm,0.434392299969,False,-1,stimulus_TOSY08_Yes-No Task_2019_Jun_18_1208_91,-1,False,2019_Jun_18_1208,Yes-No Task,1,TOSY08,
Yes-No Task,1,0,1,0,3,-1,Hit,0.567048099998,True,-1,stimulus_TOSY08_Yes-No Task_2019_Jun_18_1208_92,-1,False,2019_Jun_18_1208,Yes-No Task,1,TOSY08,
Yes-No Task,2,0,2,0,3,-1,Miss,0.467353399959,True,-1,stimulus_TOSY08_Yes-No Task_2019_Jun_18_1208_93,-1,False,2019_Jun_18_1208,Yes-No Task,1,TOSY08,
Yes-No Task,3,0,3,0,3,-1,Correct Rejection,0.5680039,False,-1,stimulus_TOSY08_Yes-No Task_2019_Jun_18_1208_94,-1,False,2019_Jun_18_1208,Yes-No Task,1,TOSY08,
Yes-No Task,4,0,4,0,3,-1,Correct Rejection,0.667383000022,False,-1,stimulus_TOSY08_Yes-No Task_2019_Jun_18_1208_95,-1,False,2019_Jun_18_1208,Yes-No Task,1,TOSY08,
Yes-No Task,5,0,5,0,3,-1,Hit,0.634041999991,True,-1,stimulus_TOSY08_Yes-No Task_2019_Jun_18_1208_96,-1,False,2019_Jun_18_1208,Yes-No Task,1,TOSY08,
Yes-No Task,6,0,6,0,3,-1,Miss,0.398214199988,True,-1,stimulus_TOSY08_Yes-No Task_2019_Jun_18_1208_97,-1,False,2019_Jun_18_1208,Yes-No Task,1,TOSY08,
Yes-No Task,7,0,7,0,3,-1,Hit,0.366809899977,True,-1,stimulus_TOSY08_Yes-No Task_2019_Jun_18_1208_98,-1,False,2019_Jun_18_1208,Yes-No Task,1,TOSY08,
Yes-No Task,8,0,8,0,3,-1,Miss,0.50027920003,True,-1,stimulus_TOSY08_Yes-No Task_2019_Jun_18_1208_99,-1,False,2019_Jun_18_1208,Yes-No Task,1,TOSY08,
Yes-No Task,9,0,9,0,3,-1,Hit,0.466395800002,True,-1,stimulus_TOSY08_Yes-No Task_2019_Jun_18_1208_100,-1,False,2019_Jun_18_1208,Yes-No Task,1,TOSY08,
Yes-No Task,10,0,10,0,3,-1,Correct Rejection,0.333655200026,False,-1,stimulus_TOSY08_Yes-No Task_2019_Jun_18_1208_101,-1,False,2019_Jun_18_1208,Yes-No Task,1,TOSY08,
Yes-No Task,11,0,11,0,3,-1,Correct Rejection,0.333973600005,False,-1,stimulus_TOSY08_Yes-No Task_2019_Jun_18_1208_102,-1,False,2019_Jun_18_1208,Yes-No Task,1,TOSY08,
Yes-No Task,12,0,12,0,3,-1,Correct Rejection,0.533516299969,False,-1,stimulus_TOSY08_Yes-No Task_2019_Jun_18_1208_103,-1,False,2019_Jun_18_1208,Yes-No Task,1,TOSY08,
Yes-No Task,13,0,13,0,3,-1,Miss,0.467066199984,True,-1,stimulus_TOSY08_Yes-No Task_2019_Jun_18_1208_104,-1,False,2019_Jun_18_1208,Yes-No Task,1,TOSY08,
Yes-No Task,14,0,14,0,3,-1,Hit,0.367322399979,True,-1,stimulus_TOSY08_Yes-No Task_2019_Jun_18_1208_105,-1,False,2019_Jun_18_1208,Yes-No Task,1,TOSY08,
Yes-No Task,15,0,15,0,3,-1,False Alarm,0.335418200004,False,-1,stimulus_TOSY08_Yes-No Task_2019_Jun_18_1208_106,-1,False,2019_Jun_18_1208,Yes-No Task,1,TOSY08,
Yes-No Task,16,0,16,0,3,-1,Miss,0.467127199983,True,-1,stimulus_TOSY08_Yes-No Task_2019_Jun_18_1208_107,-1,False,2019_Jun_18_1208,Yes-No Task,1,TOSY08,
Yes-No Task,17,0,17,0,3,-1,Hit,0.233058699989,True,-1,stimulus_TOSY08_Yes-No Task_2019_Jun_18_1208_108,-1,False,2019_Jun_18_1208,Yes-No Task,1,TOSY08,
Yes-No Task,18,0,18,0,3,-1,Miss,0.334732499963,True,-1,stimulus_TOSY08_Yes-No Task_2019_Jun_18_1208_109,-1,False,2019_Jun_18_1208,Yes-No Task,1,TOSY08,
Yes-No Task,19,0,19,0,3,-1,False Alarm,0.300528499996,False,-1,stimulus_TOSY08_Yes-No Task_2019_Jun_18_1208_110,-1,False,2019_Jun_18_1208,Yes-No Task,1,TOSY08,
Yes-No Task,20,0,20,0,3,-1,Miss,0.266579799994,True,-1,stimulus_TOSY08_Yes-No Task_2019_Jun_18_1208_111,-1,False,2019_Jun_18_1208,Yes-No Task,1,TOSY08,
Yes-No Task,21,0,21,0,3,-1,Miss,0.333805900009,True,-1,stimulus_TOSY08_Yes-No Task_2019_Jun_18_1208_112,-1,False,2019_Jun_18_1208,Yes-No Task,1,TOSY08,
Yes-No Task,22,0,22,0,3,-1,Hit,0.267550200049,True,-1,stimulus_TOSY08_Yes-No Task_2019_Jun_18_1208_113,-1,False,2019_Jun_18_1208,Yes-No Task,1,TOSY08,
Yes-No Task,23,0,23,0,3,-1,Hit,0.300353800005,True,-1,stimulus_TOSY08_Yes-No Task_2019_Jun_18_1208_114,-1,False,2019_Jun_18_1208,Yes-No Task,1,TOSY08,
Yes-No Task,24,0,24,0,3,-1,Hit,0.434113399999,True,-1,stimulus_TOSY08_Yes-No Task_2019_Jun_18_1208_115,-1,False,2019_Jun_18_1208,Yes-No Task,1,TOSY08,
Yes-No Task,25,0,25,0,3,-1,Correct Rejection,0.267825400049,False,-1,stimulus_TOSY08_Yes-No Task_2019_Jun_18_1208_116,-1,False,2019_Jun_18_1208,Yes-No Task,1,TOSY08,
Yes-No Task,26,0,26,0,3,-1,Miss,0.332943499961,True,-1,stimulus_TOSY08_Yes-No Task_2019_Jun_18_1208_117,-1,False,2019_Jun_18_1208,Yes-No Task,1,TOSY08,
Yes-No Task,27,0,27,0,3,-1,Hit,0.300572799984,True,-1,stimulus_TOSY08_Yes-No Task_2019_Jun_18_1208_118,-1,False,2019_Jun_18_1208,Yes-No Task,1,TOSY08,
Yes-No Task,28,0,28,0,3,-1,Hit,0.367100400035,True,-1,stimulus_TOSY08_Yes-No Task_2019_Jun_18_1208_119,-1,False,2019_Jun_18_1208,Yes-No Task,1,TOSY08,
Yes-No Task,29,0,29,0,3,-1,Hit,0.36804869998,True,-1,stimulus_TOSY08_Yes-No Task_2019_Jun_18_1208_120,-1,False,2019_Jun_18_1208,Yes-No Task,1,TOSY08,
