Task,trials.thisRepN,trials.thisTrialN,trials.thisN,trials.thisIndex,time_response_second,response_2IFCnew,response_key2Interval_2IFCnew,signal_intensity,constant Value,response,time_response,signal_on_stimuluspos1,signal_on_stimuluspos2,stimulus_name_pos1,stimulus_name_pos2,random_intensity,date,expName,session,participant,
2IFCnew,0,0,0,0,0.367118999828,6,No,9.7,-1,Miss,0.467554100091,True,False,stimulusTOSY08_2IFCnew_2019_Jul_02_1205_1,stimulusTOSY08_2IFCnew_2019_Jul_02_1205_2,True,2019_Jul_02_1205,2IFCnew,3,TOSY08,
2IFCnew,1,0,1,0,0.467211399926,2,Yes,11.7,-1,Correct Rejection,0.734543700004,False,True,stimulusTOSY08_2IFCnew_2019_Jul_02_1205_3,stimulusTOSY08_2IFCnew_2019_Jul_02_1205_4,True,2019_Jul_02_1205,2IFCnew,3,TOSY08,
2IFCnew,2,0,2,0,0.500339600025,5,Yes,9.7,-1,False Alarm,0.632869100198,False,True,stimulusTOSY08_2IFCnew_2019_Jul_02_1205_5,stimulusTOSY08_2IFCnew_2019_Jul_02_1205_6,True,2019_Jul_02_1205,2IFCnew,3,TOSY08,
2IFCnew,3,0,3,0,0.400533600012,2,Yes,9.7,-1,Correct Rejection,0.434454499977,False,True,stimulusTOSY08_2IFCnew_2019_Jul_02_1205_7,stimulusTOSY08_2IFCnew_2019_Jul_02_1205_8,True,2019_Jul_02_1205,2IFCnew,3,TOSY08,
2IFCnew,4,0,4,0,0.667444099905,5,Yes,8.7,-1,False Alarm,0.600317300064,False,True,stimulusTOSY08_2IFCnew_2019_Jul_02_1205_9,stimulusTOSY08_2IFCnew_2019_Jul_02_1205_10,True,2019_Jul_02_1205,2IFCnew,3,TOSY08,
2IFCnew,5,0,5,0,0.500707099913,2,Yes,8.7,-1,Correct Rejection,0.697016300168,False,True,stimulusTOSY08_2IFCnew_2019_Jul_02_1205_11,stimulusTOSY08_2IFCnew_2019_Jul_02_1205_12,True,2019_Jul_02_1205,2IFCnew,3,TOSY08,
2IFCnew,6,0,6,0,0.634296200005,2,Yes,8.7,-1,Correct Rejection,0.767231999896,False,True,stimulusTOSY08_2IFCnew_2019_Jul_02_1205_13,stimulusTOSY08_2IFCnew_2019_Jul_02_1205_14,True,2019_Jul_02_1205,2IFCnew,3,TOSY08,
2IFCnew,7,0,7,0,0.500426599989,1,No,11.7,-1,Hit,0.66744209989,True,False,stimulusTOSY08_2IFCnew_2019_Jul_02_1205_15,stimulusTOSY08_2IFCnew_2019_Jul_02_1205_16,True,2019_Jul_02_1205,2IFCnew,3,TOSY08,
2IFCnew,8,0,8,0,0.633926200215,3,No,7.7,-1,False Alarm,0.700464700116,False,True,stimulusTOSY08_2IFCnew_2019_Jul_02_1205_17,stimulusTOSY08_2IFCnew_2019_Jul_02_1205_18,True,2019_Jul_02_1205,2IFCnew,3,TOSY08,
2IFCnew,9,0,9,0,0.467147600139,1,No,7.7,-1,Hit,0.634171200218,True,False,stimulusTOSY08_2IFCnew_2019_Jul_02_1205_19,stimulusTOSY08_2IFCnew_2019_Jul_02_1205_20,True,2019_Jul_02_1205,2IFCnew,3,TOSY08,
2IFCnew,10,0,10,0,0.46924060001,3,No,4.9,-1,False Alarm,0.56733380002,False,True,stimulusTOSY08_2IFCnew_2019_Jul_02_1205_21,stimulusTOSY08_2IFCnew_2019_Jul_02_1205_22,True,2019_Jul_02_1205,2IFCnew,3,TOSY08,
2IFCnew,11,0,11,0,0.501095700078,5,Yes,6.5,-1,False Alarm,0.501934500178,False,True,stimulusTOSY08_2IFCnew_2019_Jul_02_1205_23,stimulusTOSY08_2IFCnew_2019_Jul_02_1205_24,True,2019_Jul_02_1205,2IFCnew,3,TOSY08,
2IFCnew,12,0,12,0,0.568245799979,8,No,8.7,-1,Correct Rejection,0.400390099967,False,True,stimulusTOSY08_2IFCnew_2019_Jul_02_1205_25,stimulusTOSY08_2IFCnew_2019_Jul_02_1205_26,True,2019_Jul_02_1205,2IFCnew,3,TOSY08,
2IFCnew,13,0,13,0,0.600890300004,5,Yes,9.7,-1,False Alarm,0.534860400017,False,True,stimulusTOSY08_2IFCnew_2019_Jul_02_1205_27,stimulusTOSY08_2IFCnew_2019_Jul_02_1205_28,True,2019_Jul_02_1205,2IFCnew,3,TOSY08,
2IFCnew,14,0,14,0,0.599545100005,5,Yes,10.7,-1,False Alarm,0.600158999907,False,True,stimulusTOSY08_2IFCnew_2019_Jul_02_1205_29,stimulusTOSY08_2IFCnew_2019_Jul_02_1205_30,True,2019_Jul_02_1205,2IFCnew,3,TOSY08,
2IFCnew,15,0,15,0,0.533451800002,5,Yes,10.7,-1,False Alarm,0.634668400045,False,True,stimulusTOSY08_2IFCnew_2019_Jul_02_1205_31,stimulusTOSY08_2IFCnew_2019_Jul_02_1205_32,True,2019_Jul_02_1205,2IFCnew,3,TOSY08,
2IFCnew,16,0,16,0,0.567598500056,1,No,7.7,-1,Hit,0.568035200005,True,False,stimulusTOSY08_2IFCnew_2019_Jul_02_1205_33,stimulusTOSY08_2IFCnew_2019_Jul_02_1205_34,True,2019_Jul_02_1205,2IFCnew,3,TOSY08,
2IFCnew,17,0,17,0,0.634203499882,7,Yes,6.5,-1,Hit,0.568115600152,True,False,stimulusTOSY08_2IFCnew_2019_Jul_02_1205_35,stimulusTOSY08_2IFCnew_2019_Jul_02_1205_36,True,2019_Jul_02_1205,2IFCnew,3,TOSY08,
2IFCnew,18,0,18,0,0.20317000011,1,No,12.9,-1,Hit,0.433962499956,True,False,stimulusTOSY08_2IFCnew_2019_Jul_02_1205_37,stimulusTOSY08_2IFCnew_2019_Jul_02_1205_38,True,2019_Jul_02_1205,2IFCnew,3,TOSY08,
2IFCnew,19,0,19,0,0.400242700009,1,No,10.7,-1,Hit,0.500934200129,True,False,stimulusTOSY08_2IFCnew_2019_Jul_02_1205_39,stimulusTOSY08_2IFCnew_2019_Jul_02_1205_40,True,2019_Jul_02_1205,2IFCnew,3,TOSY08,
2IFCnew,20,0,20,0,0.568658299977,5,Yes,6.5,-1,False Alarm,0.5670866,False,True,stimulusTOSY08_2IFCnew_2019_Jul_02_1205_41,stimulusTOSY08_2IFCnew_2019_Jul_02_1205_42,True,2019_Jul_02_1205,2IFCnew,3,TOSY08,
2IFCnew,21,0,21,0,0.667694899952,1,No,9.7,-1,Hit,0.500855599996,True,False,stimulusTOSY08_2IFCnew_2019_Jul_02_1205_43,stimulusTOSY08_2IFCnew_2019_Jul_02_1205_44,True,2019_Jul_02_1205,2IFCnew,3,TOSY08,
2IFCnew,22,0,22,0,0.469121299917,1,No,7.7,-1,Hit,0.500707800034,True,False,stimulusTOSY08_2IFCnew_2019_Jul_02_1205_45,stimulusTOSY08_2IFCnew_2019_Jul_02_1205_46,True,2019_Jul_02_1205,2IFCnew,3,TOSY08,
2IFCnew,23,0,23,0,0.600975399837,5,Yes,10.7,-1,False Alarm,0.634460299974,False,True,stimulusTOSY08_2IFCnew_2019_Jul_02_1205_47,stimulusTOSY08_2IFCnew_2019_Jul_02_1205_48,True,2019_Jul_02_1205,2IFCnew,3,TOSY08,
2IFCnew,24,0,24,0,0.367528399918,2,Yes,4.9,-1,Correct Rejection,0.73443010007,False,True,stimulusTOSY08_2IFCnew_2019_Jul_02_1205_49,stimulusTOSY08_2IFCnew_2019_Jul_02_1205_50,True,2019_Jul_02_1205,2IFCnew,3,TOSY08,
2IFCnew,25,0,25,0,0.467760199914,1,No,8.7,-1,Hit,0.500444200123,True,False,stimulusTOSY08_2IFCnew_2019_Jul_02_1205_51,stimulusTOSY08_2IFCnew_2019_Jul_02_1205_52,True,2019_Jul_02_1205,2IFCnew,3,TOSY08,
2IFCnew,26,0,26,0,0.500954899937,1,No,12.9,-1,Hit,0.56696299999,True,False,stimulusTOSY08_2IFCnew_2019_Jul_02_1205_53,stimulusTOSY08_2IFCnew_2019_Jul_02_1205_54,True,2019_Jul_02_1205,2IFCnew,3,TOSY08,
2IFCnew,27,0,27,0,0.634102500044,5,Yes,4.9,-1,False Alarm,0.467066500103,False,True,stimulusTOSY08_2IFCnew_2019_Jul_02_1205_55,stimulusTOSY08_2IFCnew_2019_Jul_02_1205_56,True,2019_Jul_02_1205,2IFCnew,3,TOSY08,
2IFCnew,28,0,28,0,0.267231100006,1,No,8.7,-1,Hit,0.534239500063,True,False,stimulusTOSY08_2IFCnew_2019_Jul_02_1205_57,stimulusTOSY08_2IFCnew_2019_Jul_02_1205_58,True,2019_Jul_02_1205,2IFCnew,3,TOSY08,
2IFCnew,29,0,29,0,0.46718659997,5,Yes,12.9,-1,False Alarm,0.568355199881,False,True,stimulusTOSY08_2IFCnew_2019_Jul_02_1205_59,stimulusTOSY08_2IFCnew_2019_Jul_02_1205_60,True,2019_Jul_02_1205,2IFCnew,3,TOSY08,
2IFCnew,30,0,30,0,0.365781199886,2,Yes,11.7,-1,Correct Rejection,0.49707120005,False,True,stimulusTOSY08_2IFCnew_2019_Jul_02_1205_61,stimulusTOSY08_2IFCnew_2019_Jul_02_1205_62,True,2019_Jul_02_1205,2IFCnew,3,TOSY08,
2IFCnew,31,0,31,0,0.635195099982,5,Yes,7.7,-1,False Alarm,0.56870319997,False,True,stimulusTOSY08_2IFCnew_2019_Jul_02_1205_63,stimulusTOSY08_2IFCnew_2019_Jul_02_1205_64,True,2019_Jul_02_1205,2IFCnew,3,TOSY08,
2IFCnew,32,0,32,0,0.467406100128,5,Yes,7.7,-1,False Alarm,0.500607799971,False,True,stimulusTOSY08_2IFCnew_2019_Jul_02_1205_65,stimulusTOSY08_2IFCnew_2019_Jul_02_1205_66,True,2019_Jul_02_1205,2IFCnew,3,TOSY08,
2IFCnew,33,0,33,0,0.600407199934,6,No,11.7,-1,Miss,0.60140829999,True,False,stimulusTOSY08_2IFCnew_2019_Jul_02_1205_67,stimulusTOSY08_2IFCnew_2019_Jul_02_1205_68,True,2019_Jul_02_1205,2IFCnew,3,TOSY08,
2IFCnew,34,0,34,0,0.634783500107,7,Yes,9.7,-1,Hit,0.566821299959,True,False,stimulusTOSY08_2IFCnew_2019_Jul_02_1205_69,stimulusTOSY08_2IFCnew_2019_Jul_02_1205_70,True,2019_Jul_02_1205,2IFCnew,3,TOSY08,
2IFCnew,35,0,35,0,0.331090899883,1,No,10.7,-1,Hit,0.46872080001,True,False,stimulusTOSY08_2IFCnew_2019_Jul_02_1205_71,stimulusTOSY08_2IFCnew_2019_Jul_02_1205_72,True,2019_Jul_02_1205,2IFCnew,3,TOSY08,
2IFCnew,36,0,36,0,0.399212599965,2,Yes,9.7,-1,Correct Rejection,0.500267300056,False,True,stimulusTOSY08_2IFCnew_2019_Jul_02_1205_73,stimulusTOSY08_2IFCnew_2019_Jul_02_1205_74,True,2019_Jul_02_1205,2IFCnew,3,TOSY08,
2IFCnew,37,0,37,0,0.402560199844,5,Yes,10.7,-1,False Alarm,0.634980799863,False,True,stimulusTOSY08_2IFCnew_2019_Jul_02_1205_75,stimulusTOSY08_2IFCnew_2019_Jul_02_1205_76,True,2019_Jul_02_1205,2IFCnew,3,TOSY08,
2IFCnew,38,0,38,0,0.201510199811,1,No,9.7,-1,Hit,0.468060600106,True,False,stimulusTOSY08_2IFCnew_2019_Jul_02_1205_77,stimulusTOSY08_2IFCnew_2019_Jul_02_1205_78,True,2019_Jul_02_1205,2IFCnew,3,TOSY08,
2IFCnew,39,0,39,0,0.600569699891,5,Yes,9.7,-1,False Alarm,0.572642799933,False,True,stimulusTOSY08_2IFCnew_2019_Jul_02_1205_79,stimulusTOSY08_2IFCnew_2019_Jul_02_1205_80,True,2019_Jul_02_1205,2IFCnew,3,TOSY08,
2IFCnew,40,0,40,0,0.634639899945,5,Yes,11.7,-1,False Alarm,0.533476999961,False,True,stimulusTOSY08_2IFCnew_2019_Jul_02_1205_81,stimulusTOSY08_2IFCnew_2019_Jul_02_1205_82,True,2019_Jul_02_1205,2IFCnew,3,TOSY08,
2IFCnew,41,0,41,0,0.567595900036,4,Yes,4.9,-1,Miss,0.468693299918,True,False,stimulusTOSY08_2IFCnew_2019_Jul_02_1205_83,stimulusTOSY08_2IFCnew_2019_Jul_02_1205_84,True,2019_Jul_02_1205,2IFCnew,3,TOSY08,
2IFCnew,42,0,42,0,0.399469899945,1,No,10.7,-1,Hit,0.601387599949,True,False,stimulusTOSY08_2IFCnew_2019_Jul_02_1205_85,stimulusTOSY08_2IFCnew_2019_Jul_02_1205_86,True,2019_Jul_02_1205,2IFCnew,3,TOSY08,
2IFCnew,43,0,43,0,0.533962500049,5,Yes,9.7,-1,False Alarm,0.600756300148,False,True,stimulusTOSY08_2IFCnew_2019_Jul_02_1205_87,stimulusTOSY08_2IFCnew_2019_Jul_02_1205_88,True,2019_Jul_02_1205,2IFCnew,3,TOSY08,
2IFCnew,44,0,44,0,0.50047999993,6,No,4.9,-1,Miss,0.600352399983,True,False,stimulusTOSY08_2IFCnew_2019_Jul_02_1205_89,stimulusTOSY08_2IFCnew_2019_Jul_02_1205_90,True,2019_Jul_02_1205,2IFCnew,3,TOSY08,
2IFCnew,45,0,45,0,0.533727100119,1,No,4.9,-1,Hit,0.601992700016,True,False,stimulusTOSY08_2IFCnew_2019_Jul_02_1205_91,stimulusTOSY08_2IFCnew_2019_Jul_02_1205_92,True,2019_Jul_02_1205,2IFCnew,3,TOSY08,
2IFCnew,46,0,46,0,0.366549200146,2,Yes,10.7,-1,Correct Rejection,0.567530800123,False,True,stimulusTOSY08_2IFCnew_2019_Jul_02_1205_93,stimulusTOSY08_2IFCnew_2019_Jul_02_1205_94,True,2019_Jul_02_1205,2IFCnew,3,TOSY08,
2IFCnew,47,0,47,0,0.566988999955,3,No,4.9,-1,False Alarm,0.700904600089,False,True,stimulusTOSY08_2IFCnew_2019_Jul_02_1205_95,stimulusTOSY08_2IFCnew_2019_Jul_02_1205_96,True,2019_Jul_02_1205,2IFCnew,3,TOSY08,
2IFCnew,48,0,48,0,0.36704029981,2,Yes,10.7,-1,Correct Rejection,0.734121300047,False,True,stimulusTOSY08_2IFCnew_2019_Jul_02_1205_97,stimulusTOSY08_2IFCnew_2019_Jul_02_1205_98,True,2019_Jul_02_1205,2IFCnew,3,TOSY08,
2IFCnew,49,0,49,0,0.366908699973,2,Yes,11.7,-1,Correct Rejection,0.598306,False,True,stimulusTOSY08_2IFCnew_2019_Jul_02_1205_99,stimulusTOSY08_2IFCnew_2019_Jul_02_1205_100,True,2019_Jul_02_1205,2IFCnew,3,TOSY08,
2IFCnew,50,0,50,0,0.402818500064,2,Yes,10.7,-1,Correct Rejection,0.500746399863,False,True,stimulusTOSY08_2IFCnew_2019_Jul_02_1205_101,stimulusTOSY08_2IFCnew_2019_Jul_02_1205_102,True,2019_Jul_02_1205,2IFCnew,3,TOSY08,
2IFCnew,51,0,51,0,0.63234329992,2,Yes,4.9,-1,Correct Rejection,0.467437500134,False,True,stimulusTOSY08_2IFCnew_2019_Jul_02_1205_103,stimulusTOSY08_2IFCnew_2019_Jul_02_1205_104,True,2019_Jul_02_1205,2IFCnew,3,TOSY08,
2IFCnew,52,0,52,0,0.333139599999,3,No,7.7,-1,False Alarm,0.534033400007,False,True,stimulusTOSY08_2IFCnew_2019_Jul_02_1205_105,stimulusTOSY08_2IFCnew_2019_Jul_02_1205_106,True,2019_Jul_02_1205,2IFCnew,3,TOSY08,
2IFCnew,53,0,53,0,0.300363499904,2,Yes,6.5,-1,Correct Rejection,0.500614399789,False,True,stimulusTOSY08_2IFCnew_2019_Jul_02_1205_107,stimulusTOSY08_2IFCnew_2019_Jul_02_1205_108,True,2019_Jul_02_1205,2IFCnew,3,TOSY08,
2IFCnew,54,0,54,0,0.200433399994,1,No,8.7,-1,Hit,0.568068000022,True,False,stimulusTOSY08_2IFCnew_2019_Jul_02_1205_109,stimulusTOSY08_2IFCnew_2019_Jul_02_1205_110,True,2019_Jul_02_1205,2IFCnew,3,TOSY08,
2IFCnew,55,0,55,0,0.267080500023,3,No,7.7,-1,False Alarm,0.468492900021,False,True,stimulusTOSY08_2IFCnew_2019_Jul_02_1205_111,stimulusTOSY08_2IFCnew_2019_Jul_02_1205_112,True,2019_Jul_02_1205,2IFCnew,3,TOSY08,
2IFCnew,56,0,56,0,0.266828200081,1,No,4.9,-1,Hit,0.46649520006,True,False,stimulusTOSY08_2IFCnew_2019_Jul_02_1205_113,stimulusTOSY08_2IFCnew_2019_Jul_02_1205_114,True,2019_Jul_02_1205,2IFCnew,3,TOSY08,
2IFCnew,57,0,57,0,0.300417599967,2,Yes,12.9,-1,Correct Rejection,0.667509200051,False,True,stimulusTOSY08_2IFCnew_2019_Jul_02_1205_115,stimulusTOSY08_2IFCnew_2019_Jul_02_1205_116,True,2019_Jul_02_1205,2IFCnew,3,TOSY08,
2IFCnew,58,0,58,0,0.367351500085,4,Yes,7.7,-1,Miss,0.767461099895,True,False,stimulusTOSY08_2IFCnew_2019_Jul_02_1205_117,stimulusTOSY08_2IFCnew_2019_Jul_02_1205_118,True,2019_Jul_02_1205,2IFCnew,3,TOSY08,
2IFCnew,59,0,59,0,0.167738299817,1,No,11.7,-1,Hit,0.467671599938,True,False,stimulusTOSY08_2IFCnew_2019_Jul_02_1205_119,stimulusTOSY08_2IFCnew_2019_Jul_02_1205_120,True,2019_Jul_02_1205,2IFCnew,3,TOSY08,
2IFCnew,60,0,60,0,0.333518699976,2,Yes,6.5,-1,Correct Rejection,0.599939499982,False,True,stimulusTOSY08_2IFCnew_2019_Jul_02_1205_121,stimulusTOSY08_2IFCnew_2019_Jul_02_1205_122,True,2019_Jul_02_1205,2IFCnew,3,TOSY08,
2IFCnew,61,0,61,0,0.299930599984,2,Yes,4.9,-1,Correct Rejection,0.600259399973,False,True,stimulusTOSY08_2IFCnew_2019_Jul_02_1205_123,stimulusTOSY08_2IFCnew_2019_Jul_02_1205_124,True,2019_Jul_02_1205,2IFCnew,3,TOSY08,
2IFCnew,62,0,62,0,0.333380500088,2,Yes,4.9,-1,Correct Rejection,0.501237199875,False,True,stimulusTOSY08_2IFCnew_2019_Jul_02_1205_125,stimulusTOSY08_2IFCnew_2019_Jul_02_1205_126,True,2019_Jul_02_1205,2IFCnew,3,TOSY08,
2IFCnew,63,0,63,0,0.267614499899,1,No,11.7,-1,Hit,0.633788099978,True,False,stimulusTOSY08_2IFCnew_2019_Jul_02_1205_127,stimulusTOSY08_2IFCnew_2019_Jul_02_1205_128,True,2019_Jul_02_1205,2IFCnew,3,TOSY08,
2IFCnew,64,0,64,0,0.367374599911,1,No,12.9,-1,Hit,0.601927899988,True,False,stimulusTOSY08_2IFCnew_2019_Jul_02_1205_129,stimulusTOSY08_2IFCnew_2019_Jul_02_1205_130,True,2019_Jul_02_1205,2IFCnew,3,TOSY08,
2IFCnew,65,0,65,0,0.367510400014,2,Yes,10.7,-1,Correct Rejection,0.535366599914,False,True,stimulusTOSY08_2IFCnew_2019_Jul_02_1205_131,stimulusTOSY08_2IFCnew_2019_Jul_02_1205_132,True,2019_Jul_02_1205,2IFCnew,3,TOSY08,
2IFCnew,66,0,66,0,0.29857939994,1,No,10.7,-1,Hit,0.567902300041,True,False,stimulusTOSY08_2IFCnew_2019_Jul_02_1205_133,stimulusTOSY08_2IFCnew_2019_Jul_02_1205_134,True,2019_Jul_02_1205,2IFCnew,3,TOSY08,
2IFCnew,67,0,67,0,0.367504699854,5,Yes,10.7,-1,False Alarm,0.567424699897,False,True,stimulusTOSY08_2IFCnew_2019_Jul_02_1205_135,stimulusTOSY08_2IFCnew_2019_Jul_02_1205_136,True,2019_Jul_02_1205,2IFCnew,3,TOSY08,
2IFCnew,68,0,68,0,0.366724600084,2,Yes,12.9,-1,Correct Rejection,0.46738580009,False,True,stimulusTOSY08_2IFCnew_2019_Jul_02_1205_137,stimulusTOSY08_2IFCnew_2019_Jul_02_1205_138,True,2019_Jul_02_1205,2IFCnew,3,TOSY08,
2IFCnew,69,0,69,0,0.33439199999,2,Yes,12.9,-1,Correct Rejection,0.500041600084,False,True,stimulusTOSY08_2IFCnew_2019_Jul_02_1205_139,stimulusTOSY08_2IFCnew_2019_Jul_02_1205_140,True,2019_Jul_02_1205,2IFCnew,3,TOSY08,
2IFCnew,70,0,70,0,0.467197899939,1,No,7.7,-1,Hit,0.467573999893,True,False,stimulusTOSY08_2IFCnew_2019_Jul_02_1205_141,stimulusTOSY08_2IFCnew_2019_Jul_02_1205_142,True,2019_Jul_02_1205,2IFCnew,3,TOSY08,
2IFCnew,71,0,71,0,0.333877300145,1,No,12.9,-1,Hit,0.63402560004,True,False,stimulusTOSY08_2IFCnew_2019_Jul_02_1205_143,stimulusTOSY08_2IFCnew_2019_Jul_02_1205_144,True,2019_Jul_02_1205,2IFCnew,3,TOSY08,
2IFCnew,72,0,72,0,0.534121900098,1,No,7.7,-1,Hit,0.568594799843,True,False,stimulusTOSY08_2IFCnew_2019_Jul_02_1205_145,stimulusTOSY08_2IFCnew_2019_Jul_02_1205_146,True,2019_Jul_02_1205,2IFCnew,3,TOSY08,
2IFCnew,73,0,73,0,0.302250999957,2,Yes,12.9,-1,Correct Rejection,0.634913200047,False,True,stimulusTOSY08_2IFCnew_2019_Jul_02_1205_147,stimulusTOSY08_2IFCnew_2019_Jul_02_1205_148,True,2019_Jul_02_1205,2IFCnew,3,TOSY08,
2IFCnew,74,0,74,0,0.367544300156,2,Yes,4.9,-1,Correct Rejection,0.500382800121,False,True,stimulusTOSY08_2IFCnew_2019_Jul_02_1205_149,stimulusTOSY08_2IFCnew_2019_Jul_02_1205_150,True,2019_Jul_02_1205,2IFCnew,3,TOSY08,
2IFCnew,0,0,0,0,0.530952099944,5,Yes,10.7,-1,False Alarm,0.566629400011,False,True,stimulusTOSY08_2IFCnew_2019_Jul_02_1205_151,stimulusTOSY08_2IFCnew_2019_Jul_02_1205_152,True,2019_Jul_02_1205,2IFCnew,3,TOSY08,
2IFCnew,1,0,1,0,0.46628500009,2,Yes,8.7,-1,Correct Rejection,0.533345700009,False,True,stimulusTOSY08_2IFCnew_2019_Jul_02_1205_153,stimulusTOSY08_2IFCnew_2019_Jul_02_1205_154,True,2019_Jul_02_1205,2IFCnew,3,TOSY08,
2IFCnew,2,0,2,0,0.600758899935,6,No,4.9,-1,Miss,0.567903800169,True,False,stimulusTOSY08_2IFCnew_2019_Jul_02_1205_155,stimulusTOSY08_2IFCnew_2019_Jul_02_1205_156,True,2019_Jul_02_1205,2IFCnew,3,TOSY08,
2IFCnew,3,0,3,0,0.267295299796,1,No,10.7,-1,Hit,0.60095789982,True,False,stimulusTOSY08_2IFCnew_2019_Jul_02_1205_157,stimulusTOSY08_2IFCnew_2019_Jul_02_1205_158,True,2019_Jul_02_1205,2IFCnew,3,TOSY08,
2IFCnew,4,0,4,0,0.400793899782,1,No,4.9,-1,Hit,0.667987199966,True,False,stimulusTOSY08_2IFCnew_2019_Jul_02_1205_159,stimulusTOSY08_2IFCnew_2019_Jul_02_1205_160,True,2019_Jul_02_1205,2IFCnew,3,TOSY08,
2IFCnew,5,0,5,0,0.267647599801,2,Yes,11.7,-1,Correct Rejection,0.600557899801,False,True,stimulusTOSY08_2IFCnew_2019_Jul_02_1205_161,stimulusTOSY08_2IFCnew_2019_Jul_02_1205_162,True,2019_Jul_02_1205,2IFCnew,3,TOSY08,
2IFCnew,6,0,6,0,0.334031800041,1,No,7.7,-1,Hit,0.667570099933,True,False,stimulusTOSY08_2IFCnew_2019_Jul_02_1205_163,stimulusTOSY08_2IFCnew_2019_Jul_02_1205_164,True,2019_Jul_02_1205,2IFCnew,3,TOSY08,
2IFCnew,7,0,7,0,0.533892100211,6,No,8.7,-1,Miss,0.668463599868,True,False,stimulusTOSY08_2IFCnew_2019_Jul_02_1205_165,stimulusTOSY08_2IFCnew_2019_Jul_02_1205_166,True,2019_Jul_02_1205,2IFCnew,3,TOSY08,
2IFCnew,8,0,8,0,0.271221800009,2,Yes,6.5,-1,Correct Rejection,0.667095599929,False,True,stimulusTOSY08_2IFCnew_2019_Jul_02_1205_167,stimulusTOSY08_2IFCnew_2019_Jul_02_1205_168,True,2019_Jul_02_1205,2IFCnew,3,TOSY08,
2IFCnew,9,0,9,0,0.335976099828,1,No,8.7,-1,Hit,0.566648300039,True,False,stimulusTOSY08_2IFCnew_2019_Jul_02_1205_169,stimulusTOSY08_2IFCnew_2019_Jul_02_1205_170,True,2019_Jul_02_1205,2IFCnew,3,TOSY08,
2IFCnew,10,0,10,0,0.199053799966,1,No,12.9,-1,Hit,0.56650610012,True,False,stimulusTOSY08_2IFCnew_2019_Jul_02_1205_171,stimulusTOSY08_2IFCnew_2019_Jul_02_1205_172,True,2019_Jul_02_1205,2IFCnew,3,TOSY08,
2IFCnew,11,0,11,0,0.43326109997,1,No,6.5,-1,Hit,0.567333099898,True,False,stimulusTOSY08_2IFCnew_2019_Jul_02_1205_173,stimulusTOSY08_2IFCnew_2019_Jul_02_1205_174,True,2019_Jul_02_1205,2IFCnew,3,TOSY08,
2IFCnew,12,0,12,0,0.332822800148,2,Yes,11.7,-1,Correct Rejection,0.568055100041,False,True,stimulusTOSY08_2IFCnew_2019_Jul_02_1205_175,stimulusTOSY08_2IFCnew_2019_Jul_02_1205_176,True,2019_Jul_02_1205,2IFCnew,3,TOSY08,
2IFCnew,13,0,13,0,0.333018100122,2,Yes,7.7,-1,Correct Rejection,0.502174000023,False,True,stimulusTOSY08_2IFCnew_2019_Jul_02_1205_177,stimulusTOSY08_2IFCnew_2019_Jul_02_1205_178,True,2019_Jul_02_1205,2IFCnew,3,TOSY08,
2IFCnew,14,0,14,0,0.300608200021,2,Yes,8.7,-1,Correct Rejection,0.500937400153,False,True,stimulusTOSY08_2IFCnew_2019_Jul_02_1205_179,stimulusTOSY08_2IFCnew_2019_Jul_02_1205_180,True,2019_Jul_02_1205,2IFCnew,3,TOSY08,
2IFCnew,15,0,15,0,0.468110000016,7,Yes,6.5,-1,Hit,0.535904499935,True,False,stimulusTOSY08_2IFCnew_2019_Jul_02_1205_181,stimulusTOSY08_2IFCnew_2019_Jul_02_1205_182,True,2019_Jul_02_1205,2IFCnew,3,TOSY08,
2IFCnew,16,0,16,0,0.366985100089,3,No,12.9,-1,False Alarm,0.568897000048,False,True,stimulusTOSY08_2IFCnew_2019_Jul_02_1205_183,stimulusTOSY08_2IFCnew_2019_Jul_02_1205_184,True,2019_Jul_02_1205,2IFCnew,3,TOSY08,
2IFCnew,17,0,17,0,0.365164899966,1,No,10.7,-1,Hit,0.534057999961,True,False,stimulusTOSY08_2IFCnew_2019_Jul_02_1205_185,stimulusTOSY08_2IFCnew_2019_Jul_02_1205_186,True,2019_Jul_02_1205,2IFCnew,3,TOSY08,
2IFCnew,18,0,18,0,0.167651300086,2,Yes,8.7,-1,Correct Rejection,0.466457400005,False,True,stimulusTOSY08_2IFCnew_2019_Jul_02_1205_187,stimulusTOSY08_2IFCnew_2019_Jul_02_1205_188,True,2019_Jul_02_1205,2IFCnew,3,TOSY08,
2IFCnew,19,0,19,0,0.232752799988,1,No,10.7,-1,Hit,0.534939999925,True,False,stimulusTOSY08_2IFCnew_2019_Jul_02_1205_189,stimulusTOSY08_2IFCnew_2019_Jul_02_1205_190,True,2019_Jul_02_1205,2IFCnew,3,TOSY08,
2IFCnew,20,0,20,0,0.265415899921,2,Yes,9.7,-1,Correct Rejection,0.533798299963,False,True,stimulusTOSY08_2IFCnew_2019_Jul_02_1205_191,stimulusTOSY08_2IFCnew_2019_Jul_02_1205_192,True,2019_Jul_02_1205,2IFCnew,3,TOSY08,
2IFCnew,21,0,21,0,0.300219400087,2,Yes,10.7,-1,Correct Rejection,0.566868899856,False,True,stimulusTOSY08_2IFCnew_2019_Jul_02_1205_193,stimulusTOSY08_2IFCnew_2019_Jul_02_1205_194,True,2019_Jul_02_1205,2IFCnew,3,TOSY08,
2IFCnew,22,0,22,0,0.465483500157,8,No,4.9,-1,Correct Rejection,0.501105300151,False,True,stimulusTOSY08_2IFCnew_2019_Jul_02_1205_195,stimulusTOSY08_2IFCnew_2019_Jul_02_1205_196,True,2019_Jul_02_1205,2IFCnew,3,TOSY08,
2IFCnew,23,0,23,0,0.300738799851,2,Yes,12.9,-1,Correct Rejection,0.534934200114,False,True,stimulusTOSY08_2IFCnew_2019_Jul_02_1205_197,stimulusTOSY08_2IFCnew_2019_Jul_02_1205_198,True,2019_Jul_02_1205,2IFCnew,3,TOSY08,
2IFCnew,24,0,24,0,0.265887900023,1,No,11.7,-1,Hit,0.4326208001,True,False,stimulusTOSY08_2IFCnew_2019_Jul_02_1205_199,stimulusTOSY08_2IFCnew_2019_Jul_02_1205_200,True,2019_Jul_02_1205,2IFCnew,3,TOSY08,
2IFCnew,25,0,25,0,0.366839899914,2,Yes,12.9,-1,Correct Rejection,0.46696910006,False,True,stimulusTOSY08_2IFCnew_2019_Jul_02_1205_201,stimulusTOSY08_2IFCnew_2019_Jul_02_1205_202,True,2019_Jul_02_1205,2IFCnew,3,TOSY08,
2IFCnew,26,0,26,0,0.300604599994,2,Yes,10.7,-1,Correct Rejection,0.500622299965,False,True,stimulusTOSY08_2IFCnew_2019_Jul_02_1205_203,stimulusTOSY08_2IFCnew_2019_Jul_02_1205_204,True,2019_Jul_02_1205,2IFCnew,3,TOSY08,
2IFCnew,27,0,27,0,0.400356199825,2,Yes,4.9,-1,Correct Rejection,0.500796600012,False,True,stimulusTOSY08_2IFCnew_2019_Jul_02_1205_205,stimulusTOSY08_2IFCnew_2019_Jul_02_1205_206,True,2019_Jul_02_1205,2IFCnew,3,TOSY08,
2IFCnew,28,0,28,0,0.434102800209,2,Yes,11.7,-1,Correct Rejection,0.500017799903,False,True,stimulusTOSY08_2IFCnew_2019_Jul_02_1205_207,stimulusTOSY08_2IFCnew_2019_Jul_02_1205_208,True,2019_Jul_02_1205,2IFCnew,3,TOSY08,
2IFCnew,29,0,29,0,0.366994499927,2,Yes,11.7,-1,Correct Rejection,0.534093599999,False,True,stimulusTOSY08_2IFCnew_2019_Jul_02_1205_209,stimulusTOSY08_2IFCnew_2019_Jul_02_1205_210,True,2019_Jul_02_1205,2IFCnew,3,TOSY08,
2IFCnew,30,0,30,0,0.300895799883,6,No,8.7,-1,Miss,0.367434800137,True,False,stimulusTOSY08_2IFCnew_2019_Jul_02_1205_211,stimulusTOSY08_2IFCnew_2019_Jul_02_1205_212,True,2019_Jul_02_1205,2IFCnew,3,TOSY08,
2IFCnew,31,0,31,0,0.267117500072,2,Yes,7.7,-1,Correct Rejection,0.467283300124,False,True,stimulusTOSY08_2IFCnew_2019_Jul_02_1205_213,stimulusTOSY08_2IFCnew_2019_Jul_02_1205_214,True,2019_Jul_02_1205,2IFCnew,3,TOSY08,
2IFCnew,32,0,32,0,0.500464800047,2,Yes,11.7,-1,Correct Rejection,0.433633400127,False,True,stimulusTOSY08_2IFCnew_2019_Jul_02_1205_215,stimulusTOSY08_2IFCnew_2019_Jul_02_1205_216,True,2019_Jul_02_1205,2IFCnew,3,TOSY08,
2IFCnew,33,0,33,0,0.401840299834,2,Yes,6.5,-1,Correct Rejection,0.367849099915,False,True,stimulusTOSY08_2IFCnew_2019_Jul_02_1205_217,stimulusTOSY08_2IFCnew_2019_Jul_02_1205_218,True,2019_Jul_02_1205,2IFCnew,3,TOSY08,
2IFCnew,34,0,34,0,0.2996859001,1,No,11.7,-1,Hit,0.569045000011,True,False,stimulusTOSY08_2IFCnew_2019_Jul_02_1205_219,stimulusTOSY08_2IFCnew_2019_Jul_02_1205_220,True,2019_Jul_02_1205,2IFCnew,3,TOSY08,
2IFCnew,35,0,35,0,0.400728699984,6,No,8.7,-1,Miss,0.533869500039,True,False,stimulusTOSY08_2IFCnew_2019_Jul_02_1205_221,stimulusTOSY08_2IFCnew_2019_Jul_02_1205_222,True,2019_Jul_02_1205,2IFCnew,3,TOSY08,
2IFCnew,36,0,36,0,0.299510499928,2,Yes,12.9,-1,Correct Rejection,0.534256499959,False,True,stimulusTOSY08_2IFCnew_2019_Jul_02_1205_223,stimulusTOSY08_2IFCnew_2019_Jul_02_1205_224,True,2019_Jul_02_1205,2IFCnew,3,TOSY08,
2IFCnew,37,0,37,0,0.266331900144,1,No,11.7,-1,Hit,0.501059400151,True,False,stimulusTOSY08_2IFCnew_2019_Jul_02_1205_225,stimulusTOSY08_2IFCnew_2019_Jul_02_1205_226,True,2019_Jul_02_1205,2IFCnew,3,TOSY08,
2IFCnew,38,0,38,0,0.300321999937,2,Yes,12.9,-1,Correct Rejection,0.53475409979,False,True,stimulusTOSY08_2IFCnew_2019_Jul_02_1205_227,stimulusTOSY08_2IFCnew_2019_Jul_02_1205_228,True,2019_Jul_02_1205,2IFCnew,3,TOSY08,
2IFCnew,39,0,39,0,0.300101999892,2,Yes,11.7,-1,Correct Rejection,0.401087299921,False,True,stimulusTOSY08_2IFCnew_2019_Jul_02_1205_229,stimulusTOSY08_2IFCnew_2019_Jul_02_1205_230,True,2019_Jul_02_1205,2IFCnew,3,TOSY08,
2IFCnew,40,0,40,0,0.335714300163,2,Yes,4.9,-1,Correct Rejection,0.399899199838,False,True,stimulusTOSY08_2IFCnew_2019_Jul_02_1205_231,stimulusTOSY08_2IFCnew_2019_Jul_02_1205_232,True,2019_Jul_02_1205,2IFCnew,3,TOSY08,
2IFCnew,41,0,41,0,0.298165499931,1,No,11.7,-1,Hit,0.534256800078,True,False,stimulusTOSY08_2IFCnew_2019_Jul_02_1205_233,stimulusTOSY08_2IFCnew_2019_Jul_02_1205_234,True,2019_Jul_02_1205,2IFCnew,3,TOSY08,
2IFCnew,42,0,42,0,0.600155699998,8,No,9.7,-1,Correct Rejection,0.532766900025,False,True,stimulusTOSY08_2IFCnew_2019_Jul_02_1205_235,stimulusTOSY08_2IFCnew_2019_Jul_02_1205_236,True,2019_Jul_02_1205,2IFCnew,3,TOSY08,
2IFCnew,43,0,43,0,0.333264200017,2,Yes,11.7,-1,Correct Rejection,0.46747500007,False,True,stimulusTOSY08_2IFCnew_2019_Jul_02_1205_237,stimulusTOSY08_2IFCnew_2019_Jul_02_1205_238,True,2019_Jul_02_1205,2IFCnew,3,TOSY08,
2IFCnew,44,0,44,0,0.700896700146,6,No,4.9,-1,Miss,0.533959600143,True,False,stimulusTOSY08_2IFCnew_2019_Jul_02_1205_239,stimulusTOSY08_2IFCnew_2019_Jul_02_1205_240,True,2019_Jul_02_1205,2IFCnew,3,TOSY08,
2IFCnew,45,0,45,0,0.500173100038,1,No,7.7,-1,Hit,0.633516100002,True,False,stimulusTOSY08_2IFCnew_2019_Jul_02_1205_241,stimulusTOSY08_2IFCnew_2019_Jul_02_1205_242,True,2019_Jul_02_1205,2IFCnew,3,TOSY08,
2IFCnew,46,0,46,0,0.267172100022,1,No,8.7,-1,Hit,0.433995200088,True,False,stimulusTOSY08_2IFCnew_2019_Jul_02_1205_243,stimulusTOSY08_2IFCnew_2019_Jul_02_1205_244,True,2019_Jul_02_1205,2IFCnew,3,TOSY08,
2IFCnew,47,0,47,0,0.400670700008,5,Yes,6.5,-1,False Alarm,0.667938899947,False,True,stimulusTOSY08_2IFCnew_2019_Jul_02_1205_245,stimulusTOSY08_2IFCnew_2019_Jul_02_1205_246,True,2019_Jul_02_1205,2IFCnew,3,TOSY08,
2IFCnew,48,0,48,0,0.567210500129,2,Yes,7.7,-1,Correct Rejection,0.467567899963,False,True,stimulusTOSY08_2IFCnew_2019_Jul_02_1205_247,stimulusTOSY08_2IFCnew_2019_Jul_02_1205_248,True,2019_Jul_02_1205,2IFCnew,3,TOSY08,
2IFCnew,49,0,49,0,0.299782299902,2,Yes,12.9,-1,Correct Rejection,0.567386900075,False,True,stimulusTOSY08_2IFCnew_2019_Jul_02_1205_249,stimulusTOSY08_2IFCnew_2019_Jul_02_1205_250,True,2019_Jul_02_1205,2IFCnew,3,TOSY08,
2IFCnew,50,0,50,0,0.300059600035,1,No,12.9,-1,Hit,0.500640700106,True,False,stimulusTOSY08_2IFCnew_2019_Jul_02_1205_251,stimulusTOSY08_2IFCnew_2019_Jul_02_1205_252,True,2019_Jul_02_1205,2IFCnew,3,TOSY08,
2IFCnew,51,0,51,0,0.266791800037,2,Yes,4.9,-1,Correct Rejection,0.534319200087,False,True,stimulusTOSY08_2IFCnew_2019_Jul_02_1205_253,stimulusTOSY08_2IFCnew_2019_Jul_02_1205_254,True,2019_Jul_02_1205,2IFCnew,3,TOSY08,
2IFCnew,52,0,52,0,0.733349499991,8,No,7.7,-1,Correct Rejection,0.366784799844,False,True,stimulusTOSY08_2IFCnew_2019_Jul_02_1205_255,stimulusTOSY08_2IFCnew_2019_Jul_02_1205_256,True,2019_Jul_02_1205,2IFCnew,3,TOSY08,
2IFCnew,53,0,53,0,0.403173400089,2,Yes,6.5,-1,Correct Rejection,0.701028699987,False,True,stimulusTOSY08_2IFCnew_2019_Jul_02_1205_257,stimulusTOSY08_2IFCnew_2019_Jul_02_1205_258,True,2019_Jul_02_1205,2IFCnew,3,TOSY08,
2IFCnew,54,0,54,0,0.265486499993,1,No,12.9,-1,Hit,0.467076099943,True,False,stimulusTOSY08_2IFCnew_2019_Jul_02_1205_259,stimulusTOSY08_2IFCnew_2019_Jul_02_1205_260,True,2019_Jul_02_1205,2IFCnew,3,TOSY08,
2IFCnew,55,0,55,0,0.367293599993,2,Yes,9.7,-1,Correct Rejection,0.567905399948,False,True,stimulusTOSY08_2IFCnew_2019_Jul_02_1205_261,stimulusTOSY08_2IFCnew_2019_Jul_02_1205_262,True,2019_Jul_02_1205,2IFCnew,3,TOSY08,
2IFCnew,56,0,56,0,0.367410000181,2,Yes,9.7,-1,Correct Rejection,0.467631099978,False,True,stimulusTOSY08_2IFCnew_2019_Jul_02_1205_263,stimulusTOSY08_2IFCnew_2019_Jul_02_1205_264,True,2019_Jul_02_1205,2IFCnew,3,TOSY08,
2IFCnew,57,0,57,0,0.667874499923,4,Yes,4.9,-1,Miss,0.500557400053,True,False,stimulusTOSY08_2IFCnew_2019_Jul_02_1205_265,stimulusTOSY08_2IFCnew_2019_Jul_02_1205_266,True,2019_Jul_02_1205,2IFCnew,3,TOSY08,
2IFCnew,58,0,58,0,0.666520199971,2,Yes,11.7,-1,Correct Rejection,0.634910700144,False,True,stimulusTOSY08_2IFCnew_2019_Jul_02_1205_267,stimulusTOSY08_2IFCnew_2019_Jul_02_1205_268,True,2019_Jul_02_1205,2IFCnew,3,TOSY08,
2IFCnew,59,0,59,0,0.466924000066,1,No,7.7,-1,Hit,0.734406699892,True,False,stimulusTOSY08_2IFCnew_2019_Jul_02_1205_269,stimulusTOSY08_2IFCnew_2019_Jul_02_1205_270,True,2019_Jul_02_1205,2IFCnew,3,TOSY08,
2IFCnew,60,0,60,0,0.266146000009,1,No,6.5,-1,Hit,0.567994500045,True,False,stimulusTOSY08_2IFCnew_2019_Jul_02_1205_271,stimulusTOSY08_2IFCnew_2019_Jul_02_1205_272,True,2019_Jul_02_1205,2IFCnew,3,TOSY08,
2IFCnew,61,0,61,0,0.300656600157,5,Yes,6.5,-1,False Alarm,0.469427800039,False,True,stimulusTOSY08_2IFCnew_2019_Jul_02_1205_273,stimulusTOSY08_2IFCnew_2019_Jul_02_1205_274,True,2019_Jul_02_1205,2IFCnew,3,TOSY08,
2IFCnew,62,0,62,0,0.333804400172,2,Yes,7.7,-1,Correct Rejection,0.434139499906,False,True,stimulusTOSY08_2IFCnew_2019_Jul_02_1205_275,stimulusTOSY08_2IFCnew_2019_Jul_02_1205_276,True,2019_Jul_02_1205,2IFCnew,3,TOSY08,
2IFCnew,63,0,63,0,0.400145600084,1,No,9.7,-1,Hit,0.534211799968,True,False,stimulusTOSY08_2IFCnew_2019_Jul_02_1205_277,stimulusTOSY08_2IFCnew_2019_Jul_02_1205_278,True,2019_Jul_02_1205,2IFCnew,3,TOSY08,
2IFCnew,64,0,64,0,0.266034799861,1,No,11.7,-1,Hit,0.467432499863,True,False,stimulusTOSY08_2IFCnew_2019_Jul_02_1205_279,stimulusTOSY08_2IFCnew_2019_Jul_02_1205_280,True,2019_Jul_02_1205,2IFCnew,3,TOSY08,
2IFCnew,65,0,65,0,0.301278900122,2,Yes,9.7,-1,Correct Rejection,0.467923100106,False,True,stimulusTOSY08_2IFCnew_2019_Jul_02_1205_281,stimulusTOSY08_2IFCnew_2019_Jul_02_1205_282,True,2019_Jul_02_1205,2IFCnew,3,TOSY08,
2IFCnew,66,0,66,0,0.234368799953,2,Yes,11.7,-1,Correct Rejection,0.600880099926,False,True,stimulusTOSY08_2IFCnew_2019_Jul_02_1205_283,stimulusTOSY08_2IFCnew_2019_Jul_02_1205_284,True,2019_Jul_02_1205,2IFCnew,3,TOSY08,
2IFCnew,67,0,67,0,0.600505199982,2,Yes,6.5,-1,Correct Rejection,0.500584500143,False,True,stimulusTOSY08_2IFCnew_2019_Jul_02_1205_285,stimulusTOSY08_2IFCnew_2019_Jul_02_1205_286,True,2019_Jul_02_1205,2IFCnew,3,TOSY08,
2IFCnew,68,0,68,0,0.367009999929,2,Yes,8.7,-1,Correct Rejection,0.50037880009,False,True,stimulusTOSY08_2IFCnew_2019_Jul_02_1205_287,stimulusTOSY08_2IFCnew_2019_Jul_02_1205_288,True,2019_Jul_02_1205,2IFCnew,3,TOSY08,
2IFCnew,69,0,69,0,0.500671599992,6,No,8.7,-1,Miss,0.767354600132,True,False,stimulusTOSY08_2IFCnew_2019_Jul_02_1205_289,stimulusTOSY08_2IFCnew_2019_Jul_02_1205_290,True,2019_Jul_02_1205,2IFCnew,3,TOSY08,
2IFCnew,70,0,70,0,0.299946000101,1,No,12.9,-1,Hit,0.567211499903,True,False,stimulusTOSY08_2IFCnew_2019_Jul_02_1205_291,stimulusTOSY08_2IFCnew_2019_Jul_02_1205_292,True,2019_Jul_02_1205,2IFCnew,3,TOSY08,
2IFCnew,71,0,71,0,0.267164599849,2,Yes,6.5,-1,Correct Rejection,0.534509199904,False,True,stimulusTOSY08_2IFCnew_2019_Jul_02_1205_293,stimulusTOSY08_2IFCnew_2019_Jul_02_1205_294,True,2019_Jul_02_1205,2IFCnew,3,TOSY08,
2IFCnew,72,0,72,0,0.434279199922,2,Yes,8.7,-1,Correct Rejection,0.66758499993,False,True,stimulusTOSY08_2IFCnew_2019_Jul_02_1205_295,stimulusTOSY08_2IFCnew_2019_Jul_02_1205_296,True,2019_Jul_02_1205,2IFCnew,3,TOSY08,
2IFCnew,73,0,73,0,0.335162000032,1,No,9.7,-1,Hit,0.634443300078,True,False,stimulusTOSY08_2IFCnew_2019_Jul_02_1205_297,stimulusTOSY08_2IFCnew_2019_Jul_02_1205_298,True,2019_Jul_02_1205,2IFCnew,3,TOSY08,
2IFCnew,74,0,74,0,0.367624199949,1,No,8.7,-1,Hit,0.535350699909,True,False,stimulusTOSY08_2IFCnew_2019_Jul_02_1205_299,stimulusTOSY08_2IFCnew_2019_Jul_02_1205_300,True,2019_Jul_02_1205,2IFCnew,3,TOSY08,
2IFCnew,0,0,0,0,0.533724400215,1,No,11.7,-1,Hit,0.86767930002,True,False,stimulusTOSY08_2IFCnew_2019_Jul_02_1205_301,stimulusTOSY08_2IFCnew_2019_Jul_02_1205_302,True,2019_Jul_02_1205,2IFCnew,3,TOSY08,
2IFCnew,1,0,1,0,0.300308099948,1,No,8.7,-1,Hit,0.566983400146,True,False,stimulusTOSY08_2IFCnew_2019_Jul_02_1205_303,stimulusTOSY08_2IFCnew_2019_Jul_02_1205_304,True,2019_Jul_02_1205,2IFCnew,3,TOSY08,
2IFCnew,2,0,2,0,0.43258969998,1,No,10.7,-1,Hit,0.667021199828,True,False,stimulusTOSY08_2IFCnew_2019_Jul_02_1205_305,stimulusTOSY08_2IFCnew_2019_Jul_02_1205_306,True,2019_Jul_02_1205,2IFCnew,3,TOSY08,
2IFCnew,3,0,3,0,0.434169800021,5,Yes,4.9,-1,False Alarm,0.600562999956,False,True,stimulusTOSY08_2IFCnew_2019_Jul_02_1205_307,stimulusTOSY08_2IFCnew_2019_Jul_02_1205_308,True,2019_Jul_02_1205,2IFCnew,3,TOSY08,
2IFCnew,4,0,4,0,0.400456500007,5,Yes,11.7,-1,False Alarm,0.568036400015,False,True,stimulusTOSY08_2IFCnew_2019_Jul_02_1205_309,stimulusTOSY08_2IFCnew_2019_Jul_02_1205_310,True,2019_Jul_02_1205,2IFCnew,3,TOSY08,
2IFCnew,5,0,5,0,0.266974600032,1,No,12.9,-1,Hit,0.568686899962,True,False,stimulusTOSY08_2IFCnew_2019_Jul_02_1205_311,stimulusTOSY08_2IFCnew_2019_Jul_02_1205_312,True,2019_Jul_02_1205,2IFCnew,3,TOSY08,
2IFCnew,6,0,6,0,0.467236900004,6,No,6.5,-1,Miss,0.633576099994,True,False,stimulusTOSY08_2IFCnew_2019_Jul_02_1205_313,stimulusTOSY08_2IFCnew_2019_Jul_02_1205_314,True,2019_Jul_02_1205,2IFCnew,3,TOSY08,
2IFCnew,7,0,7,0,0.500229600118,3,No,9.7,-1,False Alarm,0.536531300051,False,True,stimulusTOSY08_2IFCnew_2019_Jul_02_1205_315,stimulusTOSY08_2IFCnew_2019_Jul_02_1205_316,True,2019_Jul_02_1205,2IFCnew,3,TOSY08,
2IFCnew,8,0,8,0,0.90168999997,6,No,4.9,-1,Miss,0.636158900103,True,False,stimulusTOSY08_2IFCnew_2019_Jul_02_1205_317,stimulusTOSY08_2IFCnew_2019_Jul_02_1205_318,True,2019_Jul_02_1205,2IFCnew,3,TOSY08,
2IFCnew,9,0,9,0,0.634241899941,1,No,8.7,-1,Hit,0.599871599814,True,False,stimulusTOSY08_2IFCnew_2019_Jul_02_1205_319,stimulusTOSY08_2IFCnew_2019_Jul_02_1205_320,True,2019_Jul_02_1205,2IFCnew,3,TOSY08,
2IFCnew,10,0,10,0,0.466954399832,2,Yes,11.7,-1,Correct Rejection,0.76798080001,False,True,stimulusTOSY08_2IFCnew_2019_Jul_02_1205_321,stimulusTOSY08_2IFCnew_2019_Jul_02_1205_322,True,2019_Jul_02_1205,2IFCnew,3,TOSY08,
2IFCnew,11,0,11,0,0.300981299952,1,No,12.9,-1,Hit,0.501652400009,True,False,stimulusTOSY08_2IFCnew_2019_Jul_02_1205_323,stimulusTOSY08_2IFCnew_2019_Jul_02_1205_324,True,2019_Jul_02_1205,2IFCnew,3,TOSY08,
2IFCnew,12,0,12,0,0.300390599994,1,No,10.7,-1,Hit,0.533303700155,True,False,stimulusTOSY08_2IFCnew_2019_Jul_02_1205_325,stimulusTOSY08_2IFCnew_2019_Jul_02_1205_326,True,2019_Jul_02_1205,2IFCnew,3,TOSY08,
2IFCnew,13,0,13,0,0.333753600018,1,No,9.7,-1,Hit,0.667978900019,True,False,stimulusTOSY08_2IFCnew_2019_Jul_02_1205_327,stimulusTOSY08_2IFCnew_2019_Jul_02_1205_328,True,2019_Jul_02_1205,2IFCnew,3,TOSY08,
2IFCnew,14,0,14,0,0.299030799884,2,Yes,6.5,-1,Correct Rejection,0.600691499887,False,True,stimulusTOSY08_2IFCnew_2019_Jul_02_1205_329,stimulusTOSY08_2IFCnew_2019_Jul_02_1205_330,True,2019_Jul_02_1205,2IFCnew,3,TOSY08,
2IFCnew,15,0,15,0,0.266523800092,2,Yes,8.7,-1,Correct Rejection,0.534518599976,False,True,stimulusTOSY08_2IFCnew_2019_Jul_02_1205_331,stimulusTOSY08_2IFCnew_2019_Jul_02_1205_332,True,2019_Jul_02_1205,2IFCnew,3,TOSY08,
2IFCnew,16,0,16,0,0.300078399945,1,No,10.7,-1,Hit,0.467446400085,True,False,stimulusTOSY08_2IFCnew_2019_Jul_02_1205_333,stimulusTOSY08_2IFCnew_2019_Jul_02_1205_334,True,2019_Jul_02_1205,2IFCnew,3,TOSY08,
2IFCnew,17,0,17,0,0.333385800011,1,No,4.9,-1,Hit,0.701414499898,True,False,stimulusTOSY08_2IFCnew_2019_Jul_02_1205_335,stimulusTOSY08_2IFCnew_2019_Jul_02_1205_336,True,2019_Jul_02_1205,2IFCnew,3,TOSY08,
2IFCnew,18,0,18,0,0.33325629984,1,No,4.9,-1,Hit,0.700873899972,True,False,stimulusTOSY08_2IFCnew_2019_Jul_02_1205_337,stimulusTOSY08_2IFCnew_2019_Jul_02_1205_338,True,2019_Jul_02_1205,2IFCnew,3,TOSY08,
2IFCnew,19,0,19,0,0.234685000032,2,Yes,9.7,-1,Correct Rejection,0.600719999988,False,True,stimulusTOSY08_2IFCnew_2019_Jul_02_1205_339,stimulusTOSY08_2IFCnew_2019_Jul_02_1205_340,True,2019_Jul_02_1205,2IFCnew,3,TOSY08,
2IFCnew,20,0,20,0,0.300231799949,1,No,4.9,-1,Hit,0.634168599965,True,False,stimulusTOSY08_2IFCnew_2019_Jul_02_1205_341,stimulusTOSY08_2IFCnew_2019_Jul_02_1205_342,True,2019_Jul_02_1205,2IFCnew,3,TOSY08,
2IFCnew,21,0,21,0,0.26683410001,1,No,6.5,-1,Hit,0.533888699953,True,False,stimulusTOSY08_2IFCnew_2019_Jul_02_1205_343,stimulusTOSY08_2IFCnew_2019_Jul_02_1205_344,True,2019_Jul_02_1205,2IFCnew,3,TOSY08,
2IFCnew,22,0,22,0,0.267528699944,1,No,11.7,-1,Hit,0.535869600018,True,False,stimulusTOSY08_2IFCnew_2019_Jul_02_1205_345,stimulusTOSY08_2IFCnew_2019_Jul_02_1205_346,True,2019_Jul_02_1205,2IFCnew,3,TOSY08,
2IFCnew,23,0,23,0,0.700104999822,6,No,8.7,-1,Miss,0.537099299952,True,False,stimulusTOSY08_2IFCnew_2019_Jul_02_1205_347,stimulusTOSY08_2IFCnew_2019_Jul_02_1205_348,True,2019_Jul_02_1205,2IFCnew,3,TOSY08,
2IFCnew,24,0,24,0,0.333156400127,3,No,10.7,-1,False Alarm,0.702139900066,False,True,stimulusTOSY08_2IFCnew_2019_Jul_02_1205_349,stimulusTOSY08_2IFCnew_2019_Jul_02_1205_350,True,2019_Jul_02_1205,2IFCnew,3,TOSY08,
2IFCnew,25,0,25,0,0.434199200012,3,No,8.7,-1,False Alarm,0.534366499865,False,True,stimulusTOSY08_2IFCnew_2019_Jul_02_1205_351,stimulusTOSY08_2IFCnew_2019_Jul_02_1205_352,True,2019_Jul_02_1205,2IFCnew,3,TOSY08,
2IFCnew,26,0,26,0,0.267549499869,2,Yes,11.7,-1,Correct Rejection,0.700117599918,False,True,stimulusTOSY08_2IFCnew_2019_Jul_02_1205_353,stimulusTOSY08_2IFCnew_2019_Jul_02_1205_354,True,2019_Jul_02_1205,2IFCnew,3,TOSY08,
2IFCnew,27,0,27,0,0.299980199896,2,Yes,7.7,-1,Correct Rejection,0.602272199932,False,True,stimulusTOSY08_2IFCnew_2019_Jul_02_1205_355,stimulusTOSY08_2IFCnew_2019_Jul_02_1205_356,True,2019_Jul_02_1205,2IFCnew,3,TOSY08,
2IFCnew,28,0,28,0,0.333933699876,1,No,8.7,-1,Hit,0.636002100073,True,False,stimulusTOSY08_2IFCnew_2019_Jul_02_1205_357,stimulusTOSY08_2IFCnew_2019_Jul_02_1205_358,True,2019_Jul_02_1205,2IFCnew,3,TOSY08,
2IFCnew,29,0,29,0,0.234716100153,2,Yes,11.7,-1,Correct Rejection,0.567121699918,False,True,stimulusTOSY08_2IFCnew_2019_Jul_02_1205_359,stimulusTOSY08_2IFCnew_2019_Jul_02_1205_360,True,2019_Jul_02_1205,2IFCnew,3,TOSY08,
2IFCnew,30,0,30,0,0.166731999954,1,No,10.7,-1,Hit,0.433988000033,True,False,stimulusTOSY08_2IFCnew_2019_Jul_02_1205_361,stimulusTOSY08_2IFCnew_2019_Jul_02_1205_362,True,2019_Jul_02_1205,2IFCnew,3,TOSY08,
2IFCnew,31,0,31,0,0.233309699921,1,No,8.7,-1,Hit,0.467275700066,True,False,stimulusTOSY08_2IFCnew_2019_Jul_02_1205_363,stimulusTOSY08_2IFCnew_2019_Jul_02_1205_364,True,2019_Jul_02_1205,2IFCnew,3,TOSY08,
2IFCnew,32,0,32,0,0.233908199938,1,No,9.7,-1,Hit,0.500694599934,True,False,stimulusTOSY08_2IFCnew_2019_Jul_02_1205_365,stimulusTOSY08_2IFCnew_2019_Jul_02_1205_366,True,2019_Jul_02_1205,2IFCnew,3,TOSY08,
2IFCnew,33,0,33,0,0.267556800041,1,No,11.7,-1,Hit,0.468492799904,True,False,stimulusTOSY08_2IFCnew_2019_Jul_02_1205_367,stimulusTOSY08_2IFCnew_2019_Jul_02_1205_368,True,2019_Jul_02_1205,2IFCnew,3,TOSY08,
2IFCnew,34,0,34,0,0.301046299981,1,No,6.5,-1,Hit,0.566158399917,True,False,stimulusTOSY08_2IFCnew_2019_Jul_02_1205_369,stimulusTOSY08_2IFCnew_2019_Jul_02_1205_370,True,2019_Jul_02_1205,2IFCnew,3,TOSY08,
2IFCnew,35,0,35,0,0.367134399945,1,No,7.7,-1,Hit,0.666970700026,True,False,stimulusTOSY08_2IFCnew_2019_Jul_02_1205_371,stimulusTOSY08_2IFCnew_2019_Jul_02_1205_372,True,2019_Jul_02_1205,2IFCnew,3,TOSY08,
2IFCnew,36,0,36,0,0.268063999945,4,Yes,4.9,-1,Miss,0.534715400077,True,False,stimulusTOSY08_2IFCnew_2019_Jul_02_1205_373,stimulusTOSY08_2IFCnew_2019_Jul_02_1205_374,True,2019_Jul_02_1205,2IFCnew,3,TOSY08,
2IFCnew,37,0,37,0,0.201214200119,2,Yes,9.7,-1,Correct Rejection,0.601604599971,False,True,stimulusTOSY08_2IFCnew_2019_Jul_02_1205_375,stimulusTOSY08_2IFCnew_2019_Jul_02_1205_376,True,2019_Jul_02_1205,2IFCnew,3,TOSY08,
2IFCnew,38,0,38,0,0.501501000021,5,Yes,9.7,-1,False Alarm,0.701468300074,False,True,stimulusTOSY08_2IFCnew_2019_Jul_02_1205_377,stimulusTOSY08_2IFCnew_2019_Jul_02_1205_378,True,2019_Jul_02_1205,2IFCnew,3,TOSY08,
2IFCnew,39,0,39,0,0.367577699944,4,Yes,4.9,-1,Miss,0.500179300085,True,False,stimulusTOSY08_2IFCnew_2019_Jul_02_1205_379,stimulusTOSY08_2IFCnew_2019_Jul_02_1205_380,True,2019_Jul_02_1205,2IFCnew,3,TOSY08,
2IFCnew,40,0,40,0,0.29992479994,1,No,6.5,-1,Hit,0.400570099941,True,False,stimulusTOSY08_2IFCnew_2019_Jul_02_1205_381,stimulusTOSY08_2IFCnew_2019_Jul_02_1205_382,True,2019_Jul_02_1205,2IFCnew,3,TOSY08,
2IFCnew,41,0,41,0,0.267479100032,1,No,9.7,-1,Hit,0.534083100036,True,False,stimulusTOSY08_2IFCnew_2019_Jul_02_1205_383,stimulusTOSY08_2IFCnew_2019_Jul_02_1205_384,True,2019_Jul_02_1205,2IFCnew,3,TOSY08,
2IFCnew,42,0,42,0,0.0999340999406,1,No,12.9,-1,Hit,0.533709400101,True,False,stimulusTOSY08_2IFCnew_2019_Jul_02_1205_385,stimulusTOSY08_2IFCnew_2019_Jul_02_1205_386,True,2019_Jul_02_1205,2IFCnew,3,TOSY08,
2IFCnew,43,0,43,0,0.266859000083,1,No,10.7,-1,Hit,0.502310300013,True,False,stimulusTOSY08_2IFCnew_2019_Jul_02_1205_387,stimulusTOSY08_2IFCnew_2019_Jul_02_1205_388,True,2019_Jul_02_1205,2IFCnew,3,TOSY08,
2IFCnew,44,0,44,0,0.26708479994,5,Yes,4.9,-1,False Alarm,0.598830499919,False,True,stimulusTOSY08_2IFCnew_2019_Jul_02_1205_389,stimulusTOSY08_2IFCnew_2019_Jul_02_1205_390,True,2019_Jul_02_1205,2IFCnew,3,TOSY08,
2IFCnew,45,0,45,0,0.300325899851,5,Yes,9.7,-1,False Alarm,0.467058399925,False,True,stimulusTOSY08_2IFCnew_2019_Jul_02_1205_391,stimulusTOSY08_2IFCnew_2019_Jul_02_1205_392,True,2019_Jul_02_1205,2IFCnew,3,TOSY08,
2IFCnew,46,0,46,0,0.367258700076,5,Yes,10.7,-1,False Alarm,0.534284699941,False,True,stimulusTOSY08_2IFCnew_2019_Jul_02_1205_393,stimulusTOSY08_2IFCnew_2019_Jul_02_1205_394,True,2019_Jul_02_1205,2IFCnew,3,TOSY08,
2IFCnew,47,0,47,0,0.533424699912,1,No,4.9,-1,Hit,0.532614100026,True,False,stimulusTOSY08_2IFCnew_2019_Jul_02_1205_395,stimulusTOSY08_2IFCnew_2019_Jul_02_1205_396,True,2019_Jul_02_1205,2IFCnew,3,TOSY08,
2IFCnew,48,0,48,0,0.468098499812,5,Yes,10.7,-1,False Alarm,0.634835300036,False,True,stimulusTOSY08_2IFCnew_2019_Jul_02_1205_397,stimulusTOSY08_2IFCnew_2019_Jul_02_1205_398,True,2019_Jul_02_1205,2IFCnew,3,TOSY08,
2IFCnew,49,0,49,0,0.567540799966,2,Yes,11.7,-1,Correct Rejection,0.669484500075,False,True,stimulusTOSY08_2IFCnew_2019_Jul_02_1205_399,stimulusTOSY08_2IFCnew_2019_Jul_02_1205_400,True,2019_Jul_02_1205,2IFCnew,3,TOSY08,
2IFCnew,50,0,50,0,0.633427600143,1,No,9.7,-1,Hit,0.634825499961,True,False,stimulusTOSY08_2IFCnew_2019_Jul_02_1205_401,stimulusTOSY08_2IFCnew_2019_Jul_02_1205_402,True,2019_Jul_02_1205,2IFCnew,3,TOSY08,
2IFCnew,51,0,51,0,0.334067200078,2,Yes,7.7,-1,Correct Rejection,0.700487199938,False,True,stimulusTOSY08_2IFCnew_2019_Jul_02_1205_403,stimulusTOSY08_2IFCnew_2019_Jul_02_1205_404,True,2019_Jul_02_1205,2IFCnew,3,TOSY08,
2IFCnew,52,0,52,0,0.433687400073,2,Yes,8.7,-1,Correct Rejection,0.567720300052,False,True,stimulusTOSY08_2IFCnew_2019_Jul_02_1205_405,stimulusTOSY08_2IFCnew_2019_Jul_02_1205_406,True,2019_Jul_02_1205,2IFCnew,3,TOSY08,
2IFCnew,53,0,53,0,0.400302900001,2,Yes,4.9,-1,Correct Rejection,0.634075899841,False,True,stimulusTOSY08_2IFCnew_2019_Jul_02_1205_407,stimulusTOSY08_2IFCnew_2019_Jul_02_1205_408,True,2019_Jul_02_1205,2IFCnew,3,TOSY08,
2IFCnew,54,0,54,0,0.66788730002,4,Yes,8.7,-1,Miss,0.667109099915,True,False,stimulusTOSY08_2IFCnew_2019_Jul_02_1205_409,stimulusTOSY08_2IFCnew_2019_Jul_02_1205_410,True,2019_Jul_02_1205,2IFCnew,3,TOSY08,
2IFCnew,55,0,55,0,0.570061000064,1,No,4.9,-1,Hit,0.470134999836,True,False,stimulusTOSY08_2IFCnew_2019_Jul_02_1205_411,stimulusTOSY08_2IFCnew_2019_Jul_02_1205_412,True,2019_Jul_02_1205,2IFCnew,3,TOSY08,
2IFCnew,56,0,56,0,0.569523100043,2,Yes,10.7,-1,Correct Rejection,0.567490100162,False,True,stimulusTOSY08_2IFCnew_2019_Jul_02_1205_413,stimulusTOSY08_2IFCnew_2019_Jul_02_1205_414,True,2019_Jul_02_1205,2IFCnew,3,TOSY08,
2IFCnew,57,0,57,0,0.400575200096,4,Yes,7.7,-1,Miss,0.431388600031,True,False,stimulusTOSY08_2IFCnew_2019_Jul_02_1205_415,stimulusTOSY08_2IFCnew_2019_Jul_02_1205_416,True,2019_Jul_02_1205,2IFCnew,3,TOSY08,
2IFCnew,58,0,58,0,0.33498480008,2,Yes,9.7,-1,Correct Rejection,0.633253599983,False,True,stimulusTOSY08_2IFCnew_2019_Jul_02_1205_417,stimulusTOSY08_2IFCnew_2019_Jul_02_1205_418,True,2019_Jul_02_1205,2IFCnew,3,TOSY08,
2IFCnew,59,0,59,0,0.567160099978,5,Yes,10.7,-1,False Alarm,0.43513950007,False,True,stimulusTOSY08_2IFCnew_2019_Jul_02_1205_419,stimulusTOSY08_2IFCnew_2019_Jul_02_1205_420,True,2019_Jul_02_1205,2IFCnew,3,TOSY08,
2IFCnew,60,0,60,0,0.501427399926,1,No,6.5,-1,Hit,0.53483020002,True,False,stimulusTOSY08_2IFCnew_2019_Jul_02_1205_421,stimulusTOSY08_2IFCnew_2019_Jul_02_1205_422,True,2019_Jul_02_1205,2IFCnew,3,TOSY08,
2IFCnew,61,0,61,0,0.433743200032,2,Yes,7.7,-1,Correct Rejection,0.532404100057,False,True,stimulusTOSY08_2IFCnew_2019_Jul_02_1205_423,stimulusTOSY08_2IFCnew_2019_Jul_02_1205_424,True,2019_Jul_02_1205,2IFCnew,3,TOSY08,
2IFCnew,62,0,62,0,0.267839299981,1,No,10.7,-1,Hit,0.536133399932,True,False,stimulusTOSY08_2IFCnew_2019_Jul_02_1205_425,stimulusTOSY08_2IFCnew_2019_Jul_02_1205_426,True,2019_Jul_02_1205,2IFCnew,3,TOSY08,
2IFCnew,63,0,63,0,0.201663899934,4,Yes,7.7,-1,Miss,0.500887800008,True,False,stimulusTOSY08_2IFCnew_2019_Jul_02_1205_427,stimulusTOSY08_2IFCnew_2019_Jul_02_1205_428,True,2019_Jul_02_1205,2IFCnew,3,TOSY08,
2IFCnew,64,0,64,0,0.333754499909,2,Yes,7.7,-1,Correct Rejection,0.667719099903,False,True,stimulusTOSY08_2IFCnew_2019_Jul_02_1205_429,stimulusTOSY08_2IFCnew_2019_Jul_02_1205_430,True,2019_Jul_02_1205,2IFCnew,3,TOSY08,
2IFCnew,65,0,65,0,0.267567199888,2,Yes,8.7,-1,Correct Rejection,0.53430080018,False,True,stimulusTOSY08_2IFCnew_2019_Jul_02_1205_431,stimulusTOSY08_2IFCnew_2019_Jul_02_1205_432,True,2019_Jul_02_1205,2IFCnew,3,TOSY08,
2IFCnew,66,0,66,0,0.234212399926,3,No,4.9,-1,False Alarm,0.466950600035,False,True,stimulusTOSY08_2IFCnew_2019_Jul_02_1205_433,stimulusTOSY08_2IFCnew_2019_Jul_02_1205_434,True,2019_Jul_02_1205,2IFCnew,3,TOSY08,
2IFCnew,67,0,67,0,0.333901599981,1,No,8.7,-1,Hit,0.434059099993,True,False,stimulusTOSY08_2IFCnew_2019_Jul_02_1205_435,stimulusTOSY08_2IFCnew_2019_Jul_02_1205_436,True,2019_Jul_02_1205,2IFCnew,3,TOSY08,
2IFCnew,68,0,68,0,0.26620289986,2,Yes,11.7,-1,Correct Rejection,0.467464599991,False,True,stimulusTOSY08_2IFCnew_2019_Jul_02_1205_437,stimulusTOSY08_2IFCnew_2019_Jul_02_1205_438,True,2019_Jul_02_1205,2IFCnew,3,TOSY08,
2IFCnew,69,0,69,0,0.333211299963,3,No,6.5,-1,False Alarm,0.534675000003,False,True,stimulusTOSY08_2IFCnew_2019_Jul_02_1205_439,stimulusTOSY08_2IFCnew_2019_Jul_02_1205_440,True,2019_Jul_02_1205,2IFCnew,3,TOSY08,
2IFCnew,70,0,70,0,0.330233299872,2,Yes,4.9,-1,Correct Rejection,0.467323499965,False,True,stimulusTOSY08_2IFCnew_2019_Jul_02_1205_441,stimulusTOSY08_2IFCnew_2019_Jul_02_1205_442,True,2019_Jul_02_1205,2IFCnew,3,TOSY08,
2IFCnew,71,0,71,0,0.400332299992,1,No,11.7,-1,Hit,0.634706199868,True,False,stimulusTOSY08_2IFCnew_2019_Jul_02_1205_443,stimulusTOSY08_2IFCnew_2019_Jul_02_1205_444,True,2019_Jul_02_1205,2IFCnew,3,TOSY08,
2IFCnew,72,0,72,0,0.566876600031,6,No,8.7,-1,Miss,0.633097600192,True,False,stimulusTOSY08_2IFCnew_2019_Jul_02_1205_445,stimulusTOSY08_2IFCnew_2019_Jul_02_1205_446,True,2019_Jul_02_1205,2IFCnew,3,TOSY08,
2IFCnew,73,0,73,0,0.333781500114,5,Yes,6.5,-1,False Alarm,0.400746499887,False,True,stimulusTOSY08_2IFCnew_2019_Jul_02_1205_447,stimulusTOSY08_2IFCnew_2019_Jul_02_1205_448,True,2019_Jul_02_1205,2IFCnew,3,TOSY08,
2IFCnew,74,0,74,0,0.467438600026,6,No,7.7,-1,Miss,0.433781399857,True,False,stimulusTOSY08_2IFCnew_2019_Jul_02_1205_449,stimulusTOSY08_2IFCnew_2019_Jul_02_1205_450,True,2019_Jul_02_1205,2IFCnew,3,TOSY08,
2IFCnew,0,0,0,0,-1,0,No,10.7,-1,No Answer,-1,False,True,stimulusTOSY08_2IFCnew_2019_Jul_02_1205_451,stimulusTOSY08_2IFCnew_2019_Jul_02_1205_452,True,2019_Jul_02_1205,2IFCnew,3,TOSY08,
2IFCnew,1,0,1,0,0.300502000144,4,Yes,9.7,-1,Miss,0.534159800038,True,False,stimulusTOSY08_2IFCnew_2019_Jul_02_1205_453,stimulusTOSY08_2IFCnew_2019_Jul_02_1205_454,True,2019_Jul_02_1205,2IFCnew,3,TOSY08,
2IFCnew,2,0,2,0,0.666988400044,2,Yes,4.9,-1,Correct Rejection,0.667195500107,False,True,stimulusTOSY08_2IFCnew_2019_Jul_02_1205_455,stimulusTOSY08_2IFCnew_2019_Jul_02_1205_456,True,2019_Jul_02_1205,2IFCnew,3,TOSY08,
2IFCnew,3,0,3,0,0.30000040005,1,No,7.7,-1,Hit,0.634508399991,True,False,stimulusTOSY08_2IFCnew_2019_Jul_02_1205_457,stimulusTOSY08_2IFCnew_2019_Jul_02_1205_458,True,2019_Jul_02_1205,2IFCnew,3,TOSY08,
2IFCnew,4,0,4,0,0.267697100062,1,No,10.7,-1,Hit,0.468572499929,True,False,stimulusTOSY08_2IFCnew_2019_Jul_02_1205_459,stimulusTOSY08_2IFCnew_2019_Jul_02_1205_460,True,2019_Jul_02_1205,2IFCnew,3,TOSY08,
2IFCnew,5,0,5,0,0.332888500066,1,No,8.7,-1,Hit,0.567653500009,True,False,stimulusTOSY08_2IFCnew_2019_Jul_02_1205_461,stimulusTOSY08_2IFCnew_2019_Jul_02_1205_462,True,2019_Jul_02_1205,2IFCnew,3,TOSY08,
2IFCnew,6,0,6,0,0.300610700157,2,Yes,11.7,-1,Correct Rejection,0.531745699933,False,True,stimulusTOSY08_2IFCnew_2019_Jul_02_1205_463,stimulusTOSY08_2IFCnew_2019_Jul_02_1205_464,True,2019_Jul_02_1205,2IFCnew,3,TOSY08,
2IFCnew,7,0,7,0,0.334192600101,2,Yes,9.7,-1,Correct Rejection,0.500211500097,False,True,stimulusTOSY08_2IFCnew_2019_Jul_02_1205_465,stimulusTOSY08_2IFCnew_2019_Jul_02_1205_466,True,2019_Jul_02_1205,2IFCnew,3,TOSY08,
2IFCnew,8,0,8,0,0.266047499841,1,No,7.7,-1,Hit,0.600575400051,True,False,stimulusTOSY08_2IFCnew_2019_Jul_02_1205_467,stimulusTOSY08_2IFCnew_2019_Jul_02_1205_468,True,2019_Jul_02_1205,2IFCnew,3,TOSY08,
2IFCnew,9,0,9,0,0.433691499988,5,Yes,6.5,-1,False Alarm,0.634206000017,False,True,stimulusTOSY08_2IFCnew_2019_Jul_02_1205_469,stimulusTOSY08_2IFCnew_2019_Jul_02_1205_470,True,2019_Jul_02_1205,2IFCnew,3,TOSY08,
2IFCnew,10,0,10,0,0.633526900085,5,Yes,7.7,-1,False Alarm,0.434023099951,False,True,stimulusTOSY08_2IFCnew_2019_Jul_02_1205_471,stimulusTOSY08_2IFCnew_2019_Jul_02_1205_472,True,2019_Jul_02_1205,2IFCnew,3,TOSY08,
2IFCnew,11,0,11,0,0.501124199945,2,Yes,4.9,-1,Correct Rejection,0.501243100036,False,True,stimulusTOSY08_2IFCnew_2019_Jul_02_1205_473,stimulusTOSY08_2IFCnew_2019_Jul_02_1205_474,True,2019_Jul_02_1205,2IFCnew,3,TOSY08,
2IFCnew,12,0,12,0,0.531469800044,1,No,7.7,-1,Hit,0.599912600126,True,False,stimulusTOSY08_2IFCnew_2019_Jul_02_1205_475,stimulusTOSY08_2IFCnew_2019_Jul_02_1205_476,True,2019_Jul_02_1205,2IFCnew,3,TOSY08,
2IFCnew,13,0,13,0,0.467965500196,2,Yes,8.7,-1,Correct Rejection,0.535333100008,False,True,stimulusTOSY08_2IFCnew_2019_Jul_02_1205_477,stimulusTOSY08_2IFCnew_2019_Jul_02_1205_478,True,2019_Jul_02_1205,2IFCnew,3,TOSY08,
2IFCnew,14,0,14,0,0.333737700013,1,No,6.5,-1,Hit,0.566370800138,True,False,stimulusTOSY08_2IFCnew_2019_Jul_02_1205_479,stimulusTOSY08_2IFCnew_2019_Jul_02_1205_480,True,2019_Jul_02_1205,2IFCnew,3,TOSY08,
2IFCnew,15,0,15,0,0.233811199898,1,No,10.7,-1,Hit,0.465586300008,True,False,stimulusTOSY08_2IFCnew_2019_Jul_02_1205_481,stimulusTOSY08_2IFCnew_2019_Jul_02_1205_482,True,2019_Jul_02_1205,2IFCnew,3,TOSY08,
2IFCnew,16,0,16,0,0.667883600108,8,No,6.5,-1,Correct Rejection,0.53317239997,False,True,stimulusTOSY08_2IFCnew_2019_Jul_02_1205_483,stimulusTOSY08_2IFCnew_2019_Jul_02_1205_484,True,2019_Jul_02_1205,2IFCnew,3,TOSY08,
2IFCnew,17,0,17,0,0.33592740004,1,No,7.7,-1,Hit,0.500051799929,True,False,stimulusTOSY08_2IFCnew_2019_Jul_02_1205_485,stimulusTOSY08_2IFCnew_2019_Jul_02_1205_486,True,2019_Jul_02_1205,2IFCnew,3,TOSY08,
2IFCnew,18,0,18,0,0.566918400116,6,No,4.9,-1,Miss,0.500779400114,True,False,stimulusTOSY08_2IFCnew_2019_Jul_02_1205_487,stimulusTOSY08_2IFCnew_2019_Jul_02_1205_488,True,2019_Jul_02_1205,2IFCnew,3,TOSY08,
2IFCnew,19,0,19,0,0.299353200011,1,No,6.5,-1,Hit,0.603004200151,True,False,stimulusTOSY08_2IFCnew_2019_Jul_02_1205_489,stimulusTOSY08_2IFCnew_2019_Jul_02_1205_490,True,2019_Jul_02_1205,2IFCnew,3,TOSY08,
2IFCnew,20,0,20,0,0.30091030011,2,Yes,12.9,-1,Correct Rejection,0.53410369996,False,True,stimulusTOSY08_2IFCnew_2019_Jul_02_1205_491,stimulusTOSY08_2IFCnew_2019_Jul_02_1205_492,True,2019_Jul_02_1205,2IFCnew,3,TOSY08,
2IFCnew,21,0,21,0,0.701251699822,6,No,7.7,-1,Miss,0.534132099943,True,False,stimulusTOSY08_2IFCnew_2019_Jul_02_1205_493,stimulusTOSY08_2IFCnew_2019_Jul_02_1205_494,True,2019_Jul_02_1205,2IFCnew,3,TOSY08,
2IFCnew,22,0,22,0,0.333955399925,1,No,11.7,-1,Hit,0.500910399947,True,False,stimulusTOSY08_2IFCnew_2019_Jul_02_1205_495,stimulusTOSY08_2IFCnew_2019_Jul_02_1205_496,True,2019_Jul_02_1205,2IFCnew,3,TOSY08,
2IFCnew,23,0,23,0,0.300499900011,1,No,12.9,-1,Hit,0.500506800134,True,False,stimulusTOSY08_2IFCnew_2019_Jul_02_1205_497,stimulusTOSY08_2IFCnew_2019_Jul_02_1205_498,True,2019_Jul_02_1205,2IFCnew,3,TOSY08,
2IFCnew,24,0,24,0,0.602321299957,5,Yes,12.9,-1,False Alarm,0.76892650011,False,True,stimulusTOSY08_2IFCnew_2019_Jul_02_1205_499,stimulusTOSY08_2IFCnew_2019_Jul_02_1205_500,True,2019_Jul_02_1205,2IFCnew,3,TOSY08,
2IFCnew,25,0,25,0,0.399661100004,2,Yes,7.7,-1,Correct Rejection,0.469282600097,False,True,stimulusTOSY08_2IFCnew_2019_Jul_02_1205_501,stimulusTOSY08_2IFCnew_2019_Jul_02_1205_502,True,2019_Jul_02_1205,2IFCnew,3,TOSY08,
2IFCnew,26,0,26,0,0.533154799836,1,No,11.7,-1,Hit,0.500151899876,True,False,stimulusTOSY08_2IFCnew_2019_Jul_02_1205_503,stimulusTOSY08_2IFCnew_2019_Jul_02_1205_504,True,2019_Jul_02_1205,2IFCnew,3,TOSY08,
2IFCnew,27,0,27,0,0.46813370008,2,Yes,10.7,-1,Correct Rejection,0.567506099818,False,True,stimulusTOSY08_2IFCnew_2019_Jul_02_1205_505,stimulusTOSY08_2IFCnew_2019_Jul_02_1205_506,True,2019_Jul_02_1205,2IFCnew,3,TOSY08,
2IFCnew,28,0,28,0,0.300786100095,2,Yes,8.7,-1,Correct Rejection,0.499919000082,False,True,stimulusTOSY08_2IFCnew_2019_Jul_02_1205_507,stimulusTOSY08_2IFCnew_2019_Jul_02_1205_508,True,2019_Jul_02_1205,2IFCnew,3,TOSY08,
2IFCnew,29,0,29,0,0.434063800145,3,No,10.7,-1,False Alarm,0.434218899813,False,True,stimulusTOSY08_2IFCnew_2019_Jul_02_1205_509,stimulusTOSY08_2IFCnew_2019_Jul_02_1205_510,True,2019_Jul_02_1205,2IFCnew,3,TOSY08,
2IFCnew,30,0,30,0,0.567085399991,6,No,6.5,-1,Miss,0.701014999999,True,False,stimulusTOSY08_2IFCnew_2019_Jul_02_1205_511,stimulusTOSY08_2IFCnew_2019_Jul_02_1205_512,True,2019_Jul_02_1205,2IFCnew,3,TOSY08,
2IFCnew,31,0,31,0,0.29982620012,2,Yes,11.7,-1,Correct Rejection,0.534761900082,False,True,stimulusTOSY08_2IFCnew_2019_Jul_02_1205_513,stimulusTOSY08_2IFCnew_2019_Jul_02_1205_514,True,2019_Jul_02_1205,2IFCnew,3,TOSY08,
2IFCnew,32,0,32,0,0.600977800088,1,No,7.7,-1,Hit,0.63357080007,True,False,stimulusTOSY08_2IFCnew_2019_Jul_02_1205_515,stimulusTOSY08_2IFCnew_2019_Jul_02_1205_516,True,2019_Jul_02_1205,2IFCnew,3,TOSY08,
2IFCnew,33,0,33,0,0.266877499875,2,Yes,12.9,-1,Correct Rejection,0.634633699898,False,True,stimulusTOSY08_2IFCnew_2019_Jul_02_1205_517,stimulusTOSY08_2IFCnew_2019_Jul_02_1205_518,True,2019_Jul_02_1205,2IFCnew,3,TOSY08,
2IFCnew,34,0,34,0,0.233743600082,2,Yes,8.7,-1,Correct Rejection,0.533930999925,False,True,stimulusTOSY08_2IFCnew_2019_Jul_02_1205_519,stimulusTOSY08_2IFCnew_2019_Jul_02_1205_520,True,2019_Jul_02_1205,2IFCnew,3,TOSY08,
2IFCnew,35,0,35,0,0.500653299969,5,Yes,7.7,-1,False Alarm,0.600990600185,False,True,stimulusTOSY08_2IFCnew_2019_Jul_02_1205_521,stimulusTOSY08_2IFCnew_2019_Jul_02_1205_522,True,2019_Jul_02_1205,2IFCnew,3,TOSY08,
2IFCnew,36,0,36,0,0.300224700011,1,No,8.7,-1,Hit,0.534433299908,True,False,stimulusTOSY08_2IFCnew_2019_Jul_02_1205_523,stimulusTOSY08_2IFCnew_2019_Jul_02_1205_524,True,2019_Jul_02_1205,2IFCnew,3,TOSY08,
2IFCnew,37,0,37,0,0.333348800195,1,No,10.7,-1,Hit,0.634491400095,True,False,stimulusTOSY08_2IFCnew_2019_Jul_02_1205_525,stimulusTOSY08_2IFCnew_2019_Jul_02_1205_526,True,2019_Jul_02_1205,2IFCnew,3,TOSY08,
2IFCnew,38,0,38,0,0.300642400049,2,Yes,11.7,-1,Correct Rejection,0.532090400113,False,True,stimulusTOSY08_2IFCnew_2019_Jul_02_1205_527,stimulusTOSY08_2IFCnew_2019_Jul_02_1205_528,True,2019_Jul_02_1205,2IFCnew,3,TOSY08,
2IFCnew,39,0,39,0,0.300681699999,1,No,9.7,-1,Hit,0.433675100096,True,False,stimulusTOSY08_2IFCnew_2019_Jul_02_1205_529,stimulusTOSY08_2IFCnew_2019_Jul_02_1205_530,True,2019_Jul_02_1205,2IFCnew,3,TOSY08,
2IFCnew,40,0,40,0,0.467493799981,5,Yes,10.7,-1,False Alarm,0.433999000117,False,True,stimulusTOSY08_2IFCnew_2019_Jul_02_1205_531,stimulusTOSY08_2IFCnew_2019_Jul_02_1205_532,True,2019_Jul_02_1205,2IFCnew,3,TOSY08,
2IFCnew,41,0,41,0,0.300694700098,1,No,7.7,-1,Hit,0.470528300153,True,False,stimulusTOSY08_2IFCnew_2019_Jul_02_1205_533,stimulusTOSY08_2IFCnew_2019_Jul_02_1205_534,True,2019_Jul_02_1205,2IFCnew,3,TOSY08,
2IFCnew,42,0,42,0,0.401120399823,1,No,4.9,-1,Hit,0.401173599996,True,False,stimulusTOSY08_2IFCnew_2019_Jul_02_1205_535,stimulusTOSY08_2IFCnew_2019_Jul_02_1205_536,True,2019_Jul_02_1205,2IFCnew,3,TOSY08,
2IFCnew,43,0,43,0,0.400464999955,2,Yes,12.9,-1,Correct Rejection,0.700884400168,False,True,stimulusTOSY08_2IFCnew_2019_Jul_02_1205_537,stimulusTOSY08_2IFCnew_2019_Jul_02_1205_538,True,2019_Jul_02_1205,2IFCnew,3,TOSY08,
2IFCnew,44,0,44,0,0.501645999961,2,Yes,8.7,-1,Correct Rejection,0.667396900011,False,True,stimulusTOSY08_2IFCnew_2019_Jul_02_1205_539,stimulusTOSY08_2IFCnew_2019_Jul_02_1205_540,True,2019_Jul_02_1205,2IFCnew,3,TOSY08,
2IFCnew,45,0,45,0,0.23601959995,1,No,10.7,-1,Hit,0.466243299888,True,False,stimulusTOSY08_2IFCnew_2019_Jul_02_1205_541,stimulusTOSY08_2IFCnew_2019_Jul_02_1205_542,True,2019_Jul_02_1205,2IFCnew,3,TOSY08,
2IFCnew,46,0,46,0,0.53411239991,6,No,4.9,-1,Miss,0.566792400088,True,False,stimulusTOSY08_2IFCnew_2019_Jul_02_1205_543,stimulusTOSY08_2IFCnew_2019_Jul_02_1205_544,True,2019_Jul_02_1205,2IFCnew,3,TOSY08,
2IFCnew,47,0,47,0,0.801124199992,4,Yes,7.7,-1,Miss,0.46698840009,True,False,stimulusTOSY08_2IFCnew_2019_Jul_02_1205_545,stimulusTOSY08_2IFCnew_2019_Jul_02_1205_546,True,2019_Jul_02_1205,2IFCnew,3,TOSY08,
2IFCnew,48,0,48,0,0.634310099995,2,Yes,7.7,-1,Correct Rejection,0.601968099829,False,True,stimulusTOSY08_2IFCnew_2019_Jul_02_1205_547,stimulusTOSY08_2IFCnew_2019_Jul_02_1205_548,True,2019_Jul_02_1205,2IFCnew,3,TOSY08,
2IFCnew,49,0,49,0,0.634274200071,5,Yes,11.7,-1,False Alarm,0.534131900175,False,True,stimulusTOSY08_2IFCnew_2019_Jul_02_1205_549,stimulusTOSY08_2IFCnew_2019_Jul_02_1205_550,True,2019_Jul_02_1205,2IFCnew,3,TOSY08,
2IFCnew,50,0,50,0,0.635141500039,5,Yes,7.7,-1,False Alarm,0.667487300001,False,True,stimulusTOSY08_2IFCnew_2019_Jul_02_1205_551,stimulusTOSY08_2IFCnew_2019_Jul_02_1205_552,True,2019_Jul_02_1205,2IFCnew,3,TOSY08,
2IFCnew,51,0,51,0,0.498890199931,2,Yes,7.7,-1,Correct Rejection,0.501245100051,False,True,stimulusTOSY08_2IFCnew_2019_Jul_02_1205_553,stimulusTOSY08_2IFCnew_2019_Jul_02_1205_554,True,2019_Jul_02_1205,2IFCnew,3,TOSY08,
2IFCnew,52,0,52,0,0.300488000037,2,Yes,10.7,-1,Correct Rejection,0.532052800059,False,True,stimulusTOSY08_2IFCnew_2019_Jul_02_1205_555,stimulusTOSY08_2IFCnew_2019_Jul_02_1205_556,True,2019_Jul_02_1205,2IFCnew,3,TOSY08,
2IFCnew,53,0,53,0,0.300231899833,1,No,10.7,-1,Hit,0.53387490008,True,False,stimulusTOSY08_2IFCnew_2019_Jul_02_1205_557,stimulusTOSY08_2IFCnew_2019_Jul_02_1205_558,True,2019_Jul_02_1205,2IFCnew,3,TOSY08,
2IFCnew,54,0,54,0,0.567007699981,2,Yes,4.9,-1,Correct Rejection,0.566985200159,False,True,stimulusTOSY08_2IFCnew_2019_Jul_02_1205_559,stimulusTOSY08_2IFCnew_2019_Jul_02_1205_560,True,2019_Jul_02_1205,2IFCnew,3,TOSY08,
2IFCnew,55,0,55,0,0.568177100038,1,No,4.9,-1,Hit,0.667905899929,True,False,stimulusTOSY08_2IFCnew_2019_Jul_02_1205_561,stimulusTOSY08_2IFCnew_2019_Jul_02_1205_562,True,2019_Jul_02_1205,2IFCnew,3,TOSY08,
2IFCnew,56,0,56,0,0.368325999938,2,Yes,6.5,-1,Correct Rejection,0.568669599947,False,True,stimulusTOSY08_2IFCnew_2019_Jul_02_1205_563,stimulusTOSY08_2IFCnew_2019_Jul_02_1205_564,True,2019_Jul_02_1205,2IFCnew,3,TOSY08,
2IFCnew,57,0,57,0,0.264782200102,2,Yes,9.7,-1,Correct Rejection,0.536135900067,False,True,stimulusTOSY08_2IFCnew_2019_Jul_02_1205_565,stimulusTOSY08_2IFCnew_2019_Jul_02_1205_566,True,2019_Jul_02_1205,2IFCnew,3,TOSY08,
2IFCnew,58,0,58,0,0.534374099923,2,Yes,7.7,-1,Correct Rejection,0.534410899971,False,True,stimulusTOSY08_2IFCnew_2019_Jul_02_1205_567,stimulusTOSY08_2IFCnew_2019_Jul_02_1205_568,True,2019_Jul_02_1205,2IFCnew,3,TOSY08,
2IFCnew,59,0,59,0,0.634338100208,6,No,4.9,-1,Miss,0.533936899854,True,False,stimulusTOSY08_2IFCnew_2019_Jul_02_1205_569,stimulusTOSY08_2IFCnew_2019_Jul_02_1205_570,True,2019_Jul_02_1205,2IFCnew,3,TOSY08,
2IFCnew,60,0,60,0,0.533721900079,8,No,6.5,-1,Correct Rejection,0.500381200109,False,True,stimulusTOSY08_2IFCnew_2019_Jul_02_1205_571,stimulusTOSY08_2IFCnew_2019_Jul_02_1205_572,True,2019_Jul_02_1205,2IFCnew,3,TOSY08,
2IFCnew,61,0,61,0,0.500260599889,4,Yes,10.7,-1,Miss,0.635091400007,True,False,stimulusTOSY08_2IFCnew_2019_Jul_02_1205_573,stimulusTOSY08_2IFCnew_2019_Jul_02_1205_574,True,2019_Jul_02_1205,2IFCnew,3,TOSY08,
2IFCnew,62,0,62,0,0.634156400105,5,Yes,11.7,-1,False Alarm,0.633978999918,False,True,stimulusTOSY08_2IFCnew_2019_Jul_02_1205_575,stimulusTOSY08_2IFCnew_2019_Jul_02_1205_576,True,2019_Jul_02_1205,2IFCnew,3,TOSY08,
2IFCnew,63,0,63,0,0.400433900068,2,Yes,6.5,-1,Correct Rejection,0.568304499844,False,True,stimulusTOSY08_2IFCnew_2019_Jul_02_1205_577,stimulusTOSY08_2IFCnew_2019_Jul_02_1205_578,True,2019_Jul_02_1205,2IFCnew,3,TOSY08,
2IFCnew,64,0,64,0,0.399058199953,2,Yes,8.7,-1,Correct Rejection,0.566147500183,False,True,stimulusTOSY08_2IFCnew_2019_Jul_02_1205_579,stimulusTOSY08_2IFCnew_2019_Jul_02_1205_580,True,2019_Jul_02_1205,2IFCnew,3,TOSY08,
2IFCnew,65,0,65,0,0.367104100063,1,No,4.9,-1,Hit,0.701493799919,True,False,stimulusTOSY08_2IFCnew_2019_Jul_02_1205_581,stimulusTOSY08_2IFCnew_2019_Jul_02_1205_582,True,2019_Jul_02_1205,2IFCnew,3,TOSY08,
2IFCnew,66,0,66,0,0.400387099944,1,No,7.7,-1,Hit,0.601018300047,True,False,stimulusTOSY08_2IFCnew_2019_Jul_02_1205_583,stimulusTOSY08_2IFCnew_2019_Jul_02_1205_584,True,2019_Jul_02_1205,2IFCnew,3,TOSY08,
2IFCnew,67,0,67,0,0.366772699868,2,Yes,10.7,-1,Correct Rejection,0.567241299897,False,True,stimulusTOSY08_2IFCnew_2019_Jul_02_1205_585,stimulusTOSY08_2IFCnew_2019_Jul_02_1205_586,True,2019_Jul_02_1205,2IFCnew,3,TOSY08,
2IFCnew,68,0,68,0,0.334422199987,1,No,9.7,-1,Hit,0.400877599837,True,False,stimulusTOSY08_2IFCnew_2019_Jul_02_1205_587,stimulusTOSY08_2IFCnew_2019_Jul_02_1205_588,True,2019_Jul_02_1205,2IFCnew,3,TOSY08,
2IFCnew,69,0,69,0,0.601144099841,1,No,9.7,-1,Hit,0.569340399932,True,False,stimulusTOSY08_2IFCnew_2019_Jul_02_1205_589,stimulusTOSY08_2IFCnew_2019_Jul_02_1205_590,True,2019_Jul_02_1205,2IFCnew,3,TOSY08,
2IFCnew,70,0,70,0,0.899243399967,1,No,7.7,-1,Hit,0.536207800033,True,False,stimulusTOSY08_2IFCnew_2019_Jul_02_1205_591,stimulusTOSY08_2IFCnew_2019_Jul_02_1205_592,True,2019_Jul_02_1205,2IFCnew,3,TOSY08,
2IFCnew,71,0,71,0,0.504058800172,1,No,8.7,-1,Hit,0.832621900132,True,False,stimulusTOSY08_2IFCnew_2019_Jul_02_1205_593,stimulusTOSY08_2IFCnew_2019_Jul_02_1205_594,True,2019_Jul_02_1205,2IFCnew,3,TOSY08,
2IFCnew,72,0,72,0,0.333876000019,5,Yes,6.5,-1,False Alarm,0.599971499993,False,True,stimulusTOSY08_2IFCnew_2019_Jul_02_1205_595,stimulusTOSY08_2IFCnew_2019_Jul_02_1205_596,True,2019_Jul_02_1205,2IFCnew,3,TOSY08,
2IFCnew,73,0,73,0,0.534334500087,1,No,10.7,-1,Hit,0.60054740007,True,False,stimulusTOSY08_2IFCnew_2019_Jul_02_1205_597,stimulusTOSY08_2IFCnew_2019_Jul_02_1205_598,True,2019_Jul_02_1205,2IFCnew,3,TOSY08,
2IFCnew,74,0,74,0,0.367663800018,1,No,4.9,-1,Hit,0.634373100009,True,False,stimulusTOSY08_2IFCnew_2019_Jul_02_1205_599,stimulusTOSY08_2IFCnew_2019_Jul_02_1205_600,True,2019_Jul_02_1205,2IFCnew,3,TOSY08,
2IFCnew,0,0,0,0,0.469328500098,2,Yes,12.9,-1,Correct Rejection,0.667444100138,False,True,stimulusTOSY08_2IFCnew_2019_Jul_02_1205_601,stimulusTOSY08_2IFCnew_2019_Jul_02_1205_602,True,2019_Jul_02_1205,2IFCnew,3,TOSY08,
2IFCnew,1,0,1,0,0.298459399957,3,No,6.5,-1,False Alarm,0.501158699859,False,True,stimulusTOSY08_2IFCnew_2019_Jul_02_1205_603,stimulusTOSY08_2IFCnew_2019_Jul_02_1205_604,True,2019_Jul_02_1205,2IFCnew,3,TOSY08,
2IFCnew,2,0,2,0,0.233892700169,3,No,11.7,-1,False Alarm,0.434027099982,False,True,stimulusTOSY08_2IFCnew_2019_Jul_02_1205_605,stimulusTOSY08_2IFCnew_2019_Jul_02_1205_606,True,2019_Jul_02_1205,2IFCnew,3,TOSY08,
2IFCnew,3,0,3,0,0.300660100067,1,No,12.9,-1,Hit,0.534180300077,True,False,stimulusTOSY08_2IFCnew_2019_Jul_02_1205_607,stimulusTOSY08_2IFCnew_2019_Jul_02_1205_608,True,2019_Jul_02_1205,2IFCnew,3,TOSY08,
2IFCnew,4,0,4,0,0.434046900133,1,No,4.9,-1,Hit,0.433504099958,True,False,stimulusTOSY08_2IFCnew_2019_Jul_02_1205_609,stimulusTOSY08_2IFCnew_2019_Jul_02_1205_610,True,2019_Jul_02_1205,2IFCnew,3,TOSY08,
2IFCnew,5,0,5,0,0.267358399928,1,No,9.7,-1,Hit,0.367952100001,True,False,stimulusTOSY08_2IFCnew_2019_Jul_02_1205_611,stimulusTOSY08_2IFCnew_2019_Jul_02_1205_612,True,2019_Jul_02_1205,2IFCnew,3,TOSY08,
2IFCnew,6,0,6,0,0.299561599968,5,Yes,8.7,-1,False Alarm,0.43460649997,False,True,stimulusTOSY08_2IFCnew_2019_Jul_02_1205_613,stimulusTOSY08_2IFCnew_2019_Jul_02_1205_614,True,2019_Jul_02_1205,2IFCnew,3,TOSY08,
2IFCnew,7,0,7,0,0.0994220001157,1,No,11.7,-1,Hit,0.367119400064,True,False,stimulusTOSY08_2IFCnew_2019_Jul_02_1205_615,stimulusTOSY08_2IFCnew_2019_Jul_02_1205_616,True,2019_Jul_02_1205,2IFCnew,3,TOSY08,
2IFCnew,8,0,8,0,0.368315200089,2,Yes,12.9,-1,Correct Rejection,0.435417100089,False,True,stimulusTOSY08_2IFCnew_2019_Jul_02_1205_617,stimulusTOSY08_2IFCnew_2019_Jul_02_1205_618,True,2019_Jul_02_1205,2IFCnew,3,TOSY08,
2IFCnew,9,0,9,0,0.532153999899,2,Yes,7.7,-1,Correct Rejection,0.43420730019,False,True,stimulusTOSY08_2IFCnew_2019_Jul_02_1205_619,stimulusTOSY08_2IFCnew_2019_Jul_02_1205_620,True,2019_Jul_02_1205,2IFCnew,3,TOSY08,
2IFCnew,10,0,10,0,0.367558399914,2,Yes,6.5,-1,Correct Rejection,0.568335700082,False,True,stimulusTOSY08_2IFCnew_2019_Jul_02_1205_621,stimulusTOSY08_2IFCnew_2019_Jul_02_1205_622,True,2019_Jul_02_1205,2IFCnew,3,TOSY08,
2IFCnew,11,0,11,0,0.400313599966,2,Yes,10.7,-1,Correct Rejection,0.60044950014,False,True,stimulusTOSY08_2IFCnew_2019_Jul_02_1205_623,stimulusTOSY08_2IFCnew_2019_Jul_02_1205_624,True,2019_Jul_02_1205,2IFCnew,3,TOSY08,
2IFCnew,12,0,12,0,0.333600200014,2,Yes,8.7,-1,Correct Rejection,0.534242100082,False,True,stimulusTOSY08_2IFCnew_2019_Jul_02_1205_625,stimulusTOSY08_2IFCnew_2019_Jul_02_1205_626,True,2019_Jul_02_1205,2IFCnew,3,TOSY08,
2IFCnew,13,0,13,0,0.333332099952,1,No,12.9,-1,Hit,0.535608600127,True,False,stimulusTOSY08_2IFCnew_2019_Jul_02_1205_627,stimulusTOSY08_2IFCnew_2019_Jul_02_1205_628,True,2019_Jul_02_1205,2IFCnew,3,TOSY08,
2IFCnew,14,0,14,0,0.300633999985,2,Yes,12.9,-1,Correct Rejection,0.531621400034,False,True,stimulusTOSY08_2IFCnew_2019_Jul_02_1205_629,stimulusTOSY08_2IFCnew_2019_Jul_02_1205_630,True,2019_Jul_02_1205,2IFCnew,3,TOSY08,
2IFCnew,15,0,15,0,0.435392899904,2,Yes,7.7,-1,Correct Rejection,0.467104299925,False,True,stimulusTOSY08_2IFCnew_2019_Jul_02_1205_631,stimulusTOSY08_2IFCnew_2019_Jul_02_1205_632,True,2019_Jul_02_1205,2IFCnew,3,TOSY08,
2IFCnew,16,0,16,0,0.400882499991,6,No,8.7,-1,Miss,0.633420400089,True,False,stimulusTOSY08_2IFCnew_2019_Jul_02_1205_633,stimulusTOSY08_2IFCnew_2019_Jul_02_1205_634,True,2019_Jul_02_1205,2IFCnew,3,TOSY08,
2IFCnew,17,0,17,0,0.500369200017,8,No,7.7,-1,Correct Rejection,0.466768899933,False,True,stimulusTOSY08_2IFCnew_2019_Jul_02_1205_635,stimulusTOSY08_2IFCnew_2019_Jul_02_1205_636,True,2019_Jul_02_1205,2IFCnew,3,TOSY08,
2IFCnew,18,0,18,0,0.300769800087,2,Yes,9.7,-1,Correct Rejection,0.701741599943,False,True,stimulusTOSY08_2IFCnew_2019_Jul_02_1205_637,stimulusTOSY08_2IFCnew_2019_Jul_02_1205_638,True,2019_Jul_02_1205,2IFCnew,3,TOSY08,
2IFCnew,19,0,19,0,0.734359200113,6,No,8.7,-1,Miss,0.833983200137,True,False,stimulusTOSY08_2IFCnew_2019_Jul_02_1205_639,stimulusTOSY08_2IFCnew_2019_Jul_02_1205_640,True,2019_Jul_02_1205,2IFCnew,3,TOSY08,
2IFCnew,20,0,20,0,0.369732600171,5,Yes,12.9,-1,False Alarm,0.567267799983,False,True,stimulusTOSY08_2IFCnew_2019_Jul_02_1205_641,stimulusTOSY08_2IFCnew_2019_Jul_02_1205_642,True,2019_Jul_02_1205,2IFCnew,3,TOSY08,
2IFCnew,21,0,21,0,0.16861500009,1,No,11.7,-1,Hit,0.599362599896,True,False,stimulusTOSY08_2IFCnew_2019_Jul_02_1205_643,stimulusTOSY08_2IFCnew_2019_Jul_02_1205_644,True,2019_Jul_02_1205,2IFCnew,3,TOSY08,
2IFCnew,22,0,22,0,0.200532800052,1,No,10.7,-1,Hit,0.53535000002,True,False,stimulusTOSY08_2IFCnew_2019_Jul_02_1205_645,stimulusTOSY08_2IFCnew_2019_Jul_02_1205_646,True,2019_Jul_02_1205,2IFCnew,3,TOSY08,
2IFCnew,23,0,23,0,0.266348400153,1,No,11.7,-1,Hit,0.532531199977,True,False,stimulusTOSY08_2IFCnew_2019_Jul_02_1205_647,stimulusTOSY08_2IFCnew_2019_Jul_02_1205_648,True,2019_Jul_02_1205,2IFCnew,3,TOSY08,
2IFCnew,24,0,24,0,0.300929199904,2,Yes,9.7,-1,Correct Rejection,0.669470099965,False,True,stimulusTOSY08_2IFCnew_2019_Jul_02_1205_649,stimulusTOSY08_2IFCnew_2019_Jul_02_1205_650,True,2019_Jul_02_1205,2IFCnew,3,TOSY08,
2IFCnew,25,0,25,0,0.300126700196,2,Yes,8.7,-1,Correct Rejection,0.60094969999,False,True,stimulusTOSY08_2IFCnew_2019_Jul_02_1205_651,stimulusTOSY08_2IFCnew_2019_Jul_02_1205_652,True,2019_Jul_02_1205,2IFCnew,3,TOSY08,
2IFCnew,26,0,26,0,0.533929599915,6,No,4.9,-1,Miss,0.567764599808,True,False,stimulusTOSY08_2IFCnew_2019_Jul_02_1205_653,stimulusTOSY08_2IFCnew_2019_Jul_02_1205_654,True,2019_Jul_02_1205,2IFCnew,3,TOSY08,
2IFCnew,27,0,27,0,0.268133500125,2,Yes,10.7,-1,Correct Rejection,0.568760800175,False,True,stimulusTOSY08_2IFCnew_2019_Jul_02_1205_655,stimulusTOSY08_2IFCnew_2019_Jul_02_1205_656,True,2019_Jul_02_1205,2IFCnew,3,TOSY08,
2IFCnew,28,0,28,0,0.498144099955,2,Yes,10.7,-1,Correct Rejection,0.566823499976,False,True,stimulusTOSY08_2IFCnew_2019_Jul_02_1205_657,stimulusTOSY08_2IFCnew_2019_Jul_02_1205_658,True,2019_Jul_02_1205,2IFCnew,3,TOSY08,
2IFCnew,29,0,29,0,0.401151299942,2,Yes,6.5,-1,Correct Rejection,0.534730900079,False,True,stimulusTOSY08_2IFCnew_2019_Jul_02_1205_659,stimulusTOSY08_2IFCnew_2019_Jul_02_1205_660,True,2019_Jul_02_1205,2IFCnew,3,TOSY08,
2IFCnew,30,0,30,0,0.334529499989,2,Yes,9.7,-1,Correct Rejection,0.600766499992,False,True,stimulusTOSY08_2IFCnew_2019_Jul_02_1205_661,stimulusTOSY08_2IFCnew_2019_Jul_02_1205_662,True,2019_Jul_02_1205,2IFCnew,3,TOSY08,
2IFCnew,31,0,31,0,0.433932400076,4,Yes,8.7,-1,Miss,0.699604200199,True,False,stimulusTOSY08_2IFCnew_2019_Jul_02_1205_663,stimulusTOSY08_2IFCnew_2019_Jul_02_1205_664,True,2019_Jul_02_1205,2IFCnew,3,TOSY08,
2IFCnew,32,0,32,0,0.267454500077,1,No,7.7,-1,Hit,0.433876499999,True,False,stimulusTOSY08_2IFCnew_2019_Jul_02_1205_665,stimulusTOSY08_2IFCnew_2019_Jul_02_1205_666,True,2019_Jul_02_1205,2IFCnew,3,TOSY08,
2IFCnew,33,0,33,0,0.367643099977,1,No,8.7,-1,Hit,0.600490800105,True,False,stimulusTOSY08_2IFCnew_2019_Jul_02_1205_667,stimulusTOSY08_2IFCnew_2019_Jul_02_1205_668,True,2019_Jul_02_1205,2IFCnew,3,TOSY08,
2IFCnew,34,0,34,0,0.53456020006,6,No,10.7,-1,Miss,0.500652799848,True,False,stimulusTOSY08_2IFCnew_2019_Jul_02_1205_669,stimulusTOSY08_2IFCnew_2019_Jul_02_1205_670,True,2019_Jul_02_1205,2IFCnew,3,TOSY08,
2IFCnew,35,0,35,0,0.600820399821,1,No,6.5,-1,Hit,0.531656000065,True,False,stimulusTOSY08_2IFCnew_2019_Jul_02_1205_671,stimulusTOSY08_2IFCnew_2019_Jul_02_1205_672,True,2019_Jul_02_1205,2IFCnew,3,TOSY08,
2IFCnew,36,0,36,0,0.233202999923,2,Yes,9.7,-1,Correct Rejection,0.569433300057,False,True,stimulusTOSY08_2IFCnew_2019_Jul_02_1205_673,stimulusTOSY08_2IFCnew_2019_Jul_02_1205_674,True,2019_Jul_02_1205,2IFCnew,3,TOSY08,
2IFCnew,37,0,37,0,0.534022099804,2,Yes,6.5,-1,Correct Rejection,0.667591399979,False,True,stimulusTOSY08_2IFCnew_2019_Jul_02_1205_675,stimulusTOSY08_2IFCnew_2019_Jul_02_1205_676,True,2019_Jul_02_1205,2IFCnew,3,TOSY08,
2IFCnew,38,0,38,0,0.499768000096,3,No,6.5,-1,False Alarm,0.6344637,False,True,stimulusTOSY08_2IFCnew_2019_Jul_02_1205_677,stimulusTOSY08_2IFCnew_2019_Jul_02_1205_678,True,2019_Jul_02_1205,2IFCnew,3,TOSY08,
2IFCnew,39,0,39,0,0.500333799981,6,No,12.9,-1,Miss,0.467857299838,True,False,stimulusTOSY08_2IFCnew_2019_Jul_02_1205_679,stimulusTOSY08_2IFCnew_2019_Jul_02_1205_680,True,2019_Jul_02_1205,2IFCnew,3,TOSY08,
2IFCnew,40,0,40,0,0.267879100051,1,No,12.9,-1,Hit,0.467781899963,True,False,stimulusTOSY08_2IFCnew_2019_Jul_02_1205_681,stimulusTOSY08_2IFCnew_2019_Jul_02_1205_682,True,2019_Jul_02_1205,2IFCnew,3,TOSY08,
2IFCnew,41,0,41,0,0.26709400001,1,No,9.7,-1,Hit,0.501084499992,True,False,stimulusTOSY08_2IFCnew_2019_Jul_02_1205_683,stimulusTOSY08_2IFCnew_2019_Jul_02_1205_684,True,2019_Jul_02_1205,2IFCnew,3,TOSY08,
2IFCnew,42,0,42,0,0.234275300056,1,No,12.9,-1,Hit,0.401392300148,True,False,stimulusTOSY08_2IFCnew_2019_Jul_02_1205_685,stimulusTOSY08_2IFCnew_2019_Jul_02_1205_686,True,2019_Jul_02_1205,2IFCnew,3,TOSY08,
2IFCnew,43,0,43,0,0.366934600053,1,No,7.7,-1,Hit,0.400657899911,True,False,stimulusTOSY08_2IFCnew_2019_Jul_02_1205_687,stimulusTOSY08_2IFCnew_2019_Jul_02_1205_688,True,2019_Jul_02_1205,2IFCnew,3,TOSY08,
2IFCnew,44,0,44,0,0.266948400065,1,No,11.7,-1,Hit,0.497862100136,True,False,stimulusTOSY08_2IFCnew_2019_Jul_02_1205_689,stimulusTOSY08_2IFCnew_2019_Jul_02_1205_690,True,2019_Jul_02_1205,2IFCnew,3,TOSY08,
2IFCnew,45,0,45,0,0.233155600028,1,No,9.7,-1,Hit,0.567240999779,True,False,stimulusTOSY08_2IFCnew_2019_Jul_02_1205_691,stimulusTOSY08_2IFCnew_2019_Jul_02_1205_692,True,2019_Jul_02_1205,2IFCnew,3,TOSY08,
2IFCnew,46,0,46,0,0.166755199898,6,No,11.7,-1,Miss,0.533880000003,True,False,stimulusTOSY08_2IFCnew_2019_Jul_02_1205_693,stimulusTOSY08_2IFCnew_2019_Jul_02_1205_694,True,2019_Jul_02_1205,2IFCnew,3,TOSY08,
2IFCnew,47,0,47,0,0.299916800112,1,No,12.9,-1,Hit,0.367015899858,True,False,stimulusTOSY08_2IFCnew_2019_Jul_02_1205_695,stimulusTOSY08_2IFCnew_2019_Jul_02_1205_696,True,2019_Jul_02_1205,2IFCnew,3,TOSY08,
2IFCnew,48,0,48,0,0.369693200104,2,Yes,12.9,-1,Correct Rejection,0.60087840003,False,True,stimulusTOSY08_2IFCnew_2019_Jul_02_1205_697,stimulusTOSY08_2IFCnew_2019_Jul_02_1205_698,True,2019_Jul_02_1205,2IFCnew,3,TOSY08,
2IFCnew,49,0,49,0,0.334161299979,2,Yes,8.7,-1,Correct Rejection,0.567543699872,False,True,stimulusTOSY08_2IFCnew_2019_Jul_02_1205_699,stimulusTOSY08_2IFCnew_2019_Jul_02_1205_700,True,2019_Jul_02_1205,2IFCnew,3,TOSY08,
2IFCnew,50,0,50,0,0.367955500027,2,Yes,12.9,-1,Correct Rejection,0.501613099826,False,True,stimulusTOSY08_2IFCnew_2019_Jul_02_1205_701,stimulusTOSY08_2IFCnew_2019_Jul_02_1205_702,True,2019_Jul_02_1205,2IFCnew,3,TOSY08,
2IFCnew,51,0,51,0,0.332954399986,2,Yes,10.7,-1,Correct Rejection,0.500580299878,False,True,stimulusTOSY08_2IFCnew_2019_Jul_02_1205_703,stimulusTOSY08_2IFCnew_2019_Jul_02_1205_704,True,2019_Jul_02_1205,2IFCnew,3,TOSY08,
2IFCnew,52,0,52,0,0.267236199928,1,No,8.7,-1,Hit,0.501682099886,True,False,stimulusTOSY08_2IFCnew_2019_Jul_02_1205_705,stimulusTOSY08_2IFCnew_2019_Jul_02_1205_706,True,2019_Jul_02_1205,2IFCnew,3,TOSY08,
2IFCnew,53,0,53,0,0.30043380009,1,No,8.7,-1,Hit,0.467695799889,True,False,stimulusTOSY08_2IFCnew_2019_Jul_02_1205_707,stimulusTOSY08_2IFCnew_2019_Jul_02_1205_708,True,2019_Jul_02_1205,2IFCnew,3,TOSY08,
2IFCnew,54,0,54,0,0.36861980008,1,No,12.9,-1,Hit,0.500924400054,True,False,stimulusTOSY08_2IFCnew_2019_Jul_02_1205_709,stimulusTOSY08_2IFCnew_2019_Jul_02_1205_710,True,2019_Jul_02_1205,2IFCnew,3,TOSY08,
2IFCnew,55,0,55,0,0.466900700005,7,Yes,6.5,-1,Hit,0.534426700091,True,False,stimulusTOSY08_2IFCnew_2019_Jul_02_1205_711,stimulusTOSY08_2IFCnew_2019_Jul_02_1205_712,True,2019_Jul_02_1205,2IFCnew,3,TOSY08,
2IFCnew,56,0,56,0,0.16675990005,7,Yes,9.7,-1,Hit,0.33384210011,True,False,stimulusTOSY08_2IFCnew_2019_Jul_02_1205_713,stimulusTOSY08_2IFCnew_2019_Jul_02_1205_714,True,2019_Jul_02_1205,2IFCnew,3,TOSY08,
2IFCnew,57,0,57,0,0.167096000165,2,Yes,6.5,-1,Correct Rejection,0.500552800018,False,True,stimulusTOSY08_2IFCnew_2019_Jul_02_1205_715,stimulusTOSY08_2IFCnew_2019_Jul_02_1205_716,True,2019_Jul_02_1205,2IFCnew,3,TOSY08,
2IFCnew,58,0,58,0,0.266526299994,5,Yes,4.9,-1,False Alarm,0.368370600045,False,True,stimulusTOSY08_2IFCnew_2019_Jul_02_1205_717,stimulusTOSY08_2IFCnew_2019_Jul_02_1205_718,True,2019_Jul_02_1205,2IFCnew,3,TOSY08,
2IFCnew,59,0,59,0,0.433610799955,6,No,9.7,-1,Miss,0.467822799925,True,False,stimulusTOSY08_2IFCnew_2019_Jul_02_1205_719,stimulusTOSY08_2IFCnew_2019_Jul_02_1205_720,True,2019_Jul_02_1205,2IFCnew,3,TOSY08,
2IFCnew,60,0,60,0,0.26598240016,2,Yes,8.7,-1,Correct Rejection,0.467528699897,False,True,stimulusTOSY08_2IFCnew_2019_Jul_02_1205_721,stimulusTOSY08_2IFCnew_2019_Jul_02_1205_722,True,2019_Jul_02_1205,2IFCnew,3,TOSY08,
2IFCnew,61,0,61,0,0.233440699987,1,No,11.7,-1,Hit,0.467207300011,True,False,stimulusTOSY08_2IFCnew_2019_Jul_02_1205_723,stimulusTOSY08_2IFCnew_2019_Jul_02_1205_724,True,2019_Jul_02_1205,2IFCnew,3,TOSY08,
2IFCnew,62,0,62,0,0.367142200004,2,Yes,12.9,-1,Correct Rejection,0.468316099839,False,True,stimulusTOSY08_2IFCnew_2019_Jul_02_1205_725,stimulusTOSY08_2IFCnew_2019_Jul_02_1205_726,True,2019_Jul_02_1205,2IFCnew,3,TOSY08,
2IFCnew,63,0,63,0,0.367594300071,2,Yes,7.7,-1,Correct Rejection,0.567408300005,False,True,stimulusTOSY08_2IFCnew_2019_Jul_02_1205_727,stimulusTOSY08_2IFCnew_2019_Jul_02_1205_728,True,2019_Jul_02_1205,2IFCnew,3,TOSY08,
2IFCnew,64,0,64,0,0.500425799983,6,No,4.9,-1,Miss,0.634130900027,True,False,stimulusTOSY08_2IFCnew_2019_Jul_02_1205_729,stimulusTOSY08_2IFCnew_2019_Jul_02_1205_730,True,2019_Jul_02_1205,2IFCnew,3,TOSY08,
2IFCnew,65,0,65,0,0.366346899886,2,Yes,8.7,-1,Correct Rejection,0.533657700056,False,True,stimulusTOSY08_2IFCnew_2019_Jul_02_1205_731,stimulusTOSY08_2IFCnew_2019_Jul_02_1205_732,True,2019_Jul_02_1205,2IFCnew,3,TOSY08,
2IFCnew,66,0,66,0,0.366205699975,2,Yes,6.5,-1,Correct Rejection,0.601107900031,False,True,stimulusTOSY08_2IFCnew_2019_Jul_02_1205_733,stimulusTOSY08_2IFCnew_2019_Jul_02_1205_734,True,2019_Jul_02_1205,2IFCnew,3,TOSY08,
2IFCnew,67,0,67,0,0.333803500049,1,No,12.9,-1,Hit,0.567467699992,True,False,stimulusTOSY08_2IFCnew_2019_Jul_02_1205_735,stimulusTOSY08_2IFCnew_2019_Jul_02_1205_736,True,2019_Jul_02_1205,2IFCnew,3,TOSY08,
2IFCnew,68,0,68,0,0.235314900056,1,No,12.9,-1,Hit,0.535297299968,True,False,stimulusTOSY08_2IFCnew_2019_Jul_02_1205_737,stimulusTOSY08_2IFCnew_2019_Jul_02_1205_738,True,2019_Jul_02_1205,2IFCnew,3,TOSY08,
2IFCnew,69,0,69,0,0.367654500064,6,No,9.7,-1,Miss,0.568050800124,True,False,stimulusTOSY08_2IFCnew_2019_Jul_02_1205_739,stimulusTOSY08_2IFCnew_2019_Jul_02_1205_740,True,2019_Jul_02_1205,2IFCnew,3,TOSY08,
2IFCnew,70,0,70,0,0.266802800121,1,No,9.7,-1,Hit,0.53384170006,True,False,stimulusTOSY08_2IFCnew_2019_Jul_02_1205_741,stimulusTOSY08_2IFCnew_2019_Jul_02_1205_742,True,2019_Jul_02_1205,2IFCnew,3,TOSY08,
2IFCnew,71,0,71,0,0.6338347001,8,No,12.9,-1,Correct Rejection,0.533542700112,False,True,stimulusTOSY08_2IFCnew_2019_Jul_02_1205_743,stimulusTOSY08_2IFCnew_2019_Jul_02_1205_744,True,2019_Jul_02_1205,2IFCnew,3,TOSY08,
2IFCnew,72,0,72,0,0.366843900178,1,No,11.7,-1,Hit,0.60080070002,True,False,stimulusTOSY08_2IFCnew_2019_Jul_02_1205_745,stimulusTOSY08_2IFCnew_2019_Jul_02_1205_746,True,2019_Jul_02_1205,2IFCnew,3,TOSY08,
2IFCnew,73,0,73,0,0.333671400091,2,Yes,6.5,-1,Correct Rejection,0.734253200004,False,True,stimulusTOSY08_2IFCnew_2019_Jul_02_1205_747,stimulusTOSY08_2IFCnew_2019_Jul_02_1205_748,True,2019_Jul_02_1205,2IFCnew,3,TOSY08,
2IFCnew,74,0,74,0,0.333589899819,2,Yes,10.7,-1,Correct Rejection,0.502142100129,False,True,stimulusTOSY08_2IFCnew_2019_Jul_02_1205_749,stimulusTOSY08_2IFCnew_2019_Jul_02_1205_750,True,2019_Jul_02_1205,2IFCnew,3,TOSY08,
2IFCnew,0,0,0,0,0.333193199942,1,No,11.7,-1,Hit,0.668504300062,True,False,stimulusTOSY08_2IFCnew_2019_Jul_02_1205_751,stimulusTOSY08_2IFCnew_2019_Jul_02_1205_752,True,2019_Jul_02_1205,2IFCnew,3,TOSY08,
2IFCnew,1,0,1,0,0.500854999991,1,No,4.9,-1,Hit,0.536684700055,True,False,stimulusTOSY08_2IFCnew_2019_Jul_02_1205_753,stimulusTOSY08_2IFCnew_2019_Jul_02_1205_754,True,2019_Jul_02_1205,2IFCnew,3,TOSY08,
2IFCnew,2,0,2,0,0.300720299827,2,Yes,9.7,-1,Correct Rejection,0.567360599991,False,True,stimulusTOSY08_2IFCnew_2019_Jul_02_1205_755,stimulusTOSY08_2IFCnew_2019_Jul_02_1205_756,True,2019_Jul_02_1205,2IFCnew,3,TOSY08,
2IFCnew,3,0,3,0,0.266439100029,1,No,12.9,-1,Hit,0.367548700189,True,False,stimulusTOSY08_2IFCnew_2019_Jul_02_1205_757,stimulusTOSY08_2IFCnew_2019_Jul_02_1205_758,True,2019_Jul_02_1205,2IFCnew,3,TOSY08,
2IFCnew,4,0,4,0,0.434590700082,5,Yes,12.9,-1,False Alarm,0.46786409989,False,True,stimulusTOSY08_2IFCnew_2019_Jul_02_1205_759,stimulusTOSY08_2IFCnew_2019_Jul_02_1205_760,True,2019_Jul_02_1205,2IFCnew,3,TOSY08,
2IFCnew,5,0,5,0,0.734918199945,1,No,4.9,-1,Hit,0.434191399952,True,False,stimulusTOSY08_2IFCnew_2019_Jul_02_1205_761,stimulusTOSY08_2IFCnew_2019_Jul_02_1205_762,True,2019_Jul_02_1205,2IFCnew,3,TOSY08,
2IFCnew,6,0,6,0,0.434134900104,2,Yes,7.7,-1,Correct Rejection,0.566359500168,False,True,stimulusTOSY08_2IFCnew_2019_Jul_02_1205_763,stimulusTOSY08_2IFCnew_2019_Jul_02_1205_764,True,2019_Jul_02_1205,2IFCnew,3,TOSY08,
2IFCnew,7,0,7,0,0.268929600017,1,No,7.7,-1,Hit,0.567258900031,True,False,stimulusTOSY08_2IFCnew_2019_Jul_02_1205_765,stimulusTOSY08_2IFCnew_2019_Jul_02_1205_766,True,2019_Jul_02_1205,2IFCnew,3,TOSY08,
2IFCnew,8,0,8,0,0.301507099997,2,Yes,11.7,-1,Correct Rejection,0.600644800114,False,True,stimulusTOSY08_2IFCnew_2019_Jul_02_1205_767,stimulusTOSY08_2IFCnew_2019_Jul_02_1205_768,True,2019_Jul_02_1205,2IFCnew,3,TOSY08,
2IFCnew,9,0,9,0,0.267478999915,1,No,10.7,-1,Hit,0.500178799964,True,False,stimulusTOSY08_2IFCnew_2019_Jul_02_1205_769,stimulusTOSY08_2IFCnew_2019_Jul_02_1205_770,True,2019_Jul_02_1205,2IFCnew,3,TOSY08,
2IFCnew,10,0,10,0,0.30065949983,1,No,7.7,-1,Hit,0.567715700017,True,False,stimulusTOSY08_2IFCnew_2019_Jul_02_1205_771,stimulusTOSY08_2IFCnew_2019_Jul_02_1205_772,True,2019_Jul_02_1205,2IFCnew,3,TOSY08,
2IFCnew,11,0,11,0,0.400231299922,6,No,9.7,-1,Miss,0.500488399994,True,False,stimulusTOSY08_2IFCnew_2019_Jul_02_1205_773,stimulusTOSY08_2IFCnew_2019_Jul_02_1205_774,True,2019_Jul_02_1205,2IFCnew,3,TOSY08,
2IFCnew,12,0,12,0,0.30073090014,2,Yes,11.7,-1,Correct Rejection,0.501364700031,False,True,stimulusTOSY08_2IFCnew_2019_Jul_02_1205_775,stimulusTOSY08_2IFCnew_2019_Jul_02_1205_776,True,2019_Jul_02_1205,2IFCnew,3,TOSY08,
2IFCnew,13,0,13,0,0.369066999992,2,Yes,10.7,-1,Correct Rejection,0.467358299997,False,True,stimulusTOSY08_2IFCnew_2019_Jul_02_1205_777,stimulusTOSY08_2IFCnew_2019_Jul_02_1205_778,True,2019_Jul_02_1205,2IFCnew,3,TOSY08,
2IFCnew,14,0,14,0,0.300700000022,1,No,12.9,-1,Hit,0.566394299967,True,False,stimulusTOSY08_2IFCnew_2019_Jul_02_1205_779,stimulusTOSY08_2IFCnew_2019_Jul_02_1205_780,True,2019_Jul_02_1205,2IFCnew,3,TOSY08,
2IFCnew,15,0,15,0,0.26831059996,1,No,10.7,-1,Hit,0.536091199843,True,False,stimulusTOSY08_2IFCnew_2019_Jul_02_1205_781,stimulusTOSY08_2IFCnew_2019_Jul_02_1205_782,True,2019_Jul_02_1205,2IFCnew,3,TOSY08,
2IFCnew,16,0,16,0,0.46723599988,6,No,9.7,-1,Miss,0.600388300139,True,False,stimulusTOSY08_2IFCnew_2019_Jul_02_1205_783,stimulusTOSY08_2IFCnew_2019_Jul_02_1205_784,True,2019_Jul_02_1205,2IFCnew,3,TOSY08,
2IFCnew,17,0,17,0,0.333837399958,1,No,7.7,-1,Hit,0.634489600081,True,False,stimulusTOSY08_2IFCnew_2019_Jul_02_1205_785,stimulusTOSY08_2IFCnew_2019_Jul_02_1205_786,True,2019_Jul_02_1205,2IFCnew,3,TOSY08,
2IFCnew,18,0,18,0,0.367470700061,1,No,11.7,-1,Hit,0.600125700003,True,False,stimulusTOSY08_2IFCnew_2019_Jul_02_1205_787,stimulusTOSY08_2IFCnew_2019_Jul_02_1205_788,True,2019_Jul_02_1205,2IFCnew,3,TOSY08,
2IFCnew,19,0,19,0,0.266816599993,2,Yes,11.7,-1,Correct Rejection,0.567376600113,False,True,stimulusTOSY08_2IFCnew_2019_Jul_02_1205_789,stimulusTOSY08_2IFCnew_2019_Jul_02_1205_790,True,2019_Jul_02_1205,2IFCnew,3,TOSY08,
2IFCnew,20,0,20,0,0.267830000026,1,No,6.5,-1,Hit,0.434135900112,True,False,stimulusTOSY08_2IFCnew_2019_Jul_02_1205_791,stimulusTOSY08_2IFCnew_2019_Jul_02_1205_792,True,2019_Jul_02_1205,2IFCnew,3,TOSY08,
2IFCnew,21,0,21,0,0.333576299949,2,Yes,9.7,-1,Correct Rejection,0.567631599959,False,True,stimulusTOSY08_2IFCnew_2019_Jul_02_1205_793,stimulusTOSY08_2IFCnew_2019_Jul_02_1205_794,True,2019_Jul_02_1205,2IFCnew,3,TOSY08,
2IFCnew,22,0,22,0,0.29973790003,2,Yes,11.7,-1,Correct Rejection,0.600718799978,False,True,stimulusTOSY08_2IFCnew_2019_Jul_02_1205_795,stimulusTOSY08_2IFCnew_2019_Jul_02_1205_796,True,2019_Jul_02_1205,2IFCnew,3,TOSY08,
2IFCnew,23,0,23,0,0.333172899904,1,No,11.7,-1,Hit,0.601326900069,True,False,stimulusTOSY08_2IFCnew_2019_Jul_02_1205_797,stimulusTOSY08_2IFCnew_2019_Jul_02_1205_798,True,2019_Jul_02_1205,2IFCnew,3,TOSY08,
2IFCnew,24,0,24,0,0.500190099934,8,No,10.7,-1,Correct Rejection,0.533465699991,False,True,stimulusTOSY08_2IFCnew_2019_Jul_02_1205_799,stimulusTOSY08_2IFCnew_2019_Jul_02_1205_800,True,2019_Jul_02_1205,2IFCnew,3,TOSY08,
2IFCnew,25,0,25,0,0.267557000043,2,Yes,8.7,-1,Correct Rejection,0.400724699954,False,True,stimulusTOSY08_2IFCnew_2019_Jul_02_1205_801,stimulusTOSY08_2IFCnew_2019_Jul_02_1205_802,True,2019_Jul_02_1205,2IFCnew,3,TOSY08,
2IFCnew,26,0,26,0,0.266642500181,2,Yes,10.7,-1,Correct Rejection,0.500586899929,False,True,stimulusTOSY08_2IFCnew_2019_Jul_02_1205_803,stimulusTOSY08_2IFCnew_2019_Jul_02_1205_804,True,2019_Jul_02_1205,2IFCnew,3,TOSY08,
2IFCnew,27,0,27,0,0.333994499873,1,No,12.9,-1,Hit,0.534172900021,True,False,stimulusTOSY08_2IFCnew_2019_Jul_02_1205_805,stimulusTOSY08_2IFCnew_2019_Jul_02_1205_806,True,2019_Jul_02_1205,2IFCnew,3,TOSY08,
2IFCnew,28,0,28,0,0.400547900004,1,No,6.5,-1,Hit,0.568768600002,True,False,stimulusTOSY08_2IFCnew_2019_Jul_02_1205_807,stimulusTOSY08_2IFCnew_2019_Jul_02_1205_808,True,2019_Jul_02_1205,2IFCnew,3,TOSY08,
2IFCnew,29,0,29,0,0.333611299982,2,Yes,11.7,-1,Correct Rejection,0.4664677002,False,True,stimulusTOSY08_2IFCnew_2019_Jul_02_1205_809,stimulusTOSY08_2IFCnew_2019_Jul_02_1205_810,True,2019_Jul_02_1205,2IFCnew,3,TOSY08,
2IFCnew,30,0,30,0,0.433074500179,1,No,10.7,-1,Hit,0.567657000152,True,False,stimulusTOSY08_2IFCnew_2019_Jul_02_1205_811,stimulusTOSY08_2IFCnew_2019_Jul_02_1205_812,True,2019_Jul_02_1205,2IFCnew,3,TOSY08,
2IFCnew,31,0,31,0,0.467849000124,2,Yes,9.7,-1,Correct Rejection,0.467300600139,False,True,stimulusTOSY08_2IFCnew_2019_Jul_02_1205_813,stimulusTOSY08_2IFCnew_2019_Jul_02_1205_814,True,2019_Jul_02_1205,2IFCnew,3,TOSY08,
2IFCnew,32,0,32,0,0.30115720001,2,Yes,9.7,-1,Correct Rejection,0.467959800037,False,True,stimulusTOSY08_2IFCnew_2019_Jul_02_1205_815,stimulusTOSY08_2IFCnew_2019_Jul_02_1205_816,True,2019_Jul_02_1205,2IFCnew,3,TOSY08,
2IFCnew,33,0,33,0,0.500112199923,1,No,7.7,-1,Hit,0.500864600064,True,False,stimulusTOSY08_2IFCnew_2019_Jul_02_1205_817,stimulusTOSY08_2IFCnew_2019_Jul_02_1205_818,True,2019_Jul_02_1205,2IFCnew,3,TOSY08,
2IFCnew,34,0,34,0,0.367123400094,2,Yes,10.7,-1,Correct Rejection,0.566577300197,False,True,stimulusTOSY08_2IFCnew_2019_Jul_02_1205_819,stimulusTOSY08_2IFCnew_2019_Jul_02_1205_820,True,2019_Jul_02_1205,2IFCnew,3,TOSY08,
2IFCnew,35,0,35,0,0.500618600054,3,No,11.7,-1,False Alarm,0.635518699884,False,True,stimulusTOSY08_2IFCnew_2019_Jul_02_1205_821,stimulusTOSY08_2IFCnew_2019_Jul_02_1205_822,True,2019_Jul_02_1205,2IFCnew,3,TOSY08,
2IFCnew,36,0,36,0,0.43335549999,2,Yes,11.7,-1,Correct Rejection,0.467339799972,False,True,stimulusTOSY08_2IFCnew_2019_Jul_02_1205_823,stimulusTOSY08_2IFCnew_2019_Jul_02_1205_824,True,2019_Jul_02_1205,2IFCnew,3,TOSY08,
2IFCnew,37,0,37,0,0.534551499877,5,Yes,10.7,-1,False Alarm,0.40040319995,False,True,stimulusTOSY08_2IFCnew_2019_Jul_02_1205_825,stimulusTOSY08_2IFCnew_2019_Jul_02_1205_826,True,2019_Jul_02_1205,2IFCnew,3,TOSY08,
2IFCnew,38,0,38,0,0.700056700036,4,Yes,4.9,-1,Miss,0.466737899929,True,False,stimulusTOSY08_2IFCnew_2019_Jul_02_1205_827,stimulusTOSY08_2IFCnew_2019_Jul_02_1205_828,True,2019_Jul_02_1205,2IFCnew,3,TOSY08,
2IFCnew,39,0,39,0,0.300186900189,5,Yes,8.7,-1,False Alarm,0.432254899992,False,True,stimulusTOSY08_2IFCnew_2019_Jul_02_1205_829,stimulusTOSY08_2IFCnew_2019_Jul_02_1205_830,True,2019_Jul_02_1205,2IFCnew,3,TOSY08,
2IFCnew,40,0,40,0,0.467102000024,2,Yes,8.7,-1,Correct Rejection,0.568561200052,False,True,stimulusTOSY08_2IFCnew_2019_Jul_02_1205_831,stimulusTOSY08_2IFCnew_2019_Jul_02_1205_832,True,2019_Jul_02_1205,2IFCnew,3,TOSY08,
2IFCnew,41,0,41,0,0.366734900046,4,Yes,4.9,-1,Miss,0.56915139989,True,False,stimulusTOSY08_2IFCnew_2019_Jul_02_1205_833,stimulusTOSY08_2IFCnew_2019_Jul_02_1205_834,True,2019_Jul_02_1205,2IFCnew,3,TOSY08,
2IFCnew,42,0,42,0,0.367320499849,1,No,10.7,-1,Hit,0.434383899905,True,False,stimulusTOSY08_2IFCnew_2019_Jul_02_1205_835,stimulusTOSY08_2IFCnew_2019_Jul_02_1205_836,True,2019_Jul_02_1205,2IFCnew,3,TOSY08,
2IFCnew,43,0,43,0,0.435038600117,2,Yes,8.7,-1,Correct Rejection,0.500690600136,False,True,stimulusTOSY08_2IFCnew_2019_Jul_02_1205_837,stimulusTOSY08_2IFCnew_2019_Jul_02_1205_838,True,2019_Jul_02_1205,2IFCnew,3,TOSY08,
2IFCnew,44,0,44,0,0.533915099921,1,No,6.5,-1,Hit,0.501315200003,True,False,stimulusTOSY08_2IFCnew_2019_Jul_02_1205_839,stimulusTOSY08_2IFCnew_2019_Jul_02_1205_840,True,2019_Jul_02_1205,2IFCnew,3,TOSY08,
2IFCnew,45,0,45,0,0.367101300042,2,Yes,9.7,-1,Correct Rejection,0.467586500105,False,True,stimulusTOSY08_2IFCnew_2019_Jul_02_1205_841,stimulusTOSY08_2IFCnew_2019_Jul_02_1205_842,True,2019_Jul_02_1205,2IFCnew,3,TOSY08,
2IFCnew,46,0,46,0,0.434691399802,1,No,11.7,-1,Hit,0.568364999956,True,False,stimulusTOSY08_2IFCnew_2019_Jul_02_1205_843,stimulusTOSY08_2IFCnew_2019_Jul_02_1205_844,True,2019_Jul_02_1205,2IFCnew,3,TOSY08,
2IFCnew,47,0,47,0,0.46719370014,3,No,4.9,-1,False Alarm,0.500327700051,False,True,stimulusTOSY08_2IFCnew_2019_Jul_02_1205_845,stimulusTOSY08_2IFCnew_2019_Jul_02_1205_846,True,2019_Jul_02_1205,2IFCnew,3,TOSY08,
2IFCnew,48,0,48,0,0.66756099998,1,No,4.9,-1,Hit,0.534925200045,True,False,stimulusTOSY08_2IFCnew_2019_Jul_02_1205_847,stimulusTOSY08_2IFCnew_2019_Jul_02_1205_848,True,2019_Jul_02_1205,2IFCnew,3,TOSY08,
2IFCnew,49,0,49,0,0.333209100179,2,Yes,7.7,-1,Correct Rejection,0.60036469996,False,True,stimulusTOSY08_2IFCnew_2019_Jul_02_1205_849,stimulusTOSY08_2IFCnew_2019_Jul_02_1205_850,True,2019_Jul_02_1205,2IFCnew,3,TOSY08,
2IFCnew,50,0,50,0,0.400532700121,1,No,11.7,-1,Hit,0.500975399977,True,False,stimulusTOSY08_2IFCnew_2019_Jul_02_1205_851,stimulusTOSY08_2IFCnew_2019_Jul_02_1205_852,True,2019_Jul_02_1205,2IFCnew,3,TOSY08,
2IFCnew,51,0,51,0,0.367591500049,5,Yes,9.7,-1,False Alarm,0.533772400115,False,True,stimulusTOSY08_2IFCnew_2019_Jul_02_1205_853,stimulusTOSY08_2IFCnew_2019_Jul_02_1205_854,True,2019_Jul_02_1205,2IFCnew,3,TOSY08,
2IFCnew,52,0,52,0,0.266678299988,2,Yes,7.7,-1,Correct Rejection,0.367483900161,False,True,stimulusTOSY08_2IFCnew_2019_Jul_02_1205_855,stimulusTOSY08_2IFCnew_2019_Jul_02_1205_856,True,2019_Jul_02_1205,2IFCnew,3,TOSY08,
2IFCnew,53,0,53,0,0.466907200171,8,No,11.7,-1,Correct Rejection,0.434660799801,False,True,stimulusTOSY08_2IFCnew_2019_Jul_02_1205_857,stimulusTOSY08_2IFCnew_2019_Jul_02_1205_858,True,2019_Jul_02_1205,2IFCnew,3,TOSY08,
2IFCnew,54,0,54,0,0.40050019999,4,Yes,9.7,-1,Miss,0.434407199966,True,False,stimulusTOSY08_2IFCnew_2019_Jul_02_1205_859,stimulusTOSY08_2IFCnew_2019_Jul_02_1205_860,True,2019_Jul_02_1205,2IFCnew,3,TOSY08,
2IFCnew,55,0,55,0,0.432228699792,7,Yes,4.9,-1,Hit,0.700136499945,True,False,stimulusTOSY08_2IFCnew_2019_Jul_02_1205_861,stimulusTOSY08_2IFCnew_2019_Jul_02_1205_862,True,2019_Jul_02_1205,2IFCnew,3,TOSY08,
2IFCnew,56,0,56,0,0.467896000016,1,No,7.7,-1,Hit,0.702344999881,True,False,stimulusTOSY08_2IFCnew_2019_Jul_02_1205_863,stimulusTOSY08_2IFCnew_2019_Jul_02_1205_864,True,2019_Jul_02_1205,2IFCnew,3,TOSY08,
2IFCnew,57,0,57,0,0.299997899914,2,Yes,12.9,-1,Correct Rejection,0.533635900123,False,True,stimulusTOSY08_2IFCnew_2019_Jul_02_1205_865,stimulusTOSY08_2IFCnew_2019_Jul_02_1205_866,True,2019_Jul_02_1205,2IFCnew,3,TOSY08,
2IFCnew,58,0,58,0,0.300795699935,2,Yes,6.5,-1,Correct Rejection,0.600983300013,False,True,stimulusTOSY08_2IFCnew_2019_Jul_02_1205_867,stimulusTOSY08_2IFCnew_2019_Jul_02_1205_868,True,2019_Jul_02_1205,2IFCnew,3,TOSY08,
2IFCnew,59,0,59,0,0.26618110016,3,No,8.7,-1,False Alarm,0.501572899986,False,True,stimulusTOSY08_2IFCnew_2019_Jul_02_1205_869,stimulusTOSY08_2IFCnew_2019_Jul_02_1205_870,True,2019_Jul_02_1205,2IFCnew,3,TOSY08,
2IFCnew,60,0,60,0,0.666794100078,6,No,7.7,-1,Miss,0.500230999896,True,False,stimulusTOSY08_2IFCnew_2019_Jul_02_1205_871,stimulusTOSY08_2IFCnew_2019_Jul_02_1205_872,True,2019_Jul_02_1205,2IFCnew,3,TOSY08,
2IFCnew,61,0,61,0,0.500386899803,2,Yes,7.7,-1,Correct Rejection,0.568474399857,False,True,stimulusTOSY08_2IFCnew_2019_Jul_02_1205_873,stimulusTOSY08_2IFCnew_2019_Jul_02_1205_874,True,2019_Jul_02_1205,2IFCnew,3,TOSY08,
2IFCnew,62,0,62,0,0.300252699992,1,No,6.5,-1,Hit,0.500737499911,True,False,stimulusTOSY08_2IFCnew_2019_Jul_02_1205_875,stimulusTOSY08_2IFCnew_2019_Jul_02_1205_876,True,2019_Jul_02_1205,2IFCnew,3,TOSY08,
2IFCnew,63,0,63,0,0.43376909988,2,Yes,11.7,-1,Correct Rejection,0.500503799878,False,True,stimulusTOSY08_2IFCnew_2019_Jul_02_1205_877,stimulusTOSY08_2IFCnew_2019_Jul_02_1205_878,True,2019_Jul_02_1205,2IFCnew,3,TOSY08,
2IFCnew,64,0,64,0,0.634466500022,3,No,8.7,-1,False Alarm,0.467793700052,False,True,stimulusTOSY08_2IFCnew_2019_Jul_02_1205_879,stimulusTOSY08_2IFCnew_2019_Jul_02_1205_880,True,2019_Jul_02_1205,2IFCnew,3,TOSY08,
2IFCnew,65,0,65,0,0.56719020009,1,No,9.7,-1,Hit,0.730814900016,True,False,stimulusTOSY08_2IFCnew_2019_Jul_02_1205_881,stimulusTOSY08_2IFCnew_2019_Jul_02_1205_882,True,2019_Jul_02_1205,2IFCnew,3,TOSY08,
2IFCnew,66,0,66,0,0.269430199871,1,No,9.7,-1,Hit,0.467206800124,True,False,stimulusTOSY08_2IFCnew_2019_Jul_02_1205_883,stimulusTOSY08_2IFCnew_2019_Jul_02_1205_884,True,2019_Jul_02_1205,2IFCnew,3,TOSY08,
2IFCnew,67,0,67,0,0.466721500037,5,Yes,10.7,-1,False Alarm,0.500595099991,False,True,stimulusTOSY08_2IFCnew_2019_Jul_02_1205_885,stimulusTOSY08_2IFCnew_2019_Jul_02_1205_886,True,2019_Jul_02_1205,2IFCnew,3,TOSY08,
2IFCnew,68,0,68,0,0.567244899925,1,No,6.5,-1,Hit,0.468600099906,True,False,stimulusTOSY08_2IFCnew_2019_Jul_02_1205_887,stimulusTOSY08_2IFCnew_2019_Jul_02_1205_888,True,2019_Jul_02_1205,2IFCnew,3,TOSY08,
2IFCnew,69,0,69,0,0.433276499854,1,No,10.7,-1,Hit,0.500694799935,True,False,stimulusTOSY08_2IFCnew_2019_Jul_02_1205_889,stimulusTOSY08_2IFCnew_2019_Jul_02_1205_890,True,2019_Jul_02_1205,2IFCnew,3,TOSY08,
2IFCnew,70,0,70,0,0.400366000133,1,No,8.7,-1,Hit,0.403149500024,True,False,stimulusTOSY08_2IFCnew_2019_Jul_02_1205_891,stimulusTOSY08_2IFCnew_2019_Jul_02_1205_892,True,2019_Jul_02_1205,2IFCnew,3,TOSY08,
2IFCnew,71,0,71,0,0.467145800125,5,Yes,10.7,-1,False Alarm,0.400810899911,False,True,stimulusTOSY08_2IFCnew_2019_Jul_02_1205_893,stimulusTOSY08_2IFCnew_2019_Jul_02_1205_894,True,2019_Jul_02_1205,2IFCnew,3,TOSY08,
2IFCnew,72,0,72,0,0.300475100055,5,Yes,9.7,-1,False Alarm,0.46744909999,False,True,stimulusTOSY08_2IFCnew_2019_Jul_02_1205_895,stimulusTOSY08_2IFCnew_2019_Jul_02_1205_896,True,2019_Jul_02_1205,2IFCnew,3,TOSY08,
2IFCnew,73,0,73,0,0.469779200153,4,Yes,4.9,-1,Miss,0.501552700065,True,False,stimulusTOSY08_2IFCnew_2019_Jul_02_1205_897,stimulusTOSY08_2IFCnew_2019_Jul_02_1205_898,True,2019_Jul_02_1205,2IFCnew,3,TOSY08,
2IFCnew,74,0,74,0,0.40290570003,3,No,4.9,-1,False Alarm,0.567500999896,False,True,stimulusTOSY08_2IFCnew_2019_Jul_02_1205_899,stimulusTOSY08_2IFCnew_2019_Jul_02_1205_900,True,2019_Jul_02_1205,2IFCnew,3,TOSY08,
2IFCnew,0,0,0,0,0.500561199849,6,No,4.9,-1,Miss,0.601022699848,True,False,stimulusTOSY08_2IFCnew_2019_Jul_02_1205_901,stimulusTOSY08_2IFCnew_2019_Jul_02_1205_902,True,2019_Jul_02_1205,2IFCnew,3,TOSY08,
2IFCnew,1,0,1,0,0.467301900033,1,No,12.9,-1,Hit,0.465861100005,True,False,stimulusTOSY08_2IFCnew_2019_Jul_02_1205_903,stimulusTOSY08_2IFCnew_2019_Jul_02_1205_904,True,2019_Jul_02_1205,2IFCnew,3,TOSY08,
2IFCnew,2,0,2,0,0.300522499951,1,No,10.7,-1,Hit,0.434389800066,True,False,stimulusTOSY08_2IFCnew_2019_Jul_02_1205_905,stimulusTOSY08_2IFCnew_2019_Jul_02_1205_906,True,2019_Jul_02_1205,2IFCnew,3,TOSY08,
2IFCnew,3,0,3,0,0.301370800007,2,Yes,6.5,-1,Correct Rejection,0.466937300051,False,True,stimulusTOSY08_2IFCnew_2019_Jul_02_1205_907,stimulusTOSY08_2IFCnew_2019_Jul_02_1205_908,True,2019_Jul_02_1205,2IFCnew,3,TOSY08,
2IFCnew,4,0,4,0,0.467647799989,5,Yes,10.7,-1,False Alarm,0.634441499831,False,True,stimulusTOSY08_2IFCnew_2019_Jul_02_1205_909,stimulusTOSY08_2IFCnew_2019_Jul_02_1205_910,True,2019_Jul_02_1205,2IFCnew,3,TOSY08,
2IFCnew,5,0,5,0,0.267436699942,1,No,6.5,-1,Hit,0.434227999998,True,False,stimulusTOSY08_2IFCnew_2019_Jul_02_1205_911,stimulusTOSY08_2IFCnew_2019_Jul_02_1205_912,True,2019_Jul_02_1205,2IFCnew,3,TOSY08,
2IFCnew,6,0,6,0,0.299655499868,1,No,12.9,-1,Hit,0.46695170016,True,False,stimulusTOSY08_2IFCnew_2019_Jul_02_1205_913,stimulusTOSY08_2IFCnew_2019_Jul_02_1205_914,True,2019_Jul_02_1205,2IFCnew,3,TOSY08,
2IFCnew,7,0,7,0,0.601438499987,2,Yes,6.5,-1,Correct Rejection,0.667601400055,False,True,stimulusTOSY08_2IFCnew_2019_Jul_02_1205_915,stimulusTOSY08_2IFCnew_2019_Jul_02_1205_916,True,2019_Jul_02_1205,2IFCnew,3,TOSY08,
2IFCnew,8,0,8,0,0.400452099973,1,No,4.9,-1,Hit,0.501392700011,True,False,stimulusTOSY08_2IFCnew_2019_Jul_02_1205_917,stimulusTOSY08_2IFCnew_2019_Jul_02_1205_918,True,2019_Jul_02_1205,2IFCnew,3,TOSY08,
2IFCnew,9,0,9,0,0.400802600197,1,No,9.7,-1,Hit,0.500383199891,True,False,stimulusTOSY08_2IFCnew_2019_Jul_02_1205_919,stimulusTOSY08_2IFCnew_2019_Jul_02_1205_920,True,2019_Jul_02_1205,2IFCnew,3,TOSY08,
2IFCnew,10,0,10,0,0.367242700187,1,No,9.7,-1,Hit,0.433950499864,True,False,stimulusTOSY08_2IFCnew_2019_Jul_02_1205_921,stimulusTOSY08_2IFCnew_2019_Jul_02_1205_922,True,2019_Jul_02_1205,2IFCnew,3,TOSY08,
2IFCnew,11,0,11,0,0.533317799913,5,Yes,7.7,-1,False Alarm,0.633815300185,False,True,stimulusTOSY08_2IFCnew_2019_Jul_02_1205_923,stimulusTOSY08_2IFCnew_2019_Jul_02_1205_924,True,2019_Jul_02_1205,2IFCnew,3,TOSY08,
2IFCnew,12,0,12,0,0.766253500013,1,No,7.7,-1,Hit,0.467191499891,True,False,stimulusTOSY08_2IFCnew_2019_Jul_02_1205_925,stimulusTOSY08_2IFCnew_2019_Jul_02_1205_926,True,2019_Jul_02_1205,2IFCnew,3,TOSY08,
2IFCnew,13,0,13,0,0.36766800005,2,Yes,12.9,-1,Correct Rejection,0.667441099882,False,True,stimulusTOSY08_2IFCnew_2019_Jul_02_1205_927,stimulusTOSY08_2IFCnew_2019_Jul_02_1205_928,True,2019_Jul_02_1205,2IFCnew,3,TOSY08,
2IFCnew,14,0,14,0,0.29797840002,1,No,9.7,-1,Hit,0.499991999939,True,False,stimulusTOSY08_2IFCnew_2019_Jul_02_1205_929,stimulusTOSY08_2IFCnew_2019_Jul_02_1205_930,True,2019_Jul_02_1205,2IFCnew,3,TOSY08,
2IFCnew,15,0,15,0,0.434558299836,5,Yes,10.7,-1,False Alarm,0.634654500056,False,True,stimulusTOSY08_2IFCnew_2019_Jul_02_1205_931,stimulusTOSY08_2IFCnew_2019_Jul_02_1205_932,True,2019_Jul_02_1205,2IFCnew,3,TOSY08,
2IFCnew,16,0,16,0,0.300864499994,1,No,6.5,-1,Hit,0.401321500074,True,False,stimulusTOSY08_2IFCnew_2019_Jul_02_1205_933,stimulusTOSY08_2IFCnew_2019_Jul_02_1205_934,True,2019_Jul_02_1205,2IFCnew,3,TOSY08,
2IFCnew,17,0,17,0,0.333625899861,1,No,6.5,-1,Hit,0.467791300034,True,False,stimulusTOSY08_2IFCnew_2019_Jul_02_1205_935,stimulusTOSY08_2IFCnew_2019_Jul_02_1205_936,True,2019_Jul_02_1205,2IFCnew,3,TOSY08,
2IFCnew,18,0,18,0,0.600678200135,1,No,9.7,-1,Hit,0.599746499909,True,False,stimulusTOSY08_2IFCnew_2019_Jul_02_1205_937,stimulusTOSY08_2IFCnew_2019_Jul_02_1205_938,True,2019_Jul_02_1205,2IFCnew,3,TOSY08,
2IFCnew,19,0,19,0,0.400439900113,1,No,10.7,-1,Hit,0.466522200033,True,False,stimulusTOSY08_2IFCnew_2019_Jul_02_1205_939,stimulusTOSY08_2IFCnew_2019_Jul_02_1205_940,True,2019_Jul_02_1205,2IFCnew,3,TOSY08,
2IFCnew,20,0,20,0,0.6672404001,5,Yes,8.7,-1,False Alarm,0.569134500111,False,True,stimulusTOSY08_2IFCnew_2019_Jul_02_1205_941,stimulusTOSY08_2IFCnew_2019_Jul_02_1205_942,True,2019_Jul_02_1205,2IFCnew,3,TOSY08,
2IFCnew,21,0,21,0,0.33376300009,2,Yes,8.7,-1,Correct Rejection,0.666767799994,False,True,stimulusTOSY08_2IFCnew_2019_Jul_02_1205_943,stimulusTOSY08_2IFCnew_2019_Jul_02_1205_944,True,2019_Jul_02_1205,2IFCnew,3,TOSY08,
2IFCnew,22,0,22,0,0.333459099988,1,No,8.7,-1,Hit,0.434007199947,True,False,stimulusTOSY08_2IFCnew_2019_Jul_02_1205_945,stimulusTOSY08_2IFCnew_2019_Jul_02_1205_946,True,2019_Jul_02_1205,2IFCnew,3,TOSY08,
2IFCnew,23,0,23,0,0.36746930005,1,No,7.7,-1,Hit,0.434755200054,True,False,stimulusTOSY08_2IFCnew_2019_Jul_02_1205_947,stimulusTOSY08_2IFCnew_2019_Jul_02_1205_948,True,2019_Jul_02_1205,2IFCnew,3,TOSY08,
2IFCnew,24,0,24,0,0.333697800059,5,Yes,11.7,-1,False Alarm,0.701134399977,False,True,stimulusTOSY08_2IFCnew_2019_Jul_02_1205_949,stimulusTOSY08_2IFCnew_2019_Jul_02_1205_950,True,2019_Jul_02_1205,2IFCnew,3,TOSY08,
