Task,trials.thisRepN,trials.thisTrialN,trials.thisN,trials.thisIndex,signal_intensity,constant Value,response,time_response,signal_on_stimuluspos1,signal_on_stimuluspos2,stimulus_name_pos1,stimulus_name_pos2,random_intensity,date,expName,session,participant,
Yes-No Task,0,0,0,0,12.9,-1,Hit,0.567115299986,True,-1,stimulus_TOSY08_Yes-No Task_2019_Jun_18_1323_1,-1,False,2019_Jun_18_1323,Yes-No Task,2,TOSY08,
Yes-No Task,1,0,1,0,12.9,-1,Correct Rejection,0.767342400039,False,-1,stimulus_TOSY08_Yes-No Task_2019_Jun_18_1323_2,-1,False,2019_Jun_18_1323,Yes-No Task,2,TOSY08,
Yes-No Task,2,0,2,0,12.9,-1,Correct Rejection,0.734186399961,False,-1,stimulus_TOSY08_Yes-No Task_2019_Jun_18_1323_3,-1,False,2019_Jun_18_1323,Yes-No Task,2,TOSY08,
Yes-No Task,3,0,3,0,12.9,-1,Correct Rejection,0.767198699992,False,-1,stimulus_TOSY08_Yes-No Task_2019_Jun_18_1323_4,-1,False,2019_Jun_18_1323,Yes-No Task,2,TOSY08,
Yes-No Task,4,0,4,0,12.9,-1,Correct Rejection,0.699433599948,False,-1,stimulus_TOSY08_Yes-No Task_2019_Jun_18_1323_5,-1,False,2019_Jun_18_1323,Yes-No Task,2,TOSY08,
Yes-No Task,5,0,5,0,12.9,-1,Correct Rejection,0.770261499973,False,-1,stimulus_TOSY08_Yes-No Task_2019_Jun_18_1323_6,-1,False,2019_Jun_18_1323,Yes-No Task,2,TOSY08,
Yes-No Task,6,0,6,0,12.9,-1,Hit,0.601957300038,True,-1,stimulus_TOSY08_Yes-No Task_2019_Jun_18_1323_7,-1,False,2019_Jun_18_1323,Yes-No Task,2,TOSY08,
Yes-No Task,7,0,7,0,12.9,-1,Hit,0.632132400002,True,-1,stimulus_TOSY08_Yes-No Task_2019_Jun_18_1323_8,-1,False,2019_Jun_18_1323,Yes-No Task,2,TOSY08,
Yes-No Task,8,0,8,0,12.9,-1,Correct Rejection,0.600926499988,False,-1,stimulus_TOSY08_Yes-No Task_2019_Jun_18_1323_9,-1,False,2019_Jun_18_1323,Yes-No Task,2,TOSY08,
Yes-No Task,9,0,9,0,12.9,-1,Correct Rejection,0.768378999957,False,-1,stimulus_TOSY08_Yes-No Task_2019_Jun_18_1323_10,-1,False,2019_Jun_18_1323,Yes-No Task,2,TOSY08,
Yes-No Task,10,0,10,0,12.9,-1,False Alarm,0.667399499973,False,-1,stimulus_TOSY08_Yes-No Task_2019_Jun_18_1323_11,-1,False,2019_Jun_18_1323,Yes-No Task,2,TOSY08,
Yes-No Task,11,0,11,0,12.9,-1,False Alarm,0.700646299985,False,-1,stimulus_TOSY08_Yes-No Task_2019_Jun_18_1323_12,-1,False,2019_Jun_18_1323,Yes-No Task,2,TOSY08,
Yes-No Task,12,0,12,0,12.9,-1,Hit,0.600512699981,True,-1,stimulus_TOSY08_Yes-No Task_2019_Jun_18_1323_13,-1,False,2019_Jun_18_1323,Yes-No Task,2,TOSY08,
Yes-No Task,13,0,13,0,12.9,-1,Hit,0.634277999983,True,-1,stimulus_TOSY08_Yes-No Task_2019_Jun_18_1323_14,-1,False,2019_Jun_18_1323,Yes-No Task,2,TOSY08,
Yes-No Task,14,0,14,0,12.9,-1,Hit,0.60313829995,True,-1,stimulus_TOSY08_Yes-No Task_2019_Jun_18_1323_15,-1,False,2019_Jun_18_1323,Yes-No Task,2,TOSY08,
Yes-No Task,15,0,15,0,12.9,-1,Hit,0.634672099957,True,-1,stimulus_TOSY08_Yes-No Task_2019_Jun_18_1323_16,-1,False,2019_Jun_18_1323,Yes-No Task,2,TOSY08,
Yes-No Task,16,0,16,0,12.9,-1,Correct Rejection,0.635945400049,False,-1,stimulus_TOSY08_Yes-No Task_2019_Jun_18_1323_17,-1,False,2019_Jun_18_1323,Yes-No Task,2,TOSY08,
Yes-No Task,17,0,17,0,12.9,-1,Hit,0.766788600013,True,-1,stimulus_TOSY08_Yes-No Task_2019_Jun_18_1323_18,-1,False,2019_Jun_18_1323,Yes-No Task,2,TOSY08,
Yes-No Task,18,0,18,0,12.9,-1,Hit,0.665554699954,True,-1,stimulus_TOSY08_Yes-No Task_2019_Jun_18_1323_19,-1,False,2019_Jun_18_1323,Yes-No Task,2,TOSY08,
Yes-No Task,19,0,19,0,12.9,-1,Correct Rejection,0.66714059998,False,-1,stimulus_TOSY08_Yes-No Task_2019_Jun_18_1323_20,-1,False,2019_Jun_18_1323,Yes-No Task,2,TOSY08,
Yes-No Task,20,0,20,0,12.9,-1,Hit,0.665914900019,True,-1,stimulus_TOSY08_Yes-No Task_2019_Jun_18_1323_21,-1,False,2019_Jun_18_1323,Yes-No Task,2,TOSY08,
Yes-No Task,21,0,21,0,12.9,-1,Hit,0.567950700002,True,-1,stimulus_TOSY08_Yes-No Task_2019_Jun_18_1323_22,-1,False,2019_Jun_18_1323,Yes-No Task,2,TOSY08,
Yes-No Task,22,0,22,0,12.9,-1,Hit,0.601393199991,True,-1,stimulus_TOSY08_Yes-No Task_2019_Jun_18_1323_23,-1,False,2019_Jun_18_1323,Yes-No Task,2,TOSY08,
Yes-No Task,23,0,23,0,12.9,-1,Hit,0.6676936,True,-1,stimulus_TOSY08_Yes-No Task_2019_Jun_18_1323_24,-1,False,2019_Jun_18_1323,Yes-No Task,2,TOSY08,
Yes-No Task,24,0,24,0,12.9,-1,Correct Rejection,0.633224099991,False,-1,stimulus_TOSY08_Yes-No Task_2019_Jun_18_1323_25,-1,False,2019_Jun_18_1323,Yes-No Task,2,TOSY08,
Yes-No Task,25,0,25,0,12.9,-1,Correct Rejection,0.66723620001,False,-1,stimulus_TOSY08_Yes-No Task_2019_Jun_18_1323_26,-1,False,2019_Jun_18_1323,Yes-No Task,2,TOSY08,
Yes-No Task,26,0,26,0,12.9,-1,Hit,0.634980500035,True,-1,stimulus_TOSY08_Yes-No Task_2019_Jun_18_1323_27,-1,False,2019_Jun_18_1323,Yes-No Task,2,TOSY08,
Yes-No Task,27,0,27,0,12.9,-1,Hit,0.6346318,True,-1,stimulus_TOSY08_Yes-No Task_2019_Jun_18_1323_28,-1,False,2019_Jun_18_1323,Yes-No Task,2,TOSY08,
Yes-No Task,28,0,28,0,12.9,-1,Hit,0.469233300013,True,-1,stimulus_TOSY08_Yes-No Task_2019_Jun_18_1323_29,-1,False,2019_Jun_18_1323,Yes-No Task,2,TOSY08,
Yes-No Task,29,0,29,0,12.9,-1,Correct Rejection,0.434696400014,False,-1,stimulus_TOSY08_Yes-No Task_2019_Jun_18_1323_30,-1,False,2019_Jun_18_1323,Yes-No Task,2,TOSY08,
Yes-No Task,30,0,30,0,12.9,-1,Hit,0.468658700003,True,-1,stimulus_TOSY08_Yes-No Task_2019_Jun_18_1323_31,-1,False,2019_Jun_18_1323,Yes-No Task,2,TOSY08,
Yes-No Task,31,0,31,0,12.9,-1,Hit,0.500844899972,True,-1,stimulus_TOSY08_Yes-No Task_2019_Jun_18_1323_32,-1,False,2019_Jun_18_1323,Yes-No Task,2,TOSY08,
Yes-No Task,32,0,32,0,12.9,-1,Correct Rejection,0.500354500022,False,-1,stimulus_TOSY08_Yes-No Task_2019_Jun_18_1323_33,-1,False,2019_Jun_18_1323,Yes-No Task,2,TOSY08,
Yes-No Task,33,0,33,0,12.9,-1,False Alarm,0.500539300032,False,-1,stimulus_TOSY08_Yes-No Task_2019_Jun_18_1323_34,-1,False,2019_Jun_18_1323,Yes-No Task,2,TOSY08,
Yes-No Task,34,0,34,0,12.9,-1,Correct Rejection,0.466572100006,False,-1,stimulus_TOSY08_Yes-No Task_2019_Jun_18_1323_35,-1,False,2019_Jun_18_1323,Yes-No Task,2,TOSY08,
Yes-No Task,35,0,35,0,12.9,-1,Hit,0.467367000005,True,-1,stimulus_TOSY08_Yes-No Task_2019_Jun_18_1323_36,-1,False,2019_Jun_18_1323,Yes-No Task,2,TOSY08,
Yes-No Task,36,0,36,0,12.9,-1,Correct Rejection,0.434061600012,False,-1,stimulus_TOSY08_Yes-No Task_2019_Jun_18_1323_37,-1,False,2019_Jun_18_1323,Yes-No Task,2,TOSY08,
Yes-No Task,37,0,37,0,12.9,-1,Correct Rejection,0.533107800002,False,-1,stimulus_TOSY08_Yes-No Task_2019_Jun_18_1323_38,-1,False,2019_Jun_18_1323,Yes-No Task,2,TOSY08,
Yes-No Task,38,0,38,0,12.9,-1,False Alarm,0.534114399983,False,-1,stimulus_TOSY08_Yes-No Task_2019_Jun_18_1323_39,-1,False,2019_Jun_18_1323,Yes-No Task,2,TOSY08,
Yes-No Task,39,0,39,0,12.9,-1,Hit,0.500481499999,True,-1,stimulus_TOSY08_Yes-No Task_2019_Jun_18_1323_40,-1,False,2019_Jun_18_1323,Yes-No Task,2,TOSY08,
Yes-No Task,40,0,40,0,12.9,-1,Correct Rejection,0.467285699968,False,-1,stimulus_TOSY08_Yes-No Task_2019_Jun_18_1323_41,-1,False,2019_Jun_18_1323,Yes-No Task,2,TOSY08,
Yes-No Task,41,0,41,0,12.9,-1,Hit,0.535240099998,True,-1,stimulus_TOSY08_Yes-No Task_2019_Jun_18_1323_42,-1,False,2019_Jun_18_1323,Yes-No Task,2,TOSY08,
Yes-No Task,42,0,42,0,12.9,-1,Hit,0.595818599977,True,-1,stimulus_TOSY08_Yes-No Task_2019_Jun_18_1323_43,-1,False,2019_Jun_18_1323,Yes-No Task,2,TOSY08,
Yes-No Task,43,0,43,0,12.9,-1,Hit,0.500739600044,True,-1,stimulus_TOSY08_Yes-No Task_2019_Jun_18_1323_44,-1,False,2019_Jun_18_1323,Yes-No Task,2,TOSY08,
Yes-No Task,44,0,44,0,12.9,-1,Hit,0.500669299974,True,-1,stimulus_TOSY08_Yes-No Task_2019_Jun_18_1323_45,-1,False,2019_Jun_18_1323,Yes-No Task,2,TOSY08,
Yes-No Task,45,0,45,0,12.9,-1,Hit,0.500428600004,True,-1,stimulus_TOSY08_Yes-No Task_2019_Jun_18_1323_46,-1,False,2019_Jun_18_1323,Yes-No Task,2,TOSY08,
Yes-No Task,46,0,46,0,12.9,-1,Correct Rejection,0.467193999968,False,-1,stimulus_TOSY08_Yes-No Task_2019_Jun_18_1323_47,-1,False,2019_Jun_18_1323,Yes-No Task,2,TOSY08,
Yes-No Task,47,0,47,0,12.9,-1,Hit,0.467263899976,True,-1,stimulus_TOSY08_Yes-No Task_2019_Jun_18_1323_48,-1,False,2019_Jun_18_1323,Yes-No Task,2,TOSY08,
Yes-No Task,48,0,48,0,12.9,-1,Correct Rejection,0.433807399997,False,-1,stimulus_TOSY08_Yes-No Task_2019_Jun_18_1323_49,-1,False,2019_Jun_18_1323,Yes-No Task,2,TOSY08,
Yes-No Task,49,0,49,0,12.9,-1,Correct Rejection,0.501151299977,False,-1,stimulus_TOSY08_Yes-No Task_2019_Jun_18_1323_50,-1,False,2019_Jun_18_1323,Yes-No Task,2,TOSY08,
Yes-No Task,50,0,50,0,12.9,-1,False Alarm,0.567356300016,False,-1,stimulus_TOSY08_Yes-No Task_2019_Jun_18_1323_51,-1,False,2019_Jun_18_1323,Yes-No Task,2,TOSY08,
Yes-No Task,51,0,51,0,12.9,-1,Correct Rejection,0.465911000036,False,-1,stimulus_TOSY08_Yes-No Task_2019_Jun_18_1323_52,-1,False,2019_Jun_18_1323,Yes-No Task,2,TOSY08,
Yes-No Task,52,0,52,0,12.9,-1,Correct Rejection,0.466806199984,False,-1,stimulus_TOSY08_Yes-No Task_2019_Jun_18_1323_53,-1,False,2019_Jun_18_1323,Yes-No Task,2,TOSY08,
Yes-No Task,53,0,53,0,12.9,-1,Correct Rejection,0.500685099978,False,-1,stimulus_TOSY08_Yes-No Task_2019_Jun_18_1323_54,-1,False,2019_Jun_18_1323,Yes-No Task,2,TOSY08,
Yes-No Task,54,0,54,0,12.9,-1,Hit,0.533567100007,True,-1,stimulus_TOSY08_Yes-No Task_2019_Jun_18_1323_55,-1,False,2019_Jun_18_1323,Yes-No Task,2,TOSY08,
Yes-No Task,55,0,55,0,12.9,-1,Correct Rejection,0.401463999995,False,-1,stimulus_TOSY08_Yes-No Task_2019_Jun_18_1323_56,-1,False,2019_Jun_18_1323,Yes-No Task,2,TOSY08,
Yes-No Task,56,0,56,0,12.9,-1,Hit,0.334317799949,True,-1,stimulus_TOSY08_Yes-No Task_2019_Jun_18_1323_57,-1,False,2019_Jun_18_1323,Yes-No Task,2,TOSY08,
Yes-No Task,57,0,57,0,12.9,-1,Hit,0.433086099976,True,-1,stimulus_TOSY08_Yes-No Task_2019_Jun_18_1323_58,-1,False,2019_Jun_18_1323,Yes-No Task,2,TOSY08,
Yes-No Task,58,0,58,0,12.9,-1,Hit,0.467090999999,True,-1,stimulus_TOSY08_Yes-No Task_2019_Jun_18_1323_59,-1,False,2019_Jun_18_1323,Yes-No Task,2,TOSY08,
Yes-No Task,59,0,59,0,12.9,-1,Correct Rejection,0.468126700027,False,-1,stimulus_TOSY08_Yes-No Task_2019_Jun_18_1323_60,-1,False,2019_Jun_18_1323,Yes-No Task,2,TOSY08,
Yes-No Task,60,0,60,0,12.9,-1,Hit,0.500598899962,True,-1,stimulus_TOSY08_Yes-No Task_2019_Jun_18_1323_61,-1,False,2019_Jun_18_1323,Yes-No Task,2,TOSY08,
Yes-No Task,61,0,61,0,12.9,-1,Miss,0.366559699993,True,-1,stimulus_TOSY08_Yes-No Task_2019_Jun_18_1323_62,-1,False,2019_Jun_18_1323,Yes-No Task,2,TOSY08,
Yes-No Task,62,0,62,0,12.9,-1,Hit,0.467546799977,True,-1,stimulus_TOSY08_Yes-No Task_2019_Jun_18_1323_63,-1,False,2019_Jun_18_1323,Yes-No Task,2,TOSY08,
Yes-No Task,63,0,63,0,12.9,-1,Hit,0.401090699947,True,-1,stimulus_TOSY08_Yes-No Task_2019_Jun_18_1323_64,-1,False,2019_Jun_18_1323,Yes-No Task,2,TOSY08,
Yes-No Task,64,0,64,0,12.9,-1,Correct Rejection,0.567126000009,False,-1,stimulus_TOSY08_Yes-No Task_2019_Jun_18_1323_65,-1,False,2019_Jun_18_1323,Yes-No Task,2,TOSY08,
Yes-No Task,65,0,65,0,12.9,-1,Correct Rejection,0.367290700029,False,-1,stimulus_TOSY08_Yes-No Task_2019_Jun_18_1323_66,-1,False,2019_Jun_18_1323,Yes-No Task,2,TOSY08,
Yes-No Task,66,0,66,0,12.9,-1,Correct Rejection,0.400020600006,False,-1,stimulus_TOSY08_Yes-No Task_2019_Jun_18_1323_67,-1,False,2019_Jun_18_1323,Yes-No Task,2,TOSY08,
Yes-No Task,67,0,67,0,12.9,-1,Correct Rejection,0.501147100003,False,-1,stimulus_TOSY08_Yes-No Task_2019_Jun_18_1323_68,-1,False,2019_Jun_18_1323,Yes-No Task,2,TOSY08,
Yes-No Task,68,0,68,0,12.9,-1,Correct Rejection,0.496843400004,False,-1,stimulus_TOSY08_Yes-No Task_2019_Jun_18_1323_69,-1,False,2019_Jun_18_1323,Yes-No Task,2,TOSY08,
Yes-No Task,69,0,69,0,12.9,-1,Correct Rejection,0.600385199999,False,-1,stimulus_TOSY08_Yes-No Task_2019_Jun_18_1323_70,-1,False,2019_Jun_18_1323,Yes-No Task,2,TOSY08,
Yes-No Task,70,0,70,0,12.9,-1,Correct Rejection,0.400557899964,False,-1,stimulus_TOSY08_Yes-No Task_2019_Jun_18_1323_71,-1,False,2019_Jun_18_1323,Yes-No Task,2,TOSY08,
Yes-No Task,71,0,71,0,12.9,-1,Hit,0.500369200017,True,-1,stimulus_TOSY08_Yes-No Task_2019_Jun_18_1323_72,-1,False,2019_Jun_18_1323,Yes-No Task,2,TOSY08,
Yes-No Task,72,0,72,0,12.9,-1,Hit,0.433905299986,True,-1,stimulus_TOSY08_Yes-No Task_2019_Jun_18_1323_73,-1,False,2019_Jun_18_1323,Yes-No Task,2,TOSY08,
Yes-No Task,73,0,73,0,12.9,-1,Correct Rejection,0.467234699987,False,-1,stimulus_TOSY08_Yes-No Task_2019_Jun_18_1323_74,-1,False,2019_Jun_18_1323,Yes-No Task,2,TOSY08,
Yes-No Task,74,0,74,0,12.9,-1,Correct Rejection,0.399622099998,False,-1,stimulus_TOSY08_Yes-No Task_2019_Jun_18_1323_75,-1,False,2019_Jun_18_1323,Yes-No Task,2,TOSY08,
Yes-No Task,0,0,0,0,11.7,-1,Correct Rejection,0.633875200001,False,-1,stimulus_TOSY08_Yes-No Task_2019_Jun_18_1323_76,-1,False,2019_Jun_18_1323,Yes-No Task,2,TOSY08,
Yes-No Task,1,0,1,0,11.7,-1,Hit,0.433336700022,True,-1,stimulus_TOSY08_Yes-No Task_2019_Jun_18_1323_77,-1,False,2019_Jun_18_1323,Yes-No Task,2,TOSY08,
Yes-No Task,2,0,2,0,11.7,-1,Correct Rejection,0.400706699991,False,-1,stimulus_TOSY08_Yes-No Task_2019_Jun_18_1323_78,-1,False,2019_Jun_18_1323,Yes-No Task,2,TOSY08,
Yes-No Task,3,0,3,0,11.7,-1,Correct Rejection,0.433796599973,False,-1,stimulus_TOSY08_Yes-No Task_2019_Jun_18_1323_79,-1,False,2019_Jun_18_1323,Yes-No Task,2,TOSY08,
Yes-No Task,4,0,4,0,11.7,-1,Hit,0.500520600006,True,-1,stimulus_TOSY08_Yes-No Task_2019_Jun_18_1323_80,-1,False,2019_Jun_18_1323,Yes-No Task,2,TOSY08,
Yes-No Task,5,0,5,0,11.7,-1,Correct Rejection,0.333682099998,False,-1,stimulus_TOSY08_Yes-No Task_2019_Jun_18_1323_81,-1,False,2019_Jun_18_1323,Yes-No Task,2,TOSY08,
Yes-No Task,6,0,6,0,11.7,-1,Miss,0.366669700015,True,-1,stimulus_TOSY08_Yes-No Task_2019_Jun_18_1323_82,-1,False,2019_Jun_18_1323,Yes-No Task,2,TOSY08,
Yes-No Task,7,0,7,0,11.7,-1,Miss,0.400622999994,True,-1,stimulus_TOSY08_Yes-No Task_2019_Jun_18_1323_83,-1,False,2019_Jun_18_1323,Yes-No Task,2,TOSY08,
Yes-No Task,8,0,8,0,11.7,-1,Correct Rejection,0.466079600039,False,-1,stimulus_TOSY08_Yes-No Task_2019_Jun_18_1323_84,-1,False,2019_Jun_18_1323,Yes-No Task,2,TOSY08,
Yes-No Task,9,0,9,0,11.7,-1,Hit,0.399855199968,True,-1,stimulus_TOSY08_Yes-No Task_2019_Jun_18_1323_85,-1,False,2019_Jun_18_1323,Yes-No Task,2,TOSY08,
Yes-No Task,10,0,10,0,11.7,-1,Miss,0.400604000024,True,-1,stimulus_TOSY08_Yes-No Task_2019_Jun_18_1323_86,-1,False,2019_Jun_18_1323,Yes-No Task,2,TOSY08,
Yes-No Task,11,0,11,0,11.7,-1,Correct Rejection,0.433010799985,False,-1,stimulus_TOSY08_Yes-No Task_2019_Jun_18_1323_87,-1,False,2019_Jun_18_1323,Yes-No Task,2,TOSY08,
Yes-No Task,12,0,12,0,11.7,-1,Hit,0.367948499974,True,-1,stimulus_TOSY08_Yes-No Task_2019_Jun_18_1323_88,-1,False,2019_Jun_18_1323,Yes-No Task,2,TOSY08,
Yes-No Task,13,0,13,0,11.7,-1,Correct Rejection,0.467479399987,False,-1,stimulus_TOSY08_Yes-No Task_2019_Jun_18_1323_89,-1,False,2019_Jun_18_1323,Yes-No Task,2,TOSY08,
Yes-No Task,14,0,14,0,11.7,-1,Hit,0.401048399974,True,-1,stimulus_TOSY08_Yes-No Task_2019_Jun_18_1323_90,-1,False,2019_Jun_18_1323,Yes-No Task,2,TOSY08,
Yes-No Task,15,0,15,0,11.7,-1,Correct Rejection,0.433297299955,False,-1,stimulus_TOSY08_Yes-No Task_2019_Jun_18_1323_91,-1,False,2019_Jun_18_1323,Yes-No Task,2,TOSY08,
Yes-No Task,16,0,16,0,11.7,-1,Hit,0.434532799991,True,-1,stimulus_TOSY08_Yes-No Task_2019_Jun_18_1323_92,-1,False,2019_Jun_18_1323,Yes-No Task,2,TOSY08,
Yes-No Task,17,0,17,0,11.7,-1,Miss,0.400679200015,True,-1,stimulus_TOSY08_Yes-No Task_2019_Jun_18_1323_93,-1,False,2019_Jun_18_1323,Yes-No Task,2,TOSY08,
Yes-No Task,18,0,18,0,11.7,-1,Correct Rejection,0.535012500011,False,-1,stimulus_TOSY08_Yes-No Task_2019_Jun_18_1323_94,-1,False,2019_Jun_18_1323,Yes-No Task,2,TOSY08,
Yes-No Task,19,0,19,0,11.7,-1,Correct Rejection,0.466748700012,False,-1,stimulus_TOSY08_Yes-No Task_2019_Jun_18_1323_95,-1,False,2019_Jun_18_1323,Yes-No Task,2,TOSY08,
Yes-No Task,20,0,20,0,11.7,-1,Correct Rejection,0.533162300009,False,-1,stimulus_TOSY08_Yes-No Task_2019_Jun_18_1323_96,-1,False,2019_Jun_18_1323,Yes-No Task,2,TOSY08,
Yes-No Task,21,0,21,0,11.7,-1,Hit,0.500544400013,True,-1,stimulus_TOSY08_Yes-No Task_2019_Jun_18_1323_97,-1,False,2019_Jun_18_1323,Yes-No Task,2,TOSY08,
Yes-No Task,22,0,22,0,11.7,-1,Hit,0.400006600015,True,-1,stimulus_TOSY08_Yes-No Task_2019_Jun_18_1323_98,-1,False,2019_Jun_18_1323,Yes-No Task,2,TOSY08,
Yes-No Task,23,0,23,0,11.7,-1,Correct Rejection,0.667272999999,False,-1,stimulus_TOSY08_Yes-No Task_2019_Jun_18_1323_99,-1,False,2019_Jun_18_1323,Yes-No Task,2,TOSY08,
Yes-No Task,24,0,24,0,11.7,-1,Hit,0.400575599982,True,-1,stimulus_TOSY08_Yes-No Task_2019_Jun_18_1323_100,-1,False,2019_Jun_18_1323,Yes-No Task,2,TOSY08,
Yes-No Task,25,0,25,0,11.7,-1,False Alarm,0.401961199997,False,-1,stimulus_TOSY08_Yes-No Task_2019_Jun_18_1323_101,-1,False,2019_Jun_18_1323,Yes-No Task,2,TOSY08,
Yes-No Task,26,0,26,0,11.7,-1,Hit,0.435238899954,True,-1,stimulus_TOSY08_Yes-No Task_2019_Jun_18_1323_102,-1,False,2019_Jun_18_1323,Yes-No Task,2,TOSY08,
Yes-No Task,27,0,27,0,11.7,-1,Correct Rejection,0.399790800002,False,-1,stimulus_TOSY08_Yes-No Task_2019_Jun_18_1323_103,-1,False,2019_Jun_18_1323,Yes-No Task,2,TOSY08,
Yes-No Task,28,0,28,0,11.7,-1,Hit,0.500006499991,True,-1,stimulus_TOSY08_Yes-No Task_2019_Jun_18_1323_104,-1,False,2019_Jun_18_1323,Yes-No Task,2,TOSY08,
Yes-No Task,29,0,29,0,11.7,-1,Correct Rejection,0.467677299981,False,-1,stimulus_TOSY08_Yes-No Task_2019_Jun_18_1323_105,-1,False,2019_Jun_18_1323,Yes-No Task,2,TOSY08,
Yes-No Task,30,0,30,0,11.7,-1,Hit,0.5672395,True,-1,stimulus_TOSY08_Yes-No Task_2019_Jun_18_1323_106,-1,False,2019_Jun_18_1323,Yes-No Task,2,TOSY08,
Yes-No Task,31,0,31,0,11.7,-1,Hit,0.500702599995,True,-1,stimulus_TOSY08_Yes-No Task_2019_Jun_18_1323_107,-1,False,2019_Jun_18_1323,Yes-No Task,2,TOSY08,
Yes-No Task,32,0,32,0,11.7,-1,Hit,0.433592999994,True,-1,stimulus_TOSY08_Yes-No Task_2019_Jun_18_1323_108,-1,False,2019_Jun_18_1323,Yes-No Task,2,TOSY08,
Yes-No Task,33,0,33,0,11.7,-1,Hit,0.399976100016,True,-1,stimulus_TOSY08_Yes-No Task_2019_Jun_18_1323_109,-1,False,2019_Jun_18_1323,Yes-No Task,2,TOSY08,
Yes-No Task,34,0,34,0,11.7,-1,Hit,0.400700099999,True,-1,stimulus_TOSY08_Yes-No Task_2019_Jun_18_1323_110,-1,False,2019_Jun_18_1323,Yes-No Task,2,TOSY08,
Yes-No Task,35,0,35,0,11.7,-1,Hit,0.400670500007,True,-1,stimulus_TOSY08_Yes-No Task_2019_Jun_18_1323_111,-1,False,2019_Jun_18_1323,Yes-No Task,2,TOSY08,
Yes-No Task,36,0,36,0,11.7,-1,Hit,0.367524000001,True,-1,stimulus_TOSY08_Yes-No Task_2019_Jun_18_1323_112,-1,False,2019_Jun_18_1323,Yes-No Task,2,TOSY08,
Yes-No Task,37,0,37,0,11.7,-1,Correct Rejection,0.400366099959,False,-1,stimulus_TOSY08_Yes-No Task_2019_Jun_18_1323_113,-1,False,2019_Jun_18_1323,Yes-No Task,2,TOSY08,
Yes-No Task,38,0,38,0,11.7,-1,Hit,0.434157599986,True,-1,stimulus_TOSY08_Yes-No Task_2019_Jun_18_1323_114,-1,False,2019_Jun_18_1323,Yes-No Task,2,TOSY08,
Yes-No Task,39,0,39,0,11.7,-1,Correct Rejection,0.434456300049,False,-1,stimulus_TOSY08_Yes-No Task_2019_Jun_18_1323_115,-1,False,2019_Jun_18_1323,Yes-No Task,2,TOSY08,
Yes-No Task,40,0,40,0,11.7,-1,Correct Rejection,0.434085700021,False,-1,stimulus_TOSY08_Yes-No Task_2019_Jun_18_1323_116,-1,False,2019_Jun_18_1323,Yes-No Task,2,TOSY08,
Yes-No Task,41,0,41,0,11.7,-1,Miss,0.400690799986,True,-1,stimulus_TOSY08_Yes-No Task_2019_Jun_18_1323_117,-1,False,2019_Jun_18_1323,Yes-No Task,2,TOSY08,
Yes-No Task,42,0,42,0,11.7,-1,Hit,0.400140699989,True,-1,stimulus_TOSY08_Yes-No Task_2019_Jun_18_1323_118,-1,False,2019_Jun_18_1323,Yes-No Task,2,TOSY08,
Yes-No Task,43,0,43,0,11.7,-1,False Alarm,0.467232900031,False,-1,stimulus_TOSY08_Yes-No Task_2019_Jun_18_1323_119,-1,False,2019_Jun_18_1323,Yes-No Task,2,TOSY08,
Yes-No Task,44,0,44,0,11.7,-1,Correct Rejection,0.567554300011,False,-1,stimulus_TOSY08_Yes-No Task_2019_Jun_18_1323_120,-1,False,2019_Jun_18_1323,Yes-No Task,2,TOSY08,
Yes-No Task,45,0,45,0,11.7,-1,False Alarm,0.567179300007,False,-1,stimulus_TOSY08_Yes-No Task_2019_Jun_18_1323_121,-1,False,2019_Jun_18_1323,Yes-No Task,2,TOSY08,
Yes-No Task,46,0,46,0,11.7,-1,Correct Rejection,0.500571599987,False,-1,stimulus_TOSY08_Yes-No Task_2019_Jun_18_1323_122,-1,False,2019_Jun_18_1323,Yes-No Task,2,TOSY08,
Yes-No Task,47,0,47,0,11.7,-1,Hit,0.533041700022,True,-1,stimulus_TOSY08_Yes-No Task_2019_Jun_18_1323_123,-1,False,2019_Jun_18_1323,Yes-No Task,2,TOSY08,
Yes-No Task,48,0,48,0,11.7,-1,Correct Rejection,0.532969399996,False,-1,stimulus_TOSY08_Yes-No Task_2019_Jun_18_1323_124,-1,False,2019_Jun_18_1323,Yes-No Task,2,TOSY08,
Yes-No Task,49,0,49,0,11.7,-1,Hit,0.533843200014,True,-1,stimulus_TOSY08_Yes-No Task_2019_Jun_18_1323_125,-1,False,2019_Jun_18_1323,Yes-No Task,2,TOSY08,
Yes-No Task,50,0,50,0,11.7,-1,Hit,0.43379510002,True,-1,stimulus_TOSY08_Yes-No Task_2019_Jun_18_1323_126,-1,False,2019_Jun_18_1323,Yes-No Task,2,TOSY08,
Yes-No Task,51,0,51,0,11.7,-1,Correct Rejection,0.433683799987,False,-1,stimulus_TOSY08_Yes-No Task_2019_Jun_18_1323_127,-1,False,2019_Jun_18_1323,Yes-No Task,2,TOSY08,
Yes-No Task,52,0,52,0,11.7,-1,Correct Rejection,0.43356970005,False,-1,stimulus_TOSY08_Yes-No Task_2019_Jun_18_1323_128,-1,False,2019_Jun_18_1323,Yes-No Task,2,TOSY08,
Yes-No Task,53,0,53,0,11.7,-1,Correct Rejection,0.533890799969,False,-1,stimulus_TOSY08_Yes-No Task_2019_Jun_18_1323_129,-1,False,2019_Jun_18_1323,Yes-No Task,2,TOSY08,
Yes-No Task,54,0,54,0,11.7,-1,Correct Rejection,0.434961699997,False,-1,stimulus_TOSY08_Yes-No Task_2019_Jun_18_1323_130,-1,False,2019_Jun_18_1323,Yes-No Task,2,TOSY08,
Yes-No Task,55,0,55,0,11.7,-1,Hit,0.531546499988,True,-1,stimulus_TOSY08_Yes-No Task_2019_Jun_18_1323_131,-1,False,2019_Jun_18_1323,Yes-No Task,2,TOSY08,
Yes-No Task,56,0,56,0,11.7,-1,Correct Rejection,0.43499369995,False,-1,stimulus_TOSY08_Yes-No Task_2019_Jun_18_1323_132,-1,False,2019_Jun_18_1323,Yes-No Task,2,TOSY08,
Yes-No Task,57,0,57,0,11.7,-1,Correct Rejection,0.500711700006,False,-1,stimulus_TOSY08_Yes-No Task_2019_Jun_18_1323_133,-1,False,2019_Jun_18_1323,Yes-No Task,2,TOSY08,
Yes-No Task,58,0,58,0,11.7,-1,Correct Rejection,0.600391399988,False,-1,stimulus_TOSY08_Yes-No Task_2019_Jun_18_1323_134,-1,False,2019_Jun_18_1323,Yes-No Task,2,TOSY08,
Yes-No Task,59,0,59,0,11.7,-1,Correct Rejection,0.533979100001,False,-1,stimulus_TOSY08_Yes-No Task_2019_Jun_18_1323_135,-1,False,2019_Jun_18_1323,Yes-No Task,2,TOSY08,
Yes-No Task,60,0,60,0,11.7,-1,Correct Rejection,0.568425100006,False,-1,stimulus_TOSY08_Yes-No Task_2019_Jun_18_1323_136,-1,False,2019_Jun_18_1323,Yes-No Task,2,TOSY08,
Yes-No Task,61,0,61,0,11.7,-1,Hit,0.599150899972,True,-1,stimulus_TOSY08_Yes-No Task_2019_Jun_18_1323_137,-1,False,2019_Jun_18_1323,Yes-No Task,2,TOSY08,
Yes-No Task,62,0,62,0,11.7,-1,Hit,0.534932299983,True,-1,stimulus_TOSY08_Yes-No Task_2019_Jun_18_1323_138,-1,False,2019_Jun_18_1323,Yes-No Task,2,TOSY08,
Yes-No Task,63,0,63,0,11.7,-1,Hit,0.567379500018,True,-1,stimulus_TOSY08_Yes-No Task_2019_Jun_18_1323_139,-1,False,2019_Jun_18_1323,Yes-No Task,2,TOSY08,
Yes-No Task,64,0,64,0,11.7,-1,Hit,0.533079800021,True,-1,stimulus_TOSY08_Yes-No Task_2019_Jun_18_1323_140,-1,False,2019_Jun_18_1323,Yes-No Task,2,TOSY08,
Yes-No Task,65,0,65,0,11.7,-1,Correct Rejection,0.467194699973,False,-1,stimulus_TOSY08_Yes-No Task_2019_Jun_18_1323_141,-1,False,2019_Jun_18_1323,Yes-No Task,2,TOSY08,
Yes-No Task,66,0,66,0,11.7,-1,Hit,0.533903400006,True,-1,stimulus_TOSY08_Yes-No Task_2019_Jun_18_1323_142,-1,False,2019_Jun_18_1323,Yes-No Task,2,TOSY08,
Yes-No Task,67,0,67,0,11.7,-1,Hit,0.499795000011,True,-1,stimulus_TOSY08_Yes-No Task_2019_Jun_18_1323_143,-1,False,2019_Jun_18_1323,Yes-No Task,2,TOSY08,
Yes-No Task,68,0,68,0,11.7,-1,Correct Rejection,0.467071700026,False,-1,stimulus_TOSY08_Yes-No Task_2019_Jun_18_1323_144,-1,False,2019_Jun_18_1323,Yes-No Task,2,TOSY08,
Yes-No Task,69,0,69,0,11.7,-1,Correct Rejection,0.500661800033,False,-1,stimulus_TOSY08_Yes-No Task_2019_Jun_18_1323_145,-1,False,2019_Jun_18_1323,Yes-No Task,2,TOSY08,
Yes-No Task,70,0,70,0,11.7,-1,Correct Rejection,0.601166100008,False,-1,stimulus_TOSY08_Yes-No Task_2019_Jun_18_1323_146,-1,False,2019_Jun_18_1323,Yes-No Task,2,TOSY08,
Yes-No Task,71,0,71,0,11.7,-1,Miss,0.667531399988,True,-1,stimulus_TOSY08_Yes-No Task_2019_Jun_18_1323_147,-1,False,2019_Jun_18_1323,Yes-No Task,2,TOSY08,
Yes-No Task,72,0,72,0,11.7,-1,Correct Rejection,0.533973299956,False,-1,stimulus_TOSY08_Yes-No Task_2019_Jun_18_1323_148,-1,False,2019_Jun_18_1323,Yes-No Task,2,TOSY08,
Yes-No Task,73,0,73,0,11.7,-1,Hit,0.534139800002,True,-1,stimulus_TOSY08_Yes-No Task_2019_Jun_18_1323_149,-1,False,2019_Jun_18_1323,Yes-No Task,2,TOSY08,
Yes-No Task,74,0,74,0,11.7,-1,Hit,0.531267899962,True,-1,stimulus_TOSY08_Yes-No Task_2019_Jun_18_1323_150,-1,False,2019_Jun_18_1323,Yes-No Task,2,TOSY08,
Yes-No Task,0,0,0,0,6.5,-1,Correct Rejection,0.600236500031,False,-1,stimulus_TOSY08_Yes-No Task_2019_Jun_18_1323_151,-1,False,2019_Jun_18_1323,Yes-No Task,2,TOSY08,
Yes-No Task,1,0,1,0,6.5,-1,Miss,0.463581699994,True,-1,stimulus_TOSY08_Yes-No Task_2019_Jun_18_1323_152,-1,False,2019_Jun_18_1323,Yes-No Task,2,TOSY08,
Yes-No Task,2,0,2,0,6.5,-1,Hit,0.433889599983,True,-1,stimulus_TOSY08_Yes-No Task_2019_Jun_18_1323_153,-1,False,2019_Jun_18_1323,Yes-No Task,2,TOSY08,
Yes-No Task,3,0,3,0,6.5,-1,Miss,0.467561700032,True,-1,stimulus_TOSY08_Yes-No Task_2019_Jun_18_1323_154,-1,False,2019_Jun_18_1323,Yes-No Task,2,TOSY08,
Yes-No Task,4,0,4,0,6.5,-1,Correct Rejection,0.634284499974,False,-1,stimulus_TOSY08_Yes-No Task_2019_Jun_18_1323_155,-1,False,2019_Jun_18_1323,Yes-No Task,2,TOSY08,
Yes-No Task,5,0,5,0,6.5,-1,Correct Rejection,0.533818600001,False,-1,stimulus_TOSY08_Yes-No Task_2019_Jun_18_1323_156,-1,False,2019_Jun_18_1323,Yes-No Task,2,TOSY08,
Yes-No Task,6,0,6,0,6.5,-1,Correct Rejection,0.56711319997,False,-1,stimulus_TOSY08_Yes-No Task_2019_Jun_18_1323_157,-1,False,2019_Jun_18_1323,Yes-No Task,2,TOSY08,
Yes-No Task,7,0,7,0,6.5,-1,Correct Rejection,0.501849299995,False,-1,stimulus_TOSY08_Yes-No Task_2019_Jun_18_1323_158,-1,False,2019_Jun_18_1323,Yes-No Task,2,TOSY08,
Yes-No Task,8,0,8,0,6.5,-1,Miss,0.467185799964,True,-1,stimulus_TOSY08_Yes-No Task_2019_Jun_18_1323_159,-1,False,2019_Jun_18_1323,Yes-No Task,2,TOSY08,
Yes-No Task,9,0,9,0,6.5,-1,Miss,0.532698200026,True,-1,stimulus_TOSY08_Yes-No Task_2019_Jun_18_1323_160,-1,False,2019_Jun_18_1323,Yes-No Task,2,TOSY08,
Yes-No Task,10,0,10,0,6.5,-1,Miss,0.401064000034,True,-1,stimulus_TOSY08_Yes-No Task_2019_Jun_18_1323_161,-1,False,2019_Jun_18_1323,Yes-No Task,2,TOSY08,
Yes-No Task,11,0,11,0,6.5,-1,Hit,0.434332499979,True,-1,stimulus_TOSY08_Yes-No Task_2019_Jun_18_1323_162,-1,False,2019_Jun_18_1323,Yes-No Task,2,TOSY08,
Yes-No Task,12,0,12,0,6.5,-1,False Alarm,0.46918809996,False,-1,stimulus_TOSY08_Yes-No Task_2019_Jun_18_1323_163,-1,False,2019_Jun_18_1323,Yes-No Task,2,TOSY08,
Yes-No Task,13,0,13,0,6.5,-1,Miss,0.300438700011,True,-1,stimulus_TOSY08_Yes-No Task_2019_Jun_18_1323_164,-1,False,2019_Jun_18_1323,Yes-No Task,2,TOSY08,
Yes-No Task,14,0,14,0,6.5,-1,Miss,0.466604700021,True,-1,stimulus_TOSY08_Yes-No Task_2019_Jun_18_1323_165,-1,False,2019_Jun_18_1323,Yes-No Task,2,TOSY08,
Yes-No Task,15,0,15,0,6.5,-1,Miss,0.4001575,True,-1,stimulus_TOSY08_Yes-No Task_2019_Jun_18_1323_166,-1,False,2019_Jun_18_1323,Yes-No Task,2,TOSY08,
Yes-No Task,16,0,16,0,6.5,-1,Hit,0.567194800009,True,-1,stimulus_TOSY08_Yes-No Task_2019_Jun_18_1323_167,-1,False,2019_Jun_18_1323,Yes-No Task,2,TOSY08,
Yes-No Task,17,0,17,0,6.5,-1,Hit,0.667318099993,True,-1,stimulus_TOSY08_Yes-No Task_2019_Jun_18_1323_168,-1,False,2019_Jun_18_1323,Yes-No Task,2,TOSY08,
Yes-No Task,18,0,18,0,6.5,-1,Correct Rejection,0.566574700002,False,-1,stimulus_TOSY08_Yes-No Task_2019_Jun_18_1323_169,-1,False,2019_Jun_18_1323,Yes-No Task,2,TOSY08,
Yes-No Task,19,0,19,0,6.5,-1,Correct Rejection,0.667932600016,False,-1,stimulus_TOSY08_Yes-No Task_2019_Jun_18_1323_170,-1,False,2019_Jun_18_1323,Yes-No Task,2,TOSY08,
Yes-No Task,20,0,20,0,6.5,-1,Correct Rejection,0.600760400004,False,-1,stimulus_TOSY08_Yes-No Task_2019_Jun_18_1323_171,-1,False,2019_Jun_18_1323,Yes-No Task,2,TOSY08,
Yes-No Task,21,0,21,0,6.5,-1,Correct Rejection,0.601079300046,False,-1,stimulus_TOSY08_Yes-No Task_2019_Jun_18_1323_172,-1,False,2019_Jun_18_1323,Yes-No Task,2,TOSY08,
Yes-No Task,22,0,22,0,6.5,-1,Hit,0.467775699974,True,-1,stimulus_TOSY08_Yes-No Task_2019_Jun_18_1323_173,-1,False,2019_Jun_18_1323,Yes-No Task,2,TOSY08,
Yes-No Task,23,0,23,0,6.5,-1,Hit,0.599815500027,True,-1,stimulus_TOSY08_Yes-No Task_2019_Jun_18_1323_174,-1,False,2019_Jun_18_1323,Yes-No Task,2,TOSY08,
Yes-No Task,24,0,24,0,6.5,-1,Correct Rejection,0.532788800017,False,-1,stimulus_TOSY08_Yes-No Task_2019_Jun_18_1323_175,-1,False,2019_Jun_18_1323,Yes-No Task,2,TOSY08,
Yes-No Task,25,0,25,0,6.5,-1,Hit,0.4663955,True,-1,stimulus_TOSY08_Yes-No Task_2019_Jun_18_1323_176,-1,False,2019_Jun_18_1323,Yes-No Task,2,TOSY08,
Yes-No Task,26,0,26,0,6.5,-1,Correct Rejection,0.565903700015,False,-1,stimulus_TOSY08_Yes-No Task_2019_Jun_18_1323_177,-1,False,2019_Jun_18_1323,Yes-No Task,2,TOSY08,
Yes-No Task,27,0,27,0,6.5,-1,Correct Rejection,0.500861200038,False,-1,stimulus_TOSY08_Yes-No Task_2019_Jun_18_1323_178,-1,False,2019_Jun_18_1323,Yes-No Task,2,TOSY08,
Yes-No Task,28,0,28,0,6.5,-1,Hit,0.600735400047,True,-1,stimulus_TOSY08_Yes-No Task_2019_Jun_18_1323_179,-1,False,2019_Jun_18_1323,Yes-No Task,2,TOSY08,
Yes-No Task,29,0,29,0,6.5,-1,Hit,0.633226200007,True,-1,stimulus_TOSY08_Yes-No Task_2019_Jun_18_1323_180,-1,False,2019_Jun_18_1323,Yes-No Task,2,TOSY08,
Yes-No Task,30,0,30,0,6.5,-1,Correct Rejection,0.633764399972,False,-1,stimulus_TOSY08_Yes-No Task_2019_Jun_18_1323_181,-1,False,2019_Jun_18_1323,Yes-No Task,2,TOSY08,
Yes-No Task,31,0,31,0,6.5,-1,Miss,0.700535100012,True,-1,stimulus_TOSY08_Yes-No Task_2019_Jun_18_1323_182,-1,False,2019_Jun_18_1323,Yes-No Task,2,TOSY08,
Yes-No Task,32,0,32,0,6.5,-1,Correct Rejection,0.600524600013,False,-1,stimulus_TOSY08_Yes-No Task_2019_Jun_18_1323_183,-1,False,2019_Jun_18_1323,Yes-No Task,2,TOSY08,
Yes-No Task,33,0,33,0,6.5,-1,Correct Rejection,0.567211499962,False,-1,stimulus_TOSY08_Yes-No Task_2019_Jun_18_1323_184,-1,False,2019_Jun_18_1323,Yes-No Task,2,TOSY08,
Yes-No Task,34,0,34,0,6.5,-1,Correct Rejection,0.6333094,False,-1,stimulus_TOSY08_Yes-No Task_2019_Jun_18_1323_185,-1,False,2019_Jun_18_1323,Yes-No Task,2,TOSY08,
Yes-No Task,35,0,35,0,6.5,-1,Correct Rejection,0.601075899962,False,-1,stimulus_TOSY08_Yes-No Task_2019_Jun_18_1323_186,-1,False,2019_Jun_18_1323,Yes-No Task,2,TOSY08,
Yes-No Task,36,0,36,0,6.5,-1,Correct Rejection,0.600846099958,False,-1,stimulus_TOSY08_Yes-No Task_2019_Jun_18_1323_187,-1,False,2019_Jun_18_1323,Yes-No Task,2,TOSY08,
Yes-No Task,37,0,37,0,6.5,-1,Correct Rejection,0.69952949998,False,-1,stimulus_TOSY08_Yes-No Task_2019_Jun_18_1323_188,-1,False,2019_Jun_18_1323,Yes-No Task,2,TOSY08,
Yes-No Task,38,0,38,0,6.5,-1,Correct Rejection,0.600949999993,False,-1,stimulus_TOSY08_Yes-No Task_2019_Jun_18_1323_189,-1,False,2019_Jun_18_1323,Yes-No Task,2,TOSY08,
Yes-No Task,39,0,39,0,6.5,-1,Miss,0.734141599969,True,-1,stimulus_TOSY08_Yes-No Task_2019_Jun_18_1323_190,-1,False,2019_Jun_18_1323,Yes-No Task,2,TOSY08,
Yes-No Task,40,0,40,0,6.5,-1,Miss,0.533583699958,True,-1,stimulus_TOSY08_Yes-No Task_2019_Jun_18_1323_191,-1,False,2019_Jun_18_1323,Yes-No Task,2,TOSY08,
Yes-No Task,41,0,41,0,6.5,-1,Correct Rejection,0.534239600005,False,-1,stimulus_TOSY08_Yes-No Task_2019_Jun_18_1323_192,-1,False,2019_Jun_18_1323,Yes-No Task,2,TOSY08,
Yes-No Task,42,0,42,0,6.5,-1,Miss,0.600486100011,True,-1,stimulus_TOSY08_Yes-No Task_2019_Jun_18_1323_193,-1,False,2019_Jun_18_1323,Yes-No Task,2,TOSY08,
Yes-No Task,43,0,43,0,6.5,-1,Miss,0.568696000031,True,-1,stimulus_TOSY08_Yes-No Task_2019_Jun_18_1323_194,-1,False,2019_Jun_18_1323,Yes-No Task,2,TOSY08,
Yes-No Task,44,0,44,0,6.5,-1,Hit,0.600489100034,True,-1,stimulus_TOSY08_Yes-No Task_2019_Jun_18_1323_195,-1,False,2019_Jun_18_1323,Yes-No Task,2,TOSY08,
Yes-No Task,45,0,45,0,6.5,-1,Correct Rejection,0.633917700034,False,-1,stimulus_TOSY08_Yes-No Task_2019_Jun_18_1323_196,-1,False,2019_Jun_18_1323,Yes-No Task,2,TOSY08,
Yes-No Task,46,0,46,0,6.5,-1,Correct Rejection,0.766978600004,False,-1,stimulus_TOSY08_Yes-No Task_2019_Jun_18_1323_197,-1,False,2019_Jun_18_1323,Yes-No Task,2,TOSY08,
Yes-No Task,47,0,47,0,6.5,-1,Correct Rejection,0.633892900019,False,-1,stimulus_TOSY08_Yes-No Task_2019_Jun_18_1323_198,-1,False,2019_Jun_18_1323,Yes-No Task,2,TOSY08,
Yes-No Task,48,0,48,0,6.5,-1,Miss,0.73400180001,True,-1,stimulus_TOSY08_Yes-No Task_2019_Jun_18_1323_199,-1,False,2019_Jun_18_1323,Yes-No Task,2,TOSY08,
Yes-No Task,49,0,49,0,6.5,-1,Correct Rejection,0.533339200018,False,-1,stimulus_TOSY08_Yes-No Task_2019_Jun_18_1323_200,-1,False,2019_Jun_18_1323,Yes-No Task,2,TOSY08,
Yes-No Task,50,0,50,0,6.5,-1,Correct Rejection,0.73421949998,False,-1,stimulus_TOSY08_Yes-No Task_2019_Jun_18_1323_201,-1,False,2019_Jun_18_1323,Yes-No Task,2,TOSY08,
Yes-No Task,51,0,51,0,6.5,-1,Miss,0.800812000001,True,-1,stimulus_TOSY08_Yes-No Task_2019_Jun_18_1323_202,-1,False,2019_Jun_18_1323,Yes-No Task,2,TOSY08,
Yes-No Task,52,0,52,0,6.5,-1,Miss,0.667158600001,True,-1,stimulus_TOSY08_Yes-No Task_2019_Jun_18_1323_203,-1,False,2019_Jun_18_1323,Yes-No Task,2,TOSY08,
Yes-No Task,53,0,53,0,6.5,-1,Miss,0.434057100036,True,-1,stimulus_TOSY08_Yes-No Task_2019_Jun_18_1323_204,-1,False,2019_Jun_18_1323,Yes-No Task,2,TOSY08,
Yes-No Task,54,0,54,0,6.5,-1,Correct Rejection,0.600594400021,False,-1,stimulus_TOSY08_Yes-No Task_2019_Jun_18_1323_205,-1,False,2019_Jun_18_1323,Yes-No Task,2,TOSY08,
Yes-No Task,55,0,55,0,6.5,-1,Miss,0.734005799983,True,-1,stimulus_TOSY08_Yes-No Task_2019_Jun_18_1323_206,-1,False,2019_Jun_18_1323,Yes-No Task,2,TOSY08,
Yes-No Task,56,0,56,0,6.5,-1,Correct Rejection,0.600714599947,False,-1,stimulus_TOSY08_Yes-No Task_2019_Jun_18_1323_207,-1,False,2019_Jun_18_1323,Yes-No Task,2,TOSY08,
Yes-No Task,57,0,57,0,6.5,-1,False Alarm,0.73386389995,False,-1,stimulus_TOSY08_Yes-No Task_2019_Jun_18_1323_208,-1,False,2019_Jun_18_1323,Yes-No Task,2,TOSY08,
Yes-No Task,58,0,58,0,6.5,-1,Correct Rejection,0.468229299993,False,-1,stimulus_TOSY08_Yes-No Task_2019_Jun_18_1323_209,-1,False,2019_Jun_18_1323,Yes-No Task,2,TOSY08,
Yes-No Task,59,0,59,0,6.5,-1,Hit,0.635964500019,True,-1,stimulus_TOSY08_Yes-No Task_2019_Jun_18_1323_210,-1,False,2019_Jun_18_1323,Yes-No Task,2,TOSY08,
Yes-No Task,60,0,60,0,6.5,-1,Correct Rejection,0.500757500005,False,-1,stimulus_TOSY08_Yes-No Task_2019_Jun_18_1323_211,-1,False,2019_Jun_18_1323,Yes-No Task,2,TOSY08,
Yes-No Task,61,0,61,0,6.5,-1,Correct Rejection,0.535575700051,False,-1,stimulus_TOSY08_Yes-No Task_2019_Jun_18_1323_212,-1,False,2019_Jun_18_1323,Yes-No Task,2,TOSY08,
Yes-No Task,62,0,62,0,6.5,-1,Correct Rejection,0.699681700033,False,-1,stimulus_TOSY08_Yes-No Task_2019_Jun_18_1323_213,-1,False,2019_Jun_18_1323,Yes-No Task,2,TOSY08,
Yes-No Task,63,0,63,0,6.5,-1,Correct Rejection,0.634265200002,False,-1,stimulus_TOSY08_Yes-No Task_2019_Jun_18_1323_214,-1,False,2019_Jun_18_1323,Yes-No Task,2,TOSY08,
Yes-No Task,64,0,64,0,6.5,-1,Correct Rejection,0.633994199976,False,-1,stimulus_TOSY08_Yes-No Task_2019_Jun_18_1323_215,-1,False,2019_Jun_18_1323,Yes-No Task,2,TOSY08,
Yes-No Task,65,0,65,0,6.5,-1,Miss,0.566963899997,True,-1,stimulus_TOSY08_Yes-No Task_2019_Jun_18_1323_216,-1,False,2019_Jun_18_1323,Yes-No Task,2,TOSY08,
Yes-No Task,66,0,66,0,6.5,-1,False Alarm,0.366134700016,False,-1,stimulus_TOSY08_Yes-No Task_2019_Jun_18_1323_217,-1,False,2019_Jun_18_1323,Yes-No Task,2,TOSY08,
Yes-No Task,67,0,67,0,6.5,-1,Correct Rejection,0.367677600007,False,-1,stimulus_TOSY08_Yes-No Task_2019_Jun_18_1323_218,-1,False,2019_Jun_18_1323,Yes-No Task,2,TOSY08,
Yes-No Task,68,0,68,0,6.5,-1,Correct Rejection,0.467653299973,False,-1,stimulus_TOSY08_Yes-No Task_2019_Jun_18_1323_219,-1,False,2019_Jun_18_1323,Yes-No Task,2,TOSY08,
Yes-No Task,69,0,69,0,6.5,-1,Correct Rejection,0.434179100033,False,-1,stimulus_TOSY08_Yes-No Task_2019_Jun_18_1323_220,-1,False,2019_Jun_18_1323,Yes-No Task,2,TOSY08,
Yes-No Task,70,0,70,0,6.5,-1,Miss,0.500504700001,True,-1,stimulus_TOSY08_Yes-No Task_2019_Jun_18_1323_221,-1,False,2019_Jun_18_1323,Yes-No Task,2,TOSY08,
Yes-No Task,71,0,71,0,6.5,-1,Correct Rejection,0.400523999997,False,-1,stimulus_TOSY08_Yes-No Task_2019_Jun_18_1323_222,-1,False,2019_Jun_18_1323,Yes-No Task,2,TOSY08,
Yes-No Task,72,0,72,0,6.5,-1,Correct Rejection,0.501968700031,False,-1,stimulus_TOSY08_Yes-No Task_2019_Jun_18_1323_223,-1,False,2019_Jun_18_1323,Yes-No Task,2,TOSY08,
Yes-No Task,73,0,73,0,6.5,-1,Correct Rejection,0.433493299992,False,-1,stimulus_TOSY08_Yes-No Task_2019_Jun_18_1323_224,-1,False,2019_Jun_18_1323,Yes-No Task,2,TOSY08,
Yes-No Task,74,0,74,0,6.5,-1,Miss,0.466553199978,True,-1,stimulus_TOSY08_Yes-No Task_2019_Jun_18_1323_225,-1,False,2019_Jun_18_1323,Yes-No Task,2,TOSY08,
Yes-No Task,0,0,0,0,9.7,-1,No Answer,-1,False,-1,stimulus_TOSY08_Yes-No Task_2019_Jun_18_1323_226,-1,False,2019_Jun_18_1323,Yes-No Task,2,TOSY08,
Yes-No Task,1,0,1,0,9.7,-1,Miss,0.46695099998,True,-1,stimulus_TOSY08_Yes-No Task_2019_Jun_18_1323_227,-1,False,2019_Jun_18_1323,Yes-No Task,2,TOSY08,
Yes-No Task,2,0,2,0,9.7,-1,Correct Rejection,0.467040900025,False,-1,stimulus_TOSY08_Yes-No Task_2019_Jun_18_1323_228,-1,False,2019_Jun_18_1323,Yes-No Task,2,TOSY08,
Yes-No Task,3,0,3,0,9.7,-1,Hit,0.468255900021,True,-1,stimulus_TOSY08_Yes-No Task_2019_Jun_18_1323_229,-1,False,2019_Jun_18_1323,Yes-No Task,2,TOSY08,
Yes-No Task,4,0,4,0,9.7,-1,Miss,0.367385499994,True,-1,stimulus_TOSY08_Yes-No Task_2019_Jun_18_1323_230,-1,False,2019_Jun_18_1323,Yes-No Task,2,TOSY08,
Yes-No Task,5,0,5,0,9.7,-1,Hit,0.367185899988,True,-1,stimulus_TOSY08_Yes-No Task_2019_Jun_18_1323_231,-1,False,2019_Jun_18_1323,Yes-No Task,2,TOSY08,
Yes-No Task,6,0,6,0,9.7,-1,Hit,0.400323999987,True,-1,stimulus_TOSY08_Yes-No Task_2019_Jun_18_1323_232,-1,False,2019_Jun_18_1323,Yes-No Task,2,TOSY08,
Yes-No Task,7,0,7,0,9.7,-1,Hit,0.433930800005,True,-1,stimulus_TOSY08_Yes-No Task_2019_Jun_18_1323_233,-1,False,2019_Jun_18_1323,Yes-No Task,2,TOSY08,
Yes-No Task,8,0,8,0,9.7,-1,Hit,0.333596599987,True,-1,stimulus_TOSY08_Yes-No Task_2019_Jun_18_1323_234,-1,False,2019_Jun_18_1323,Yes-No Task,2,TOSY08,
Yes-No Task,9,0,9,0,9.7,-1,Hit,0.333188900026,True,-1,stimulus_TOSY08_Yes-No Task_2019_Jun_18_1323_235,-1,False,2019_Jun_18_1323,Yes-No Task,2,TOSY08,
Yes-No Task,10,0,10,0,9.7,-1,False Alarm,0.333272500022,False,-1,stimulus_TOSY08_Yes-No Task_2019_Jun_18_1323_236,-1,False,2019_Jun_18_1323,Yes-No Task,2,TOSY08,
Yes-No Task,11,0,11,0,9.7,-1,Correct Rejection,0.334384199989,False,-1,stimulus_TOSY08_Yes-No Task_2019_Jun_18_1323_237,-1,False,2019_Jun_18_1323,Yes-No Task,2,TOSY08,
Yes-No Task,12,0,12,0,9.7,-1,False Alarm,0.500394600036,False,-1,stimulus_TOSY08_Yes-No Task_2019_Jun_18_1323_238,-1,False,2019_Jun_18_1323,Yes-No Task,2,TOSY08,
Yes-No Task,13,0,13,0,9.7,-1,Correct Rejection,0.433276099968,False,-1,stimulus_TOSY08_Yes-No Task_2019_Jun_18_1323_239,-1,False,2019_Jun_18_1323,Yes-No Task,2,TOSY08,
Yes-No Task,14,0,14,0,9.7,-1,Hit,0.567867700011,True,-1,stimulus_TOSY08_Yes-No Task_2019_Jun_18_1323_240,-1,False,2019_Jun_18_1323,Yes-No Task,2,TOSY08,
Yes-No Task,15,0,15,0,9.7,-1,Correct Rejection,0.398464999977,False,-1,stimulus_TOSY08_Yes-No Task_2019_Jun_18_1323_241,-1,False,2019_Jun_18_1323,Yes-No Task,2,TOSY08,
Yes-No Task,16,0,16,0,9.7,-1,False Alarm,0.335150300001,False,-1,stimulus_TOSY08_Yes-No Task_2019_Jun_18_1323_242,-1,False,2019_Jun_18_1323,Yes-No Task,2,TOSY08,
Yes-No Task,17,0,17,0,9.7,-1,Miss,0.367327600019,True,-1,stimulus_TOSY08_Yes-No Task_2019_Jun_18_1323_243,-1,False,2019_Jun_18_1323,Yes-No Task,2,TOSY08,
Yes-No Task,18,0,18,0,9.7,-1,Hit,0.467496900004,True,-1,stimulus_TOSY08_Yes-No Task_2019_Jun_18_1323_244,-1,False,2019_Jun_18_1323,Yes-No Task,2,TOSY08,
Yes-No Task,19,0,19,0,9.7,-1,Hit,0.468797400012,True,-1,stimulus_TOSY08_Yes-No Task_2019_Jun_18_1323_245,-1,False,2019_Jun_18_1323,Yes-No Task,2,TOSY08,
Yes-No Task,20,0,20,0,9.7,-1,Correct Rejection,0.466754200053,False,-1,stimulus_TOSY08_Yes-No Task_2019_Jun_18_1323_246,-1,False,2019_Jun_18_1323,Yes-No Task,2,TOSY08,
Yes-No Task,21,0,21,0,9.7,-1,False Alarm,0.333495799976,False,-1,stimulus_TOSY08_Yes-No Task_2019_Jun_18_1323_247,-1,False,2019_Jun_18_1323,Yes-No Task,2,TOSY08,
Yes-No Task,22,0,22,0,9.7,-1,Hit,0.400484799989,True,-1,stimulus_TOSY08_Yes-No Task_2019_Jun_18_1323_248,-1,False,2019_Jun_18_1323,Yes-No Task,2,TOSY08,
Yes-No Task,23,0,23,0,9.7,-1,Correct Rejection,0.333458600042,False,-1,stimulus_TOSY08_Yes-No Task_2019_Jun_18_1323_249,-1,False,2019_Jun_18_1323,Yes-No Task,2,TOSY08,
Yes-No Task,24,0,24,0,9.7,-1,Hit,0.367214200029,True,-1,stimulus_TOSY08_Yes-No Task_2019_Jun_18_1323_250,-1,False,2019_Jun_18_1323,Yes-No Task,2,TOSY08,
Yes-No Task,25,0,25,0,9.7,-1,Correct Rejection,0.299665500002,False,-1,stimulus_TOSY08_Yes-No Task_2019_Jun_18_1323_251,-1,False,2019_Jun_18_1323,Yes-No Task,2,TOSY08,
Yes-No Task,26,0,26,0,9.7,-1,False Alarm,0.300040700007,False,-1,stimulus_TOSY08_Yes-No Task_2019_Jun_18_1323_252,-1,False,2019_Jun_18_1323,Yes-No Task,2,TOSY08,
Yes-No Task,27,0,27,0,9.7,-1,False Alarm,0.467109099962,False,-1,stimulus_TOSY08_Yes-No Task_2019_Jun_18_1323_253,-1,False,2019_Jun_18_1323,Yes-No Task,2,TOSY08,
Yes-No Task,28,0,28,0,9.7,-1,Miss,0.300957400003,True,-1,stimulus_TOSY08_Yes-No Task_2019_Jun_18_1323_254,-1,False,2019_Jun_18_1323,Yes-No Task,2,TOSY08,
Yes-No Task,29,0,29,0,9.7,-1,False Alarm,0.267190399987,False,-1,stimulus_TOSY08_Yes-No Task_2019_Jun_18_1323_255,-1,False,2019_Jun_18_1323,Yes-No Task,2,TOSY08,
Yes-No Task,30,0,30,0,9.7,-1,Miss,0.300135899975,True,-1,stimulus_TOSY08_Yes-No Task_2019_Jun_18_1323_256,-1,False,2019_Jun_18_1323,Yes-No Task,2,TOSY08,
Yes-No Task,31,0,31,0,9.7,-1,Hit,0.333672700042,True,-1,stimulus_TOSY08_Yes-No Task_2019_Jun_18_1323_257,-1,False,2019_Jun_18_1323,Yes-No Task,2,TOSY08,
Yes-No Task,32,0,32,0,9.7,-1,Correct Rejection,0.500619500002,False,-1,stimulus_TOSY08_Yes-No Task_2019_Jun_18_1323_258,-1,False,2019_Jun_18_1323,Yes-No Task,2,TOSY08,
Yes-No Task,33,0,33,0,9.7,-1,Correct Rejection,0.468691999966,False,-1,stimulus_TOSY08_Yes-No Task_2019_Jun_18_1323_259,-1,False,2019_Jun_18_1323,Yes-No Task,2,TOSY08,
Yes-No Task,34,0,34,0,9.7,-1,Miss,0.400735600037,True,-1,stimulus_TOSY08_Yes-No Task_2019_Jun_18_1323_260,-1,False,2019_Jun_18_1323,Yes-No Task,2,TOSY08,
Yes-No Task,35,0,35,0,9.7,-1,False Alarm,0.300512999995,False,-1,stimulus_TOSY08_Yes-No Task_2019_Jun_18_1323_261,-1,False,2019_Jun_18_1323,Yes-No Task,2,TOSY08,
Yes-No Task,36,0,36,0,9.7,-1,Miss,0.333325200016,True,-1,stimulus_TOSY08_Yes-No Task_2019_Jun_18_1323_262,-1,False,2019_Jun_18_1323,Yes-No Task,2,TOSY08,
Yes-No Task,37,0,37,0,9.7,-1,Miss,0.400174800016,True,-1,stimulus_TOSY08_Yes-No Task_2019_Jun_18_1323_263,-1,False,2019_Jun_18_1323,Yes-No Task,2,TOSY08,
Yes-No Task,38,0,38,0,9.7,-1,Correct Rejection,0.534141900018,False,-1,stimulus_TOSY08_Yes-No Task_2019_Jun_18_1323_264,-1,False,2019_Jun_18_1323,Yes-No Task,2,TOSY08,
Yes-No Task,39,0,39,0,9.7,-1,Correct Rejection,0.466601799999,False,-1,stimulus_TOSY08_Yes-No Task_2019_Jun_18_1323_265,-1,False,2019_Jun_18_1323,Yes-No Task,2,TOSY08,
Yes-No Task,40,0,40,0,9.7,-1,Hit,0.500248300028,True,-1,stimulus_TOSY08_Yes-No Task_2019_Jun_18_1323_266,-1,False,2019_Jun_18_1323,Yes-No Task,2,TOSY08,
Yes-No Task,41,0,41,0,9.7,-1,Correct Rejection,0.500355599972,False,-1,stimulus_TOSY08_Yes-No Task_2019_Jun_18_1323_267,-1,False,2019_Jun_18_1323,Yes-No Task,2,TOSY08,
Yes-No Task,42,0,42,0,9.7,-1,Miss,0.500760500028,True,-1,stimulus_TOSY08_Yes-No Task_2019_Jun_18_1323_268,-1,False,2019_Jun_18_1323,Yes-No Task,2,TOSY08,
Yes-No Task,43,0,43,0,9.7,-1,False Alarm,0.300596300047,False,-1,stimulus_TOSY08_Yes-No Task_2019_Jun_18_1323_269,-1,False,2019_Jun_18_1323,Yes-No Task,2,TOSY08,
Yes-No Task,44,0,44,0,9.7,-1,Miss,0.233668499975,True,-1,stimulus_TOSY08_Yes-No Task_2019_Jun_18_1323_270,-1,False,2019_Jun_18_1323,Yes-No Task,2,TOSY08,
Yes-No Task,45,0,45,0,9.7,-1,Hit,0.333732999978,True,-1,stimulus_TOSY08_Yes-No Task_2019_Jun_18_1323_271,-1,False,2019_Jun_18_1323,Yes-No Task,2,TOSY08,
Yes-No Task,46,0,46,0,9.7,-1,False Alarm,0.400052399957,False,-1,stimulus_TOSY08_Yes-No Task_2019_Jun_18_1323_272,-1,False,2019_Jun_18_1323,Yes-No Task,2,TOSY08,
Yes-No Task,47,0,47,0,9.7,-1,Correct Rejection,0.333947200037,False,-1,stimulus_TOSY08_Yes-No Task_2019_Jun_18_1323_273,-1,False,2019_Jun_18_1323,Yes-No Task,2,TOSY08,
Yes-No Task,48,0,48,0,9.7,-1,Correct Rejection,0.366701600025,False,-1,stimulus_TOSY08_Yes-No Task_2019_Jun_18_1323_274,-1,False,2019_Jun_18_1323,Yes-No Task,2,TOSY08,
Yes-No Task,49,0,49,0,9.7,-1,Miss,0.300276800001,True,-1,stimulus_TOSY08_Yes-No Task_2019_Jun_18_1323_275,-1,False,2019_Jun_18_1323,Yes-No Task,2,TOSY08,
Yes-No Task,50,0,50,0,9.7,-1,Miss,0.366841000039,True,-1,stimulus_TOSY08_Yes-No Task_2019_Jun_18_1323_276,-1,False,2019_Jun_18_1323,Yes-No Task,2,TOSY08,
Yes-No Task,51,0,51,0,9.7,-1,False Alarm,0.267193300009,False,-1,stimulus_TOSY08_Yes-No Task_2019_Jun_18_1323_277,-1,False,2019_Jun_18_1323,Yes-No Task,2,TOSY08,
Yes-No Task,52,0,52,0,9.7,-1,Miss,0.267747199978,True,-1,stimulus_TOSY08_Yes-No Task_2019_Jun_18_1323_278,-1,False,2019_Jun_18_1323,Yes-No Task,2,TOSY08,
Yes-No Task,53,0,53,0,9.7,-1,Hit,0.435238800012,True,-1,stimulus_TOSY08_Yes-No Task_2019_Jun_18_1323_279,-1,False,2019_Jun_18_1323,Yes-No Task,2,TOSY08,
Yes-No Task,54,0,54,0,9.7,-1,Correct Rejection,0.500107300002,False,-1,stimulus_TOSY08_Yes-No Task_2019_Jun_18_1323_280,-1,False,2019_Jun_18_1323,Yes-No Task,2,TOSY08,
Yes-No Task,55,0,55,0,9.7,-1,Hit,0.500362900028,True,-1,stimulus_TOSY08_Yes-No Task_2019_Jun_18_1323_281,-1,False,2019_Jun_18_1323,Yes-No Task,2,TOSY08,
Yes-No Task,56,0,56,0,9.7,-1,Correct Rejection,0.400490999979,False,-1,stimulus_TOSY08_Yes-No Task_2019_Jun_18_1323_282,-1,False,2019_Jun_18_1323,Yes-No Task,2,TOSY08,
Yes-No Task,57,0,57,0,9.7,-1,Hit,0.399023199978,True,-1,stimulus_TOSY08_Yes-No Task_2019_Jun_18_1323_283,-1,False,2019_Jun_18_1323,Yes-No Task,2,TOSY08,
Yes-No Task,58,0,58,0,9.7,-1,Miss,0.333906500018,True,-1,stimulus_TOSY08_Yes-No Task_2019_Jun_18_1323_284,-1,False,2019_Jun_18_1323,Yes-No Task,2,TOSY08,
Yes-No Task,59,0,59,0,9.7,-1,Hit,0.267197699985,True,-1,stimulus_TOSY08_Yes-No Task_2019_Jun_18_1323_285,-1,False,2019_Jun_18_1323,Yes-No Task,2,TOSY08,
Yes-No Task,60,0,60,0,9.7,-1,Miss,0.334034700005,True,-1,stimulus_TOSY08_Yes-No Task_2019_Jun_18_1323_286,-1,False,2019_Jun_18_1323,Yes-No Task,2,TOSY08,
Yes-No Task,61,0,61,0,9.7,-1,False Alarm,0.333433799969,False,-1,stimulus_TOSY08_Yes-No Task_2019_Jun_18_1323_287,-1,False,2019_Jun_18_1323,Yes-No Task,2,TOSY08,
Yes-No Task,62,0,62,0,9.7,-1,Correct Rejection,0.332880600006,False,-1,stimulus_TOSY08_Yes-No Task_2019_Jun_18_1323_288,-1,False,2019_Jun_18_1323,Yes-No Task,2,TOSY08,
Yes-No Task,63,0,63,0,9.7,-1,Miss,0.499666400021,True,-1,stimulus_TOSY08_Yes-No Task_2019_Jun_18_1323_289,-1,False,2019_Jun_18_1323,Yes-No Task,2,TOSY08,
Yes-No Task,64,0,64,0,9.7,-1,Hit,0.365795000049,True,-1,stimulus_TOSY08_Yes-No Task_2019_Jun_18_1323_290,-1,False,2019_Jun_18_1323,Yes-No Task,2,TOSY08,
Yes-No Task,65,0,65,0,9.7,-1,Miss,0.535115300037,True,-1,stimulus_TOSY08_Yes-No Task_2019_Jun_18_1323_291,-1,False,2019_Jun_18_1323,Yes-No Task,2,TOSY08,
Yes-No Task,66,0,66,0,9.7,-1,Correct Rejection,0.400463900005,False,-1,stimulus_TOSY08_Yes-No Task_2019_Jun_18_1323_292,-1,False,2019_Jun_18_1323,Yes-No Task,2,TOSY08,
Yes-No Task,67,0,67,0,9.7,-1,Correct Rejection,0.534148900013,False,-1,stimulus_TOSY08_Yes-No Task_2019_Jun_18_1323_293,-1,False,2019_Jun_18_1323,Yes-No Task,2,TOSY08,
Yes-No Task,68,0,68,0,9.7,-1,Correct Rejection,0.400429499976,False,-1,stimulus_TOSY08_Yes-No Task_2019_Jun_18_1323_294,-1,False,2019_Jun_18_1323,Yes-No Task,2,TOSY08,
Yes-No Task,69,0,69,0,9.7,-1,Hit,0.534062199993,True,-1,stimulus_TOSY08_Yes-No Task_2019_Jun_18_1323_295,-1,False,2019_Jun_18_1323,Yes-No Task,2,TOSY08,
Yes-No Task,70,0,70,0,9.7,-1,Correct Rejection,0.400186000043,False,-1,stimulus_TOSY08_Yes-No Task_2019_Jun_18_1323_296,-1,False,2019_Jun_18_1323,Yes-No Task,2,TOSY08,
Yes-No Task,71,0,71,0,9.7,-1,False Alarm,0.333553000004,False,-1,stimulus_TOSY08_Yes-No Task_2019_Jun_18_1323_297,-1,False,2019_Jun_18_1323,Yes-No Task,2,TOSY08,
Yes-No Task,72,0,72,0,9.7,-1,Miss,0.232871100015,True,-1,stimulus_TOSY08_Yes-No Task_2019_Jun_18_1323_298,-1,False,2019_Jun_18_1323,Yes-No Task,2,TOSY08,
Yes-No Task,73,0,73,0,9.7,-1,Hit,0.266946699994,True,-1,stimulus_TOSY08_Yes-No Task_2019_Jun_18_1323_299,-1,False,2019_Jun_18_1323,Yes-No Task,2,TOSY08,
Yes-No Task,74,0,74,0,9.7,-1,Miss,0.335195399995,True,-1,stimulus_TOSY08_Yes-No Task_2019_Jun_18_1323_300,-1,False,2019_Jun_18_1323,Yes-No Task,2,TOSY08,
Yes-No Task,0,0,0,0,8.7,-1,Hit,0.603835700022,True,-1,stimulus_TOSY08_Yes-No Task_2019_Jun_18_1323_301,-1,False,2019_Jun_18_1323,Yes-No Task,2,TOSY08,
Yes-No Task,1,0,1,0,8.7,-1,Correct Rejection,0.467300900025,False,-1,stimulus_TOSY08_Yes-No Task_2019_Jun_18_1323_302,-1,False,2019_Jun_18_1323,Yes-No Task,2,TOSY08,
Yes-No Task,2,0,2,0,8.7,-1,Correct Rejection,0.466274200007,False,-1,stimulus_TOSY08_Yes-No Task_2019_Jun_18_1323_303,-1,False,2019_Jun_18_1323,Yes-No Task,2,TOSY08,
Yes-No Task,3,0,3,0,8.7,-1,Miss,0.368888800032,True,-1,stimulus_TOSY08_Yes-No Task_2019_Jun_18_1323_304,-1,False,2019_Jun_18_1323,Yes-No Task,2,TOSY08,
Yes-No Task,4,0,4,0,8.7,-1,False Alarm,0.300902400049,False,-1,stimulus_TOSY08_Yes-No Task_2019_Jun_18_1323_305,-1,False,2019_Jun_18_1323,Yes-No Task,2,TOSY08,
Yes-No Task,5,0,5,0,8.7,-1,Miss,0.43384230003,True,-1,stimulus_TOSY08_Yes-No Task_2019_Jun_18_1323_306,-1,False,2019_Jun_18_1323,Yes-No Task,2,TOSY08,
Yes-No Task,6,0,6,0,8.7,-1,False Alarm,0.400419500016,False,-1,stimulus_TOSY08_Yes-No Task_2019_Jun_18_1323_307,-1,False,2019_Jun_18_1323,Yes-No Task,2,TOSY08,
Yes-No Task,7,0,7,0,8.7,-1,Correct Rejection,0.267259799992,False,-1,stimulus_TOSY08_Yes-No Task_2019_Jun_18_1323_308,-1,False,2019_Jun_18_1323,Yes-No Task,2,TOSY08,
Yes-No Task,8,0,8,0,8.7,-1,Miss,0.468187899969,True,-1,stimulus_TOSY08_Yes-No Task_2019_Jun_18_1323_309,-1,False,2019_Jun_18_1323,Yes-No Task,2,TOSY08,
Yes-No Task,9,0,9,0,8.7,-1,Correct Rejection,0.40039939998,False,-1,stimulus_TOSY08_Yes-No Task_2019_Jun_18_1323_310,-1,False,2019_Jun_18_1323,Yes-No Task,2,TOSY08,
Yes-No Task,10,0,10,0,8.7,-1,Hit,0.633508400002,True,-1,stimulus_TOSY08_Yes-No Task_2019_Jun_18_1323_311,-1,False,2019_Jun_18_1323,Yes-No Task,2,TOSY08,
Yes-No Task,11,0,11,0,8.7,-1,Miss,0.334519799973,True,-1,stimulus_TOSY08_Yes-No Task_2019_Jun_18_1323_312,-1,False,2019_Jun_18_1323,Yes-No Task,2,TOSY08,
Yes-No Task,12,0,12,0,8.7,-1,Correct Rejection,0.432852600003,False,-1,stimulus_TOSY08_Yes-No Task_2019_Jun_18_1323_313,-1,False,2019_Jun_18_1323,Yes-No Task,2,TOSY08,
Yes-No Task,13,0,13,0,8.7,-1,Hit,0.467187300033,True,-1,stimulus_TOSY08_Yes-No Task_2019_Jun_18_1323_314,-1,False,2019_Jun_18_1323,Yes-No Task,2,TOSY08,
Yes-No Task,14,0,14,0,8.7,-1,Correct Rejection,0.400803200027,False,-1,stimulus_TOSY08_Yes-No Task_2019_Jun_18_1323_315,-1,False,2019_Jun_18_1323,Yes-No Task,2,TOSY08,
Yes-No Task,15,0,15,0,8.7,-1,False Alarm,0.300510300032,False,-1,stimulus_TOSY08_Yes-No Task_2019_Jun_18_1323_316,-1,False,2019_Jun_18_1323,Yes-No Task,2,TOSY08,
Yes-No Task,16,0,16,0,8.7,-1,Correct Rejection,0.367219000007,False,-1,stimulus_TOSY08_Yes-No Task_2019_Jun_18_1323_317,-1,False,2019_Jun_18_1323,Yes-No Task,2,TOSY08,
Yes-No Task,17,0,17,0,8.7,-1,Miss,0.467483200016,True,-1,stimulus_TOSY08_Yes-No Task_2019_Jun_18_1323_318,-1,False,2019_Jun_18_1323,Yes-No Task,2,TOSY08,
Yes-No Task,18,0,18,0,8.7,-1,Hit,0.400641200016,True,-1,stimulus_TOSY08_Yes-No Task_2019_Jun_18_1323_319,-1,False,2019_Jun_18_1323,Yes-No Task,2,TOSY08,
Yes-No Task,19,0,19,0,8.7,-1,Miss,0.267071200011,True,-1,stimulus_TOSY08_Yes-No Task_2019_Jun_18_1323_320,-1,False,2019_Jun_18_1323,Yes-No Task,2,TOSY08,
Yes-No Task,20,0,20,0,8.7,-1,Hit,0.300051200029,True,-1,stimulus_TOSY08_Yes-No Task_2019_Jun_18_1323_321,-1,False,2019_Jun_18_1323,Yes-No Task,2,TOSY08,
Yes-No Task,21,0,21,0,8.7,-1,Hit,0.434110500035,True,-1,stimulus_TOSY08_Yes-No Task_2019_Jun_18_1323_322,-1,False,2019_Jun_18_1323,Yes-No Task,2,TOSY08,
Yes-No Task,22,0,22,0,8.7,-1,Hit,0.334753899951,True,-1,stimulus_TOSY08_Yes-No Task_2019_Jun_18_1323_323,-1,False,2019_Jun_18_1323,Yes-No Task,2,TOSY08,
Yes-No Task,23,0,23,0,8.7,-1,False Alarm,0.335512499965,False,-1,stimulus_TOSY08_Yes-No Task_2019_Jun_18_1323_324,-1,False,2019_Jun_18_1323,Yes-No Task,2,TOSY08,
Yes-No Task,24,0,24,0,8.7,-1,Correct Rejection,0.399332799949,False,-1,stimulus_TOSY08_Yes-No Task_2019_Jun_18_1323_325,-1,False,2019_Jun_18_1323,Yes-No Task,2,TOSY08,
Yes-No Task,25,0,25,0,8.7,-1,Correct Rejection,0.367616700009,False,-1,stimulus_TOSY08_Yes-No Task_2019_Jun_18_1323_326,-1,False,2019_Jun_18_1323,Yes-No Task,2,TOSY08,
Yes-No Task,26,0,26,0,8.7,-1,Correct Rejection,0.432437499985,False,-1,stimulus_TOSY08_Yes-No Task_2019_Jun_18_1323_327,-1,False,2019_Jun_18_1323,Yes-No Task,2,TOSY08,
Yes-No Task,27,0,27,0,8.7,-1,Hit,0.466083300009,True,-1,stimulus_TOSY08_Yes-No Task_2019_Jun_18_1323_328,-1,False,2019_Jun_18_1323,Yes-No Task,2,TOSY08,
Yes-No Task,28,0,28,0,8.7,-1,Correct Rejection,0.36713920004,False,-1,stimulus_TOSY08_Yes-No Task_2019_Jun_18_1323_329,-1,False,2019_Jun_18_1323,Yes-No Task,2,TOSY08,
Yes-No Task,29,0,29,0,8.7,-1,Hit,0.333256399957,True,-1,stimulus_TOSY08_Yes-No Task_2019_Jun_18_1323_330,-1,False,2019_Jun_18_1323,Yes-No Task,2,TOSY08,
Yes-No Task,30,0,30,0,8.7,-1,False Alarm,0.566465899989,False,-1,stimulus_TOSY08_Yes-No Task_2019_Jun_18_1323_331,-1,False,2019_Jun_18_1323,Yes-No Task,2,TOSY08,
Yes-No Task,31,0,31,0,8.7,-1,Miss,0.300426800037,True,-1,stimulus_TOSY08_Yes-No Task_2019_Jun_18_1323_332,-1,False,2019_Jun_18_1323,Yes-No Task,2,TOSY08,
Yes-No Task,32,0,32,0,8.7,-1,False Alarm,0.334118500003,False,-1,stimulus_TOSY08_Yes-No Task_2019_Jun_18_1323_333,-1,False,2019_Jun_18_1323,Yes-No Task,2,TOSY08,
Yes-No Task,33,0,33,0,8.7,-1,Correct Rejection,0.533483899955,False,-1,stimulus_TOSY08_Yes-No Task_2019_Jun_18_1323_334,-1,False,2019_Jun_18_1323,Yes-No Task,2,TOSY08,
Yes-No Task,34,0,34,0,8.7,-1,Hit,0.600581099978,True,-1,stimulus_TOSY08_Yes-No Task_2019_Jun_18_1323_335,-1,False,2019_Jun_18_1323,Yes-No Task,2,TOSY08,
Yes-No Task,35,0,35,0,8.7,-1,Miss,0.400711499969,True,-1,stimulus_TOSY08_Yes-No Task_2019_Jun_18_1323_336,-1,False,2019_Jun_18_1323,Yes-No Task,2,TOSY08,
Yes-No Task,36,0,36,0,8.7,-1,Hit,0.300223099999,True,-1,stimulus_TOSY08_Yes-No Task_2019_Jun_18_1323_337,-1,False,2019_Jun_18_1323,Yes-No Task,2,TOSY08,
Yes-No Task,37,0,37,0,8.7,-1,Hit,0.401159000001,True,-1,stimulus_TOSY08_Yes-No Task_2019_Jun_18_1323_338,-1,False,2019_Jun_18_1323,Yes-No Task,2,TOSY08,
Yes-No Task,38,0,38,0,8.7,-1,Hit,0.499420800013,True,-1,stimulus_TOSY08_Yes-No Task_2019_Jun_18_1323_339,-1,False,2019_Jun_18_1323,Yes-No Task,2,TOSY08,
Yes-No Task,39,0,39,0,8.7,-1,Miss,0.26588620001,True,-1,stimulus_TOSY08_Yes-No Task_2019_Jun_18_1323_340,-1,False,2019_Jun_18_1323,Yes-No Task,2,TOSY08,
Yes-No Task,40,0,40,0,8.7,-1,Hit,0.099927800009,True,-1,stimulus_TOSY08_Yes-No Task_2019_Jun_18_1323_341,-1,False,2019_Jun_18_1323,Yes-No Task,2,TOSY08,
Yes-No Task,41,0,41,0,8.7,-1,False Alarm,0.432888000039,False,-1,stimulus_TOSY08_Yes-No Task_2019_Jun_18_1323_342,-1,False,2019_Jun_18_1323,Yes-No Task,2,TOSY08,
Yes-No Task,42,0,42,0,8.7,-1,Correct Rejection,0.401098300004,False,-1,stimulus_TOSY08_Yes-No Task_2019_Jun_18_1323_343,-1,False,2019_Jun_18_1323,Yes-No Task,2,TOSY08,
Yes-No Task,43,0,43,0,8.7,-1,Correct Rejection,0.367099699972,False,-1,stimulus_TOSY08_Yes-No Task_2019_Jun_18_1323_344,-1,False,2019_Jun_18_1323,Yes-No Task,2,TOSY08,
Yes-No Task,44,0,44,0,8.7,-1,Miss,0.400498599978,True,-1,stimulus_TOSY08_Yes-No Task_2019_Jun_18_1323_345,-1,False,2019_Jun_18_1323,Yes-No Task,2,TOSY08,
Yes-No Task,45,0,45,0,8.7,-1,Hit,0.133844900003,True,-1,stimulus_TOSY08_Yes-No Task_2019_Jun_18_1323_346,-1,False,2019_Jun_18_1323,Yes-No Task,2,TOSY08,
Yes-No Task,46,0,46,0,8.7,-1,Correct Rejection,0.300175799988,False,-1,stimulus_TOSY08_Yes-No Task_2019_Jun_18_1323_347,-1,False,2019_Jun_18_1323,Yes-No Task,2,TOSY08,
Yes-No Task,47,0,47,0,8.7,-1,Correct Rejection,0.433657999965,False,-1,stimulus_TOSY08_Yes-No Task_2019_Jun_18_1323_348,-1,False,2019_Jun_18_1323,Yes-No Task,2,TOSY08,
Yes-No Task,48,0,48,0,8.7,-1,Correct Rejection,0.333532300021,False,-1,stimulus_TOSY08_Yes-No Task_2019_Jun_18_1323_349,-1,False,2019_Jun_18_1323,Yes-No Task,2,TOSY08,
Yes-No Task,49,0,49,0,8.7,-1,Hit,0.465961599955,True,-1,stimulus_TOSY08_Yes-No Task_2019_Jun_18_1323_350,-1,False,2019_Jun_18_1323,Yes-No Task,2,TOSY08,
Yes-No Task,50,0,50,0,8.7,-1,Correct Rejection,0.334885700024,False,-1,stimulus_TOSY08_Yes-No Task_2019_Jun_18_1323_351,-1,False,2019_Jun_18_1323,Yes-No Task,2,TOSY08,
Yes-No Task,51,0,51,0,8.7,-1,Hit,0.336535799957,True,-1,stimulus_TOSY08_Yes-No Task_2019_Jun_18_1323_352,-1,False,2019_Jun_18_1323,Yes-No Task,2,TOSY08,
Yes-No Task,52,0,52,0,8.7,-1,Correct Rejection,0.333704799996,False,-1,stimulus_TOSY08_Yes-No Task_2019_Jun_18_1323_353,-1,False,2019_Jun_18_1323,Yes-No Task,2,TOSY08,
Yes-No Task,53,0,53,0,8.7,-1,False Alarm,0.266525999992,False,-1,stimulus_TOSY08_Yes-No Task_2019_Jun_18_1323_354,-1,False,2019_Jun_18_1323,Yes-No Task,2,TOSY08,
Yes-No Task,54,0,54,0,8.7,-1,Miss,0.166709500016,True,-1,stimulus_TOSY08_Yes-No Task_2019_Jun_18_1323_355,-1,False,2019_Jun_18_1323,Yes-No Task,2,TOSY08,
Yes-No Task,55,0,55,0,8.7,-1,Miss,0.233230700018,True,-1,stimulus_TOSY08_Yes-No Task_2019_Jun_18_1323_356,-1,False,2019_Jun_18_1323,Yes-No Task,2,TOSY08,
Yes-No Task,56,0,56,0,8.7,-1,Correct Rejection,0.267047700007,False,-1,stimulus_TOSY08_Yes-No Task_2019_Jun_18_1323_357,-1,False,2019_Jun_18_1323,Yes-No Task,2,TOSY08,
Yes-No Task,57,0,57,0,8.7,-1,Miss,0.401992500003,True,-1,stimulus_TOSY08_Yes-No Task_2019_Jun_18_1323_358,-1,False,2019_Jun_18_1323,Yes-No Task,2,TOSY08,
Yes-No Task,58,0,58,0,8.7,-1,False Alarm,0.204367599974,False,-1,stimulus_TOSY08_Yes-No Task_2019_Jun_18_1323_359,-1,False,2019_Jun_18_1323,Yes-No Task,2,TOSY08,
Yes-No Task,59,0,59,0,8.7,-1,Correct Rejection,0.166780399974,False,-1,stimulus_TOSY08_Yes-No Task_2019_Jun_18_1323_360,-1,False,2019_Jun_18_1323,Yes-No Task,2,TOSY08,
Yes-No Task,60,0,60,0,8.7,-1,Correct Rejection,0.267782200011,False,-1,stimulus_TOSY08_Yes-No Task_2019_Jun_18_1323_361,-1,False,2019_Jun_18_1323,Yes-No Task,2,TOSY08,
Yes-No Task,61,0,61,0,8.7,-1,Correct Rejection,0.167023099959,False,-1,stimulus_TOSY08_Yes-No Task_2019_Jun_18_1323_362,-1,False,2019_Jun_18_1323,Yes-No Task,2,TOSY08,
Yes-No Task,62,0,62,0,8.7,-1,False Alarm,0.233958200028,False,-1,stimulus_TOSY08_Yes-No Task_2019_Jun_18_1323_363,-1,False,2019_Jun_18_1323,Yes-No Task,2,TOSY08,
Yes-No Task,63,0,63,0,8.7,-1,Miss,0.0670910999761,True,-1,stimulus_TOSY08_Yes-No Task_2019_Jun_18_1323_364,-1,False,2019_Jun_18_1323,Yes-No Task,2,TOSY08,
Yes-No Task,64,0,64,0,8.7,-1,Miss,0.200667000026,True,-1,stimulus_TOSY08_Yes-No Task_2019_Jun_18_1323_365,-1,False,2019_Jun_18_1323,Yes-No Task,2,TOSY08,
Yes-No Task,65,0,65,0,8.7,-1,Hit,0.0669534999761,True,-1,stimulus_TOSY08_Yes-No Task_2019_Jun_18_1323_366,-1,False,2019_Jun_18_1323,Yes-No Task,2,TOSY08,
Yes-No Task,66,0,66,0,8.7,-1,False Alarm,0.233601499989,False,-1,stimulus_TOSY08_Yes-No Task_2019_Jun_18_1323_367,-1,False,2019_Jun_18_1323,Yes-No Task,2,TOSY08,
Yes-No Task,67,0,67,0,8.7,-1,Correct Rejection,0.468903799949,False,-1,stimulus_TOSY08_Yes-No Task_2019_Jun_18_1323_368,-1,False,2019_Jun_18_1323,Yes-No Task,2,TOSY08,
Yes-No Task,68,0,68,0,8.7,-1,Correct Rejection,0.300658399996,False,-1,stimulus_TOSY08_Yes-No Task_2019_Jun_18_1323_369,-1,False,2019_Jun_18_1323,Yes-No Task,2,TOSY08,
Yes-No Task,69,0,69,0,8.7,-1,Miss,0.266858699964,True,-1,stimulus_TOSY08_Yes-No Task_2019_Jun_18_1323_370,-1,False,2019_Jun_18_1323,Yes-No Task,2,TOSY08,
Yes-No Task,70,0,70,0,8.7,-1,Correct Rejection,0.16690880002,False,-1,stimulus_TOSY08_Yes-No Task_2019_Jun_18_1323_371,-1,False,2019_Jun_18_1323,Yes-No Task,2,TOSY08,
Yes-No Task,71,0,71,0,8.7,-1,False Alarm,0.234141899971,False,-1,stimulus_TOSY08_Yes-No Task_2019_Jun_18_1323_372,-1,False,2019_Jun_18_1323,Yes-No Task,2,TOSY08,
Yes-No Task,72,0,72,0,8.7,-1,Correct Rejection,0.167888300028,False,-1,stimulus_TOSY08_Yes-No Task_2019_Jun_18_1323_373,-1,False,2019_Jun_18_1323,Yes-No Task,2,TOSY08,
Yes-No Task,73,0,73,0,8.7,-1,Miss,0.167010899982,True,-1,stimulus_TOSY08_Yes-No Task_2019_Jun_18_1323_374,-1,False,2019_Jun_18_1323,Yes-No Task,2,TOSY08,
Yes-No Task,74,0,74,0,8.7,-1,Hit,0.100208399992,True,-1,stimulus_TOSY08_Yes-No Task_2019_Jun_18_1323_375,-1,False,2019_Jun_18_1323,Yes-No Task,2,TOSY08,
Yes-No Task,0,0,0,0,7.7,-1,Correct Rejection,0.600722300005,False,-1,stimulus_TOSY08_Yes-No Task_2019_Jun_18_1323_376,-1,False,2019_Jun_18_1323,Yes-No Task,2,TOSY08,
Yes-No Task,1,0,1,0,7.7,-1,Miss,0.367255400051,True,-1,stimulus_TOSY08_Yes-No Task_2019_Jun_18_1323_377,-1,False,2019_Jun_18_1323,Yes-No Task,2,TOSY08,
Yes-No Task,2,0,2,0,7.7,-1,Hit,0.36730719998,True,-1,stimulus_TOSY08_Yes-No Task_2019_Jun_18_1323_378,-1,False,2019_Jun_18_1323,Yes-No Task,2,TOSY08,
Yes-No Task,3,0,3,0,7.7,-1,Hit,0.368632600002,True,-1,stimulus_TOSY08_Yes-No Task_2019_Jun_18_1323_379,-1,False,2019_Jun_18_1323,Yes-No Task,2,TOSY08,
Yes-No Task,4,0,4,0,7.7,-1,False Alarm,0.265824800008,False,-1,stimulus_TOSY08_Yes-No Task_2019_Jun_18_1323_380,-1,False,2019_Jun_18_1323,Yes-No Task,2,TOSY08,
Yes-No Task,5,0,5,0,7.7,-1,Miss,0.266845199978,True,-1,stimulus_TOSY08_Yes-No Task_2019_Jun_18_1323_381,-1,False,2019_Jun_18_1323,Yes-No Task,2,TOSY08,
Yes-No Task,6,0,6,0,7.7,-1,Hit,0.200345800025,True,-1,stimulus_TOSY08_Yes-No Task_2019_Jun_18_1323_382,-1,False,2019_Jun_18_1323,Yes-No Task,2,TOSY08,
Yes-No Task,7,0,7,0,7.7,-1,False Alarm,0.367562200001,False,-1,stimulus_TOSY08_Yes-No Task_2019_Jun_18_1323_383,-1,False,2019_Jun_18_1323,Yes-No Task,2,TOSY08,
Yes-No Task,8,0,8,0,7.7,-1,Miss,0.167561999988,True,-1,stimulus_TOSY08_Yes-No Task_2019_Jun_18_1323_384,-1,False,2019_Jun_18_1323,Yes-No Task,2,TOSY08,
Yes-No Task,9,0,9,0,7.7,-1,Miss,0.499582499964,True,-1,stimulus_TOSY08_Yes-No Task_2019_Jun_18_1323_385,-1,False,2019_Jun_18_1323,Yes-No Task,2,TOSY08,
Yes-No Task,10,0,10,0,7.7,-1,Hit,0.567434200027,True,-1,stimulus_TOSY08_Yes-No Task_2019_Jun_18_1323_386,-1,False,2019_Jun_18_1323,Yes-No Task,2,TOSY08,
Yes-No Task,11,0,11,0,7.7,-1,Correct Rejection,0.333705099998,False,-1,stimulus_TOSY08_Yes-No Task_2019_Jun_18_1323_387,-1,False,2019_Jun_18_1323,Yes-No Task,2,TOSY08,
Yes-No Task,12,0,12,0,7.7,-1,Correct Rejection,0.50062419998,False,-1,stimulus_TOSY08_Yes-No Task_2019_Jun_18_1323_388,-1,False,2019_Jun_18_1323,Yes-No Task,2,TOSY08,
Yes-No Task,13,0,13,0,7.7,-1,Hit,0.366834899993,True,-1,stimulus_TOSY08_Yes-No Task_2019_Jun_18_1323_389,-1,False,2019_Jun_18_1323,Yes-No Task,2,TOSY08,
Yes-No Task,14,0,14,0,7.7,-1,Miss,0.30071140005,True,-1,stimulus_TOSY08_Yes-No Task_2019_Jun_18_1323_390,-1,False,2019_Jun_18_1323,Yes-No Task,2,TOSY08,
Yes-No Task,15,0,15,0,7.7,-1,Hit,0.300537800009,True,-1,stimulus_TOSY08_Yes-No Task_2019_Jun_18_1323_391,-1,False,2019_Jun_18_1323,Yes-No Task,2,TOSY08,
Yes-No Task,16,0,16,0,7.7,-1,Miss,0.302532500005,True,-1,stimulus_TOSY08_Yes-No Task_2019_Jun_18_1323_392,-1,False,2019_Jun_18_1323,Yes-No Task,2,TOSY08,
Yes-No Task,17,0,17,0,7.7,-1,Hit,0.266970900004,True,-1,stimulus_TOSY08_Yes-No Task_2019_Jun_18_1323_393,-1,False,2019_Jun_18_1323,Yes-No Task,2,TOSY08,
Yes-No Task,18,0,18,0,7.7,-1,False Alarm,0.265049999987,False,-1,stimulus_TOSY08_Yes-No Task_2019_Jun_18_1323_394,-1,False,2019_Jun_18_1323,Yes-No Task,2,TOSY08,
Yes-No Task,19,0,19,0,7.7,-1,Miss,0.26889279997,True,-1,stimulus_TOSY08_Yes-No Task_2019_Jun_18_1323_395,-1,False,2019_Jun_18_1323,Yes-No Task,2,TOSY08,
Yes-No Task,20,0,20,0,7.7,-1,Hit,0.0335579999955,True,-1,stimulus_TOSY08_Yes-No Task_2019_Jun_18_1323_396,-1,False,2019_Jun_18_1323,Yes-No Task,2,TOSY08,
Yes-No Task,21,0,21,0,7.7,-1,Correct Rejection,0.600447000004,False,-1,stimulus_TOSY08_Yes-No Task_2019_Jun_18_1323_397,-1,False,2019_Jun_18_1323,Yes-No Task,2,TOSY08,
Yes-No Task,22,0,22,0,7.7,-1,Hit,0.234922099975,True,-1,stimulus_TOSY08_Yes-No Task_2019_Jun_18_1323_398,-1,False,2019_Jun_18_1323,Yes-No Task,2,TOSY08,
Yes-No Task,23,0,23,0,7.7,-1,Miss,0.233780900016,True,-1,stimulus_TOSY08_Yes-No Task_2019_Jun_18_1323_399,-1,False,2019_Jun_18_1323,Yes-No Task,2,TOSY08,
Yes-No Task,24,0,24,0,7.7,-1,Hit,0.0339210000238,True,-1,stimulus_TOSY08_Yes-No Task_2019_Jun_18_1323_400,-1,False,2019_Jun_18_1323,Yes-No Task,2,TOSY08,
Yes-No Task,25,0,25,0,7.7,-1,Miss,0.267953799979,True,-1,stimulus_TOSY08_Yes-No Task_2019_Jun_18_1323_401,-1,False,2019_Jun_18_1323,Yes-No Task,2,TOSY08,
Yes-No Task,26,0,26,0,7.7,-1,False Alarm,0.233662099985,False,-1,stimulus_TOSY08_Yes-No Task_2019_Jun_18_1323_402,-1,False,2019_Jun_18_1323,Yes-No Task,2,TOSY08,
Yes-No Task,27,0,27,0,7.7,-1,Miss,0.133316499996,True,-1,stimulus_TOSY08_Yes-No Task_2019_Jun_18_1323_403,-1,False,2019_Jun_18_1323,Yes-No Task,2,TOSY08,
Yes-No Task,28,0,28,0,7.7,-1,Miss,0.133625800023,True,-1,stimulus_TOSY08_Yes-No Task_2019_Jun_18_1323_404,-1,False,2019_Jun_18_1323,Yes-No Task,2,TOSY08,
Yes-No Task,29,0,29,0,7.7,-1,Hit,0.0669583000126,True,-1,stimulus_TOSY08_Yes-No Task_2019_Jun_18_1323_405,-1,False,2019_Jun_18_1323,Yes-No Task,2,TOSY08,
Yes-No Task,30,0,30,0,7.7,-1,False Alarm,0.333481899987,False,-1,stimulus_TOSY08_Yes-No Task_2019_Jun_18_1323_406,-1,False,2019_Jun_18_1323,Yes-No Task,2,TOSY08,
Yes-No Task,31,0,31,0,7.7,-1,Miss,0.300055500004,True,-1,stimulus_TOSY08_Yes-No Task_2019_Jun_18_1323_407,-1,False,2019_Jun_18_1323,Yes-No Task,2,TOSY08,
Yes-No Task,32,0,32,0,7.7,-1,False Alarm,0.135202099977,False,-1,stimulus_TOSY08_Yes-No Task_2019_Jun_18_1323_408,-1,False,2019_Jun_18_1323,Yes-No Task,2,TOSY08,
Yes-No Task,33,0,33,0,7.7,-1,No Answer,-1,True,-1,stimulus_TOSY08_Yes-No Task_2019_Jun_18_1323_409,-1,False,2019_Jun_18_1323,Yes-No Task,2,TOSY08,
Yes-No Task,34,0,34,0,7.7,-1,Correct Rejection,0.335890899994,False,-1,stimulus_TOSY08_Yes-No Task_2019_Jun_18_1323_410,-1,False,2019_Jun_18_1323,Yes-No Task,2,TOSY08,
Yes-No Task,35,0,35,0,7.7,-1,Miss,0.36681159999,True,-1,stimulus_TOSY08_Yes-No Task_2019_Jun_18_1323_411,-1,False,2019_Jun_18_1323,Yes-No Task,2,TOSY08,
Yes-No Task,36,0,36,0,7.7,-1,Miss,0.233660200029,True,-1,stimulus_TOSY08_Yes-No Task_2019_Jun_18_1323_412,-1,False,2019_Jun_18_1323,Yes-No Task,2,TOSY08,
Yes-No Task,37,0,37,0,7.7,-1,False Alarm,0.0669398999889,False,-1,stimulus_TOSY08_Yes-No Task_2019_Jun_18_1323_413,-1,False,2019_Jun_18_1323,Yes-No Task,2,TOSY08,
Yes-No Task,38,0,38,0,7.7,-1,Miss,0.267824399984,True,-1,stimulus_TOSY08_Yes-No Task_2019_Jun_18_1323_414,-1,False,2019_Jun_18_1323,Yes-No Task,2,TOSY08,
Yes-No Task,39,0,39,0,7.7,-1,No Answer,-1,False,-1,stimulus_TOSY08_Yes-No Task_2019_Jun_18_1323_415,-1,False,2019_Jun_18_1323,Yes-No Task,2,TOSY08,
Yes-No Task,40,0,40,0,7.7,-1,Hit,0.100660800003,True,-1,stimulus_TOSY08_Yes-No Task_2019_Jun_18_1323_416,-1,False,2019_Jun_18_1323,Yes-No Task,2,TOSY08,
Yes-No Task,41,0,41,0,7.7,-1,Correct Rejection,0.601098400017,False,-1,stimulus_TOSY08_Yes-No Task_2019_Jun_18_1323_417,-1,False,2019_Jun_18_1323,Yes-No Task,2,TOSY08,
Yes-No Task,42,0,42,0,7.7,-1,False Alarm,0.466979000019,False,-1,stimulus_TOSY08_Yes-No Task_2019_Jun_18_1323_418,-1,False,2019_Jun_18_1323,Yes-No Task,2,TOSY08,
Yes-No Task,43,0,43,0,7.7,-1,Miss,0.20062290004,True,-1,stimulus_TOSY08_Yes-No Task_2019_Jun_18_1323_419,-1,False,2019_Jun_18_1323,Yes-No Task,2,TOSY08,
Yes-No Task,44,0,44,0,7.7,-1,False Alarm,0.23311500001,False,-1,stimulus_TOSY08_Yes-No Task_2019_Jun_18_1323_420,-1,False,2019_Jun_18_1323,Yes-No Task,2,TOSY08,
Yes-No Task,45,0,45,0,7.7,-1,Miss,0.430415900017,True,-1,stimulus_TOSY08_Yes-No Task_2019_Jun_18_1323_421,-1,False,2019_Jun_18_1323,Yes-No Task,2,TOSY08,
Yes-No Task,46,0,46,0,7.7,-1,Hit,0.299721600022,True,-1,stimulus_TOSY08_Yes-No Task_2019_Jun_18_1323_422,-1,False,2019_Jun_18_1323,Yes-No Task,2,TOSY08,
Yes-No Task,47,0,47,0,7.7,-1,Correct Rejection,0.534068499983,False,-1,stimulus_TOSY08_Yes-No Task_2019_Jun_18_1323_423,-1,False,2019_Jun_18_1323,Yes-No Task,2,TOSY08,
Yes-No Task,48,0,48,0,7.7,-1,Miss,0.433257099998,True,-1,stimulus_TOSY08_Yes-No Task_2019_Jun_18_1323_424,-1,False,2019_Jun_18_1323,Yes-No Task,2,TOSY08,
Yes-No Task,49,0,49,0,7.7,-1,Hit,0.133831000014,True,-1,stimulus_TOSY08_Yes-No Task_2019_Jun_18_1323_425,-1,False,2019_Jun_18_1323,Yes-No Task,2,TOSY08,
Yes-No Task,50,0,50,0,7.7,-1,Miss,0.1676859,True,-1,stimulus_TOSY08_Yes-No Task_2019_Jun_18_1323_426,-1,False,2019_Jun_18_1323,Yes-No Task,2,TOSY08,
Yes-No Task,51,0,51,0,7.7,-1,Hit,0.334153000033,True,-1,stimulus_TOSY08_Yes-No Task_2019_Jun_18_1323_427,-1,False,2019_Jun_18_1323,Yes-No Task,2,TOSY08,
Yes-No Task,52,0,52,0,7.7,-1,False Alarm,0.533951000019,False,-1,stimulus_TOSY08_Yes-No Task_2019_Jun_18_1323_428,-1,False,2019_Jun_18_1323,Yes-No Task,2,TOSY08,
Yes-No Task,53,0,53,0,7.7,-1,Miss,0.367179100052,True,-1,stimulus_TOSY08_Yes-No Task_2019_Jun_18_1323_429,-1,False,2019_Jun_18_1323,Yes-No Task,2,TOSY08,
Yes-No Task,54,0,54,0,7.7,-1,Hit,0.133628699987,True,-1,stimulus_TOSY08_Yes-No Task_2019_Jun_18_1323_430,-1,False,2019_Jun_18_1323,Yes-No Task,2,TOSY08,
Yes-No Task,55,0,55,0,7.7,-1,Miss,0.100157600013,True,-1,stimulus_TOSY08_Yes-No Task_2019_Jun_18_1323_431,-1,False,2019_Jun_18_1323,Yes-No Task,2,TOSY08,
Yes-No Task,56,0,56,0,7.7,-1,False Alarm,0.133887100033,False,-1,stimulus_TOSY08_Yes-No Task_2019_Jun_18_1323_432,-1,False,2019_Jun_18_1323,Yes-No Task,2,TOSY08,
Yes-No Task,57,0,57,0,7.7,-1,No Answer,-1,True,-1,stimulus_TOSY08_Yes-No Task_2019_Jun_18_1323_433,-1,False,2019_Jun_18_1323,Yes-No Task,2,TOSY08,
Yes-No Task,58,0,58,0,7.7,-1,Miss,0.0334190000431,True,-1,stimulus_TOSY08_Yes-No Task_2019_Jun_18_1323_434,-1,False,2019_Jun_18_1323,Yes-No Task,2,TOSY08,
Yes-No Task,59,0,59,0,7.7,-1,Miss,0.233778099995,True,-1,stimulus_TOSY08_Yes-No Task_2019_Jun_18_1323_435,-1,False,2019_Jun_18_1323,Yes-No Task,2,TOSY08,
Yes-No Task,60,0,60,0,7.7,-1,Hit,0.734639900038,True,-1,stimulus_TOSY08_Yes-No Task_2019_Jun_18_1323_436,-1,False,2019_Jun_18_1323,Yes-No Task,2,TOSY08,
Yes-No Task,61,0,61,0,7.7,-1,Correct Rejection,0.467458800005,False,-1,stimulus_TOSY08_Yes-No Task_2019_Jun_18_1323_437,-1,False,2019_Jun_18_1323,Yes-No Task,2,TOSY08,
Yes-No Task,62,0,62,0,7.7,-1,Correct Rejection,0.534217800014,False,-1,stimulus_TOSY08_Yes-No Task_2019_Jun_18_1323_438,-1,False,2019_Jun_18_1323,Yes-No Task,2,TOSY08,
Yes-No Task,63,0,63,0,7.7,-1,Miss,0.331590399961,True,-1,stimulus_TOSY08_Yes-No Task_2019_Jun_18_1323_439,-1,False,2019_Jun_18_1323,Yes-No Task,2,TOSY08,
Yes-No Task,64,0,64,0,7.7,-1,Hit,0.267031299998,True,-1,stimulus_TOSY08_Yes-No Task_2019_Jun_18_1323_440,-1,False,2019_Jun_18_1323,Yes-No Task,2,TOSY08,
Yes-No Task,65,0,65,0,7.7,-1,False Alarm,0.433604600024,False,-1,stimulus_TOSY08_Yes-No Task_2019_Jun_18_1323_441,-1,False,2019_Jun_18_1323,Yes-No Task,2,TOSY08,
Yes-No Task,66,0,66,0,7.7,-1,Correct Rejection,0.466539699992,False,-1,stimulus_TOSY08_Yes-No Task_2019_Jun_18_1323_442,-1,False,2019_Jun_18_1323,Yes-No Task,2,TOSY08,
Yes-No Task,67,0,67,0,7.7,-1,Correct Rejection,0.300483800005,False,-1,stimulus_TOSY08_Yes-No Task_2019_Jun_18_1323_443,-1,False,2019_Jun_18_1323,Yes-No Task,2,TOSY08,
Yes-No Task,68,0,68,0,7.7,-1,Miss,0.334647900017,True,-1,stimulus_TOSY08_Yes-No Task_2019_Jun_18_1323_444,-1,False,2019_Jun_18_1323,Yes-No Task,2,TOSY08,
Yes-No Task,69,0,69,0,7.7,-1,False Alarm,0.133330000041,False,-1,stimulus_TOSY08_Yes-No Task_2019_Jun_18_1323_445,-1,False,2019_Jun_18_1323,Yes-No Task,2,TOSY08,
Yes-No Task,70,0,70,0,7.7,-1,Miss,0.300214799994,True,-1,stimulus_TOSY08_Yes-No Task_2019_Jun_18_1323_446,-1,False,2019_Jun_18_1323,Yes-No Task,2,TOSY08,
Yes-No Task,71,0,71,0,7.7,-1,Hit,0.1003317,True,-1,stimulus_TOSY08_Yes-No Task_2019_Jun_18_1323_447,-1,False,2019_Jun_18_1323,Yes-No Task,2,TOSY08,
Yes-No Task,72,0,72,0,7.7,-1,Correct Rejection,0.265938299999,False,-1,stimulus_TOSY08_Yes-No Task_2019_Jun_18_1323_448,-1,False,2019_Jun_18_1323,Yes-No Task,2,TOSY08,
Yes-No Task,73,0,73,0,7.7,-1,Correct Rejection,0.333388899977,False,-1,stimulus_TOSY08_Yes-No Task_2019_Jun_18_1323_449,-1,False,2019_Jun_18_1323,Yes-No Task,2,TOSY08,
Yes-No Task,74,0,74,0,7.7,-1,Miss,0.333754199964,True,-1,stimulus_TOSY08_Yes-No Task_2019_Jun_18_1323_450,-1,False,2019_Jun_18_1323,Yes-No Task,2,TOSY08,
Yes-No Task,0,0,0,0,10.7,-1,No Answer,-1,False,-1,stimulus_TOSY08_Yes-No Task_2019_Jun_18_1323_451,-1,False,2019_Jun_18_1323,Yes-No Task,2,TOSY08,
Yes-No Task,1,0,1,0,10.7,-1,Correct Rejection,0.60047309997,False,-1,stimulus_TOSY08_Yes-No Task_2019_Jun_18_1323_452,-1,False,2019_Jun_18_1323,Yes-No Task,2,TOSY08,
Yes-No Task,2,0,2,0,10.7,-1,Miss,0.434286300035,True,-1,stimulus_TOSY08_Yes-No Task_2019_Jun_18_1323_453,-1,False,2019_Jun_18_1323,Yes-No Task,2,TOSY08,
Yes-No Task,3,0,3,0,10.7,-1,Miss,0.267473999993,True,-1,stimulus_TOSY08_Yes-No Task_2019_Jun_18_1323_454,-1,False,2019_Jun_18_1323,Yes-No Task,2,TOSY08,
Yes-No Task,4,0,4,0,10.7,-1,False Alarm,0.233775499975,False,-1,stimulus_TOSY08_Yes-No Task_2019_Jun_18_1323_455,-1,False,2019_Jun_18_1323,Yes-No Task,2,TOSY08,
Yes-No Task,5,0,5,0,10.7,-1,Correct Rejection,0.267481499992,False,-1,stimulus_TOSY08_Yes-No Task_2019_Jun_18_1323_456,-1,False,2019_Jun_18_1323,Yes-No Task,2,TOSY08,
Yes-No Task,6,0,6,0,10.7,-1,Miss,0.53434090002,True,-1,stimulus_TOSY08_Yes-No Task_2019_Jun_18_1323_457,-1,False,2019_Jun_18_1323,Yes-No Task,2,TOSY08,
Yes-No Task,7,0,7,0,10.7,-1,False Alarm,0.299386499973,False,-1,stimulus_TOSY08_Yes-No Task_2019_Jun_18_1323_458,-1,False,2019_Jun_18_1323,Yes-No Task,2,TOSY08,
Yes-No Task,8,0,8,0,10.7,-1,Correct Rejection,0.200338200026,False,-1,stimulus_TOSY08_Yes-No Task_2019_Jun_18_1323_459,-1,False,2019_Jun_18_1323,Yes-No Task,2,TOSY08,
Yes-No Task,9,0,9,0,10.7,-1,Miss,0.6339439,True,-1,stimulus_TOSY08_Yes-No Task_2019_Jun_18_1323_460,-1,False,2019_Jun_18_1323,Yes-No Task,2,TOSY08,
Yes-No Task,10,0,10,0,10.7,-1,Correct Rejection,0.167372600001,False,-1,stimulus_TOSY08_Yes-No Task_2019_Jun_18_1323_461,-1,False,2019_Jun_18_1323,Yes-No Task,2,TOSY08,
Yes-No Task,11,0,11,0,10.7,-1,Correct Rejection,0.601299499976,False,-1,stimulus_TOSY08_Yes-No Task_2019_Jun_18_1323_462,-1,False,2019_Jun_18_1323,Yes-No Task,2,TOSY08,
Yes-No Task,12,0,12,0,10.7,-1,Hit,0.69979839999,True,-1,stimulus_TOSY08_Yes-No Task_2019_Jun_18_1323_463,-1,False,2019_Jun_18_1323,Yes-No Task,2,TOSY08,
Yes-No Task,13,0,13,0,10.7,-1,Correct Rejection,0.434012800048,False,-1,stimulus_TOSY08_Yes-No Task_2019_Jun_18_1323_464,-1,False,2019_Jun_18_1323,Yes-No Task,2,TOSY08,
Yes-No Task,14,0,14,0,10.7,-1,False Alarm,0.466984600003,False,-1,stimulus_TOSY08_Yes-No Task_2019_Jun_18_1323_465,-1,False,2019_Jun_18_1323,Yes-No Task,2,TOSY08,
Yes-No Task,15,0,15,0,10.7,-1,Hit,0.466658800025,True,-1,stimulus_TOSY08_Yes-No Task_2019_Jun_18_1323_466,-1,False,2019_Jun_18_1323,Yes-No Task,2,TOSY08,
Yes-No Task,16,0,16,0,10.7,-1,Hit,0.467506300018,True,-1,stimulus_TOSY08_Yes-No Task_2019_Jun_18_1323_467,-1,False,2019_Jun_18_1323,Yes-No Task,2,TOSY08,
Yes-No Task,17,0,17,0,10.7,-1,False Alarm,0.534406199993,False,-1,stimulus_TOSY08_Yes-No Task_2019_Jun_18_1323_468,-1,False,2019_Jun_18_1323,Yes-No Task,2,TOSY08,
Yes-No Task,18,0,18,0,10.7,-1,Correct Rejection,0.300279500021,False,-1,stimulus_TOSY08_Yes-No Task_2019_Jun_18_1323_469,-1,False,2019_Jun_18_1323,Yes-No Task,2,TOSY08,
Yes-No Task,19,0,19,0,10.7,-1,Miss,0.535108400043,True,-1,stimulus_TOSY08_Yes-No Task_2019_Jun_18_1323_470,-1,False,2019_Jun_18_1323,Yes-No Task,2,TOSY08,
Yes-No Task,20,0,20,0,10.7,-1,Miss,0.335605099972,True,-1,stimulus_TOSY08_Yes-No Task_2019_Jun_18_1323_471,-1,False,2019_Jun_18_1323,Yes-No Task,2,TOSY08,
Yes-No Task,21,0,21,0,10.7,-1,Hit,0.30024110002,True,-1,stimulus_TOSY08_Yes-No Task_2019_Jun_18_1323_472,-1,False,2019_Jun_18_1323,Yes-No Task,2,TOSY08,
Yes-No Task,22,0,22,0,10.7,-1,Hit,0.500563799986,True,-1,stimulus_TOSY08_Yes-No Task_2019_Jun_18_1323_473,-1,False,2019_Jun_18_1323,Yes-No Task,2,TOSY08,
Yes-No Task,23,0,23,0,10.7,-1,Hit,0.467337500013,True,-1,stimulus_TOSY08_Yes-No Task_2019_Jun_18_1323_474,-1,False,2019_Jun_18_1323,Yes-No Task,2,TOSY08,
Yes-No Task,24,0,24,0,10.7,-1,Hit,0.399833399977,True,-1,stimulus_TOSY08_Yes-No Task_2019_Jun_18_1323_475,-1,False,2019_Jun_18_1323,Yes-No Task,2,TOSY08,
Yes-No Task,25,0,25,0,10.7,-1,Hit,0.336991500051,True,-1,stimulus_TOSY08_Yes-No Task_2019_Jun_18_1323_476,-1,False,2019_Jun_18_1323,Yes-No Task,2,TOSY08,
Yes-No Task,26,0,26,0,10.7,-1,False Alarm,0.367954599962,False,-1,stimulus_TOSY08_Yes-No Task_2019_Jun_18_1323_477,-1,False,2019_Jun_18_1323,Yes-No Task,2,TOSY08,
Yes-No Task,27,0,27,0,10.7,-1,Correct Rejection,0.333054599992,False,-1,stimulus_TOSY08_Yes-No Task_2019_Jun_18_1323_478,-1,False,2019_Jun_18_1323,Yes-No Task,2,TOSY08,
Yes-No Task,28,0,28,0,10.7,-1,Correct Rejection,0.665936099947,False,-1,stimulus_TOSY08_Yes-No Task_2019_Jun_18_1323_479,-1,False,2019_Jun_18_1323,Yes-No Task,2,TOSY08,
Yes-No Task,29,0,29,0,10.7,-1,Correct Rejection,0.568532100006,False,-1,stimulus_TOSY08_Yes-No Task_2019_Jun_18_1323_480,-1,False,2019_Jun_18_1323,Yes-No Task,2,TOSY08,
Yes-No Task,30,0,30,0,10.7,-1,Hit,0.4345951,True,-1,stimulus_TOSY08_Yes-No Task_2019_Jun_18_1323_481,-1,False,2019_Jun_18_1323,Yes-No Task,2,TOSY08,
Yes-No Task,31,0,31,0,10.7,-1,Hit,0.467242199986,True,-1,stimulus_TOSY08_Yes-No Task_2019_Jun_18_1323_482,-1,False,2019_Jun_18_1323,Yes-No Task,2,TOSY08,
Yes-No Task,32,0,32,0,10.7,-1,False Alarm,0.3679902,False,-1,stimulus_TOSY08_Yes-No Task_2019_Jun_18_1323_483,-1,False,2019_Jun_18_1323,Yes-No Task,2,TOSY08,
Yes-No Task,33,0,33,0,10.7,-1,Miss,0.334188499954,True,-1,stimulus_TOSY08_Yes-No Task_2019_Jun_18_1323_484,-1,False,2019_Jun_18_1323,Yes-No Task,2,TOSY08,
Yes-No Task,34,0,34,0,10.7,-1,False Alarm,0.266981999972,False,-1,stimulus_TOSY08_Yes-No Task_2019_Jun_18_1323_485,-1,False,2019_Jun_18_1323,Yes-No Task,2,TOSY08,
Yes-No Task,35,0,35,0,10.7,-1,Correct Rejection,0.53405919997,False,-1,stimulus_TOSY08_Yes-No Task_2019_Jun_18_1323_486,-1,False,2019_Jun_18_1323,Yes-No Task,2,TOSY08,
Yes-No Task,36,0,36,0,10.7,-1,Hit,0.433933299966,True,-1,stimulus_TOSY08_Yes-No Task_2019_Jun_18_1323_487,-1,False,2019_Jun_18_1323,Yes-No Task,2,TOSY08,
Yes-No Task,37,0,37,0,10.7,-1,Correct Rejection,0.501508800022,False,-1,stimulus_TOSY08_Yes-No Task_2019_Jun_18_1323_488,-1,False,2019_Jun_18_1323,Yes-No Task,2,TOSY08,
Yes-No Task,38,0,38,0,10.7,-1,Hit,0.333712699998,True,-1,stimulus_TOSY08_Yes-No Task_2019_Jun_18_1323_489,-1,False,2019_Jun_18_1323,Yes-No Task,2,TOSY08,
Yes-No Task,39,0,39,0,10.7,-1,Miss,0.300200099999,True,-1,stimulus_TOSY08_Yes-No Task_2019_Jun_18_1323_490,-1,False,2019_Jun_18_1323,Yes-No Task,2,TOSY08,
Yes-No Task,40,0,40,0,10.7,-1,Hit,0.133745300001,True,-1,stimulus_TOSY08_Yes-No Task_2019_Jun_18_1323_491,-1,False,2019_Jun_18_1323,Yes-No Task,2,TOSY08,
Yes-No Task,41,0,41,0,10.7,-1,Correct Rejection,0.233822099981,False,-1,stimulus_TOSY08_Yes-No Task_2019_Jun_18_1323_492,-1,False,2019_Jun_18_1323,Yes-No Task,2,TOSY08,
Yes-No Task,42,0,42,0,10.7,-1,False Alarm,0.266304699995,False,-1,stimulus_TOSY08_Yes-No Task_2019_Jun_18_1323_493,-1,False,2019_Jun_18_1323,Yes-No Task,2,TOSY08,
Yes-No Task,43,0,43,0,10.7,-1,Miss,0.0671340000117,True,-1,stimulus_TOSY08_Yes-No Task_2019_Jun_18_1323_494,-1,False,2019_Jun_18_1323,Yes-No Task,2,TOSY08,
Yes-No Task,44,0,44,0,10.7,-1,False Alarm,0.237327900017,False,-1,stimulus_TOSY08_Yes-No Task_2019_Jun_18_1323_495,-1,False,2019_Jun_18_1323,Yes-No Task,2,TOSY08,
Yes-No Task,45,0,45,0,10.7,-1,Correct Rejection,0.0984935000306,False,-1,stimulus_TOSY08_Yes-No Task_2019_Jun_18_1323_496,-1,False,2019_Jun_18_1323,Yes-No Task,2,TOSY08,
Yes-No Task,46,0,46,0,10.7,-1,Correct Rejection,0.632801099971,False,-1,stimulus_TOSY08_Yes-No Task_2019_Jun_18_1323_497,-1,False,2019_Jun_18_1323,Yes-No Task,2,TOSY08,
Yes-No Task,47,0,47,0,10.7,-1,Hit,0.535511500027,True,-1,stimulus_TOSY08_Yes-No Task_2019_Jun_18_1323_498,-1,False,2019_Jun_18_1323,Yes-No Task,2,TOSY08,
Yes-No Task,48,0,48,0,10.7,-1,Correct Rejection,0.434025199967,False,-1,stimulus_TOSY08_Yes-No Task_2019_Jun_18_1323_499,-1,False,2019_Jun_18_1323,Yes-No Task,2,TOSY08,
Yes-No Task,49,0,49,0,10.7,-1,Correct Rejection,0.467195399979,False,-1,stimulus_TOSY08_Yes-No Task_2019_Jun_18_1323_500,-1,False,2019_Jun_18_1323,Yes-No Task,2,TOSY08,
Yes-No Task,50,0,50,0,10.7,-1,Correct Rejection,0.568353199982,False,-1,stimulus_TOSY08_Yes-No Task_2019_Jun_18_1323_501,-1,False,2019_Jun_18_1323,Yes-No Task,2,TOSY08,
Yes-No Task,51,0,51,0,10.7,-1,Hit,0.400389000017,True,-1,stimulus_TOSY08_Yes-No Task_2019_Jun_18_1323_502,-1,False,2019_Jun_18_1323,Yes-No Task,2,TOSY08,
Yes-No Task,52,0,52,0,10.7,-1,Correct Rejection,0.433490100026,False,-1,stimulus_TOSY08_Yes-No Task_2019_Jun_18_1323_503,-1,False,2019_Jun_18_1323,Yes-No Task,2,TOSY08,
Yes-No Task,53,0,53,0,10.7,-1,Hit,0.433183099958,True,-1,stimulus_TOSY08_Yes-No Task_2019_Jun_18_1323_504,-1,False,2019_Jun_18_1323,Yes-No Task,2,TOSY08,
Yes-No Task,54,0,54,0,10.7,-1,Miss,0.367420300026,True,-1,stimulus_TOSY08_Yes-No Task_2019_Jun_18_1323_505,-1,False,2019_Jun_18_1323,Yes-No Task,2,TOSY08,
Yes-No Task,55,0,55,0,10.7,-1,Hit,0.201616099977,True,-1,stimulus_TOSY08_Yes-No Task_2019_Jun_18_1323_506,-1,False,2019_Jun_18_1323,Yes-No Task,2,TOSY08,
Yes-No Task,56,0,56,0,10.7,-1,Correct Rejection,0.334947600029,False,-1,stimulus_TOSY08_Yes-No Task_2019_Jun_18_1323_507,-1,False,2019_Jun_18_1323,Yes-No Task,2,TOSY08,
Yes-No Task,57,0,57,0,10.7,-1,Hit,0.334751099988,True,-1,stimulus_TOSY08_Yes-No Task_2019_Jun_18_1323_508,-1,False,2019_Jun_18_1323,Yes-No Task,2,TOSY08,
Yes-No Task,58,0,58,0,10.7,-1,Correct Rejection,0.299729299964,False,-1,stimulus_TOSY08_Yes-No Task_2019_Jun_18_1323_509,-1,False,2019_Jun_18_1323,Yes-No Task,2,TOSY08,
Yes-No Task,59,0,59,0,10.7,-1,False Alarm,0.266966999974,False,-1,stimulus_TOSY08_Yes-No Task_2019_Jun_18_1323_510,-1,False,2019_Jun_18_1323,Yes-No Task,2,TOSY08,
Yes-No Task,60,0,60,0,10.7,-1,Miss,0.100830800016,True,-1,stimulus_TOSY08_Yes-No Task_2019_Jun_18_1323_511,-1,False,2019_Jun_18_1323,Yes-No Task,2,TOSY08,
Yes-No Task,61,0,61,0,10.7,-1,Hit,0.133433800016,True,-1,stimulus_TOSY08_Yes-No Task_2019_Jun_18_1323_512,-1,False,2019_Jun_18_1323,Yes-No Task,2,TOSY08,
Yes-No Task,62,0,62,0,10.7,-1,Correct Rejection,0.167300400033,False,-1,stimulus_TOSY08_Yes-No Task_2019_Jun_18_1323_513,-1,False,2019_Jun_18_1323,Yes-No Task,2,TOSY08,
Yes-No Task,63,0,63,0,10.7,-1,Hit,0.200296100054,True,-1,stimulus_TOSY08_Yes-No Task_2019_Jun_18_1323_514,-1,False,2019_Jun_18_1323,Yes-No Task,2,TOSY08,
Yes-No Task,64,0,64,0,10.7,-1,Correct Rejection,0.100401200005,False,-1,stimulus_TOSY08_Yes-No Task_2019_Jun_18_1323_515,-1,False,2019_Jun_18_1323,Yes-No Task,2,TOSY08,
Yes-No Task,65,0,65,0,10.7,-1,False Alarm,0.23363849998,False,-1,stimulus_TOSY08_Yes-No Task_2019_Jun_18_1323_516,-1,False,2019_Jun_18_1323,Yes-No Task,2,TOSY08,
Yes-No Task,66,0,66,0,10.7,-1,Miss,0.234444800008,True,-1,stimulus_TOSY08_Yes-No Task_2019_Jun_18_1323_517,-1,False,2019_Jun_18_1323,Yes-No Task,2,TOSY08,
Yes-No Task,67,0,67,0,10.7,-1,Hit,0.301442099968,True,-1,stimulus_TOSY08_Yes-No Task_2019_Jun_18_1323_518,-1,False,2019_Jun_18_1323,Yes-No Task,2,TOSY08,
Yes-No Task,68,0,68,0,10.7,-1,False Alarm,0.402017400018,False,-1,stimulus_TOSY08_Yes-No Task_2019_Jun_18_1323_519,-1,False,2019_Jun_18_1323,Yes-No Task,2,TOSY08,
Yes-No Task,69,0,69,0,10.7,-1,Miss,0.300772599992,True,-1,stimulus_TOSY08_Yes-No Task_2019_Jun_18_1323_520,-1,False,2019_Jun_18_1323,Yes-No Task,2,TOSY08,
Yes-No Task,70,0,70,0,10.7,-1,No Answer,-1,False,-1,stimulus_TOSY08_Yes-No Task_2019_Jun_18_1323_521,-1,False,2019_Jun_18_1323,Yes-No Task,2,TOSY08,
Yes-No Task,71,0,71,0,10.7,-1,Correct Rejection,0.567861500022,False,-1,stimulus_TOSY08_Yes-No Task_2019_Jun_18_1323_522,-1,False,2019_Jun_18_1323,Yes-No Task,2,TOSY08,
Yes-No Task,72,0,72,0,10.7,-1,Correct Rejection,0.43429470004,False,-1,stimulus_TOSY08_Yes-No Task_2019_Jun_18_1323_523,-1,False,2019_Jun_18_1323,Yes-No Task,2,TOSY08,
Yes-No Task,73,0,73,0,10.7,-1,Hit,0.632431100006,True,-1,stimulus_TOSY08_Yes-No Task_2019_Jun_18_1323_524,-1,False,2019_Jun_18_1323,Yes-No Task,2,TOSY08,
Yes-No Task,74,0,74,0,10.7,-1,Miss,0.501237299992,True,-1,stimulus_TOSY08_Yes-No Task_2019_Jun_18_1323_525,-1,False,2019_Jun_18_1323,Yes-No Task,2,TOSY08,
Yes-No Task,0,0,0,0,4.9,-1,No Answer,-1,True,-1,stimulus_TOSY08_Yes-No Task_2019_Jun_18_1323_526,-1,False,2019_Jun_18_1323,Yes-No Task,2,TOSY08,
Yes-No Task,1,0,1,0,4.9,-1,No Answer,-1,False,-1,stimulus_TOSY08_Yes-No Task_2019_Jun_18_1323_527,-1,False,2019_Jun_18_1323,Yes-No Task,2,TOSY08,
Yes-No Task,2,0,2,0,4.9,-1,No Answer,-1,True,-1,stimulus_TOSY08_Yes-No Task_2019_Jun_18_1323_528,-1,False,2019_Jun_18_1323,Yes-No Task,2,TOSY08,
Yes-No Task,3,0,3,0,4.9,-1,Correct Rejection,0.466472700005,False,-1,stimulus_TOSY08_Yes-No Task_2019_Jun_18_1323_529,-1,False,2019_Jun_18_1323,Yes-No Task,2,TOSY08,
Yes-No Task,4,0,4,0,4.9,-1,Miss,0.601188600005,True,-1,stimulus_TOSY08_Yes-No Task_2019_Jun_18_1323_530,-1,False,2019_Jun_18_1323,Yes-No Task,2,TOSY08,
Yes-No Task,5,0,5,0,4.9,-1,False Alarm,0.467004999984,False,-1,stimulus_TOSY08_Yes-No Task_2019_Jun_18_1323_531,-1,False,2019_Jun_18_1323,Yes-No Task,2,TOSY08,
Yes-No Task,6,0,6,0,4.9,-1,Correct Rejection,0.100681699987,False,-1,stimulus_TOSY08_Yes-No Task_2019_Jun_18_1323_532,-1,False,2019_Jun_18_1323,Yes-No Task,2,TOSY08,
Yes-No Task,7,0,7,0,4.9,-1,Miss,0.300345900003,True,-1,stimulus_TOSY08_Yes-No Task_2019_Jun_18_1323_533,-1,False,2019_Jun_18_1323,Yes-No Task,2,TOSY08,
Yes-No Task,8,0,8,0,4.9,-1,Correct Rejection,0.53275959997,False,-1,stimulus_TOSY08_Yes-No Task_2019_Jun_18_1323_534,-1,False,2019_Jun_18_1323,Yes-No Task,2,TOSY08,
Yes-No Task,9,0,9,0,4.9,-1,Miss,0.46799580002,True,-1,stimulus_TOSY08_Yes-No Task_2019_Jun_18_1323_535,-1,False,2019_Jun_18_1323,Yes-No Task,2,TOSY08,
Yes-No Task,10,0,10,0,4.9,-1,Correct Rejection,0.367380099953,False,-1,stimulus_TOSY08_Yes-No Task_2019_Jun_18_1323_536,-1,False,2019_Jun_18_1323,Yes-No Task,2,TOSY08,
Yes-No Task,11,0,11,0,4.9,-1,Miss,0.500050400035,True,-1,stimulus_TOSY08_Yes-No Task_2019_Jun_18_1323_537,-1,False,2019_Jun_18_1323,Yes-No Task,2,TOSY08,
Yes-No Task,12,0,12,0,4.9,-1,Hit,0.467167099996,True,-1,stimulus_TOSY08_Yes-No Task_2019_Jun_18_1323_538,-1,False,2019_Jun_18_1323,Yes-No Task,2,TOSY08,
Yes-No Task,13,0,13,0,4.9,-1,Hit,0.500357099983,True,-1,stimulus_TOSY08_Yes-No Task_2019_Jun_18_1323_539,-1,False,2019_Jun_18_1323,Yes-No Task,2,TOSY08,
Yes-No Task,14,0,14,0,4.9,-1,Hit,0.366141900013,True,-1,stimulus_TOSY08_Yes-No Task_2019_Jun_18_1323_540,-1,False,2019_Jun_18_1323,Yes-No Task,2,TOSY08,
Yes-No Task,15,0,15,0,4.9,-1,False Alarm,0.399255299999,False,-1,stimulus_TOSY08_Yes-No Task_2019_Jun_18_1323_541,-1,False,2019_Jun_18_1323,Yes-No Task,2,TOSY08,
Yes-No Task,16,0,16,0,4.9,-1,Miss,0.133661800006,True,-1,stimulus_TOSY08_Yes-No Task_2019_Jun_18_1323_542,-1,False,2019_Jun_18_1323,Yes-No Task,2,TOSY08,
Yes-No Task,17,0,17,0,4.9,-1,Hit,0.233788700018,True,-1,stimulus_TOSY08_Yes-No Task_2019_Jun_18_1323_543,-1,False,2019_Jun_18_1323,Yes-No Task,2,TOSY08,
Yes-No Task,18,0,18,0,4.9,-1,Miss,0.500079500023,True,-1,stimulus_TOSY08_Yes-No Task_2019_Jun_18_1323_544,-1,False,2019_Jun_18_1323,Yes-No Task,2,TOSY08,
Yes-No Task,19,0,19,0,4.9,-1,False Alarm,0.33236,False,-1,stimulus_TOSY08_Yes-No Task_2019_Jun_18_1323_545,-1,False,2019_Jun_18_1323,Yes-No Task,2,TOSY08,
Yes-No Task,20,0,20,0,4.9,-1,Correct Rejection,0.233258199994,False,-1,stimulus_TOSY08_Yes-No Task_2019_Jun_18_1323_546,-1,False,2019_Jun_18_1323,Yes-No Task,2,TOSY08,
Yes-No Task,21,0,21,0,4.9,-1,Miss,0.467270500027,True,-1,stimulus_TOSY08_Yes-No Task_2019_Jun_18_1323_547,-1,False,2019_Jun_18_1323,Yes-No Task,2,TOSY08,
Yes-No Task,22,0,22,0,4.9,-1,Miss,0.400820099982,True,-1,stimulus_TOSY08_Yes-No Task_2019_Jun_18_1323_548,-1,False,2019_Jun_18_1323,Yes-No Task,2,TOSY08,
Yes-No Task,23,0,23,0,4.9,-1,Hit,0.133718599973,True,-1,stimulus_TOSY08_Yes-No Task_2019_Jun_18_1323_549,-1,False,2019_Jun_18_1323,Yes-No Task,2,TOSY08,
Yes-No Task,24,0,24,0,4.9,-1,Correct Rejection,0.40040079999,False,-1,stimulus_TOSY08_Yes-No Task_2019_Jun_18_1323_550,-1,False,2019_Jun_18_1323,Yes-No Task,2,TOSY08,
Yes-No Task,25,0,25,0,4.9,-1,Miss,0.366856899986,True,-1,stimulus_TOSY08_Yes-No Task_2019_Jun_18_1323_551,-1,False,2019_Jun_18_1323,Yes-No Task,2,TOSY08,
Yes-No Task,26,0,26,0,4.9,-1,Hit,0.267639800033,True,-1,stimulus_TOSY08_Yes-No Task_2019_Jun_18_1323_552,-1,False,2019_Jun_18_1323,Yes-No Task,2,TOSY08,
Yes-No Task,27,0,27,0,4.9,-1,Hit,0.500706600025,True,-1,stimulus_TOSY08_Yes-No Task_2019_Jun_18_1323_553,-1,False,2019_Jun_18_1323,Yes-No Task,2,TOSY08,
Yes-No Task,28,0,28,0,4.9,-1,Correct Rejection,0.566963599995,False,-1,stimulus_TOSY08_Yes-No Task_2019_Jun_18_1323_554,-1,False,2019_Jun_18_1323,Yes-No Task,2,TOSY08,
Yes-No Task,29,0,29,0,4.9,-1,Correct Rejection,0.632724899973,False,-1,stimulus_TOSY08_Yes-No Task_2019_Jun_18_1323_555,-1,False,2019_Jun_18_1323,Yes-No Task,2,TOSY08,
Yes-No Task,30,0,30,0,4.9,-1,False Alarm,0.566591500014,False,-1,stimulus_TOSY08_Yes-No Task_2019_Jun_18_1323_556,-1,False,2019_Jun_18_1323,Yes-No Task,2,TOSY08,
Yes-No Task,31,0,31,0,4.9,-1,Miss,0.56716430001,True,-1,stimulus_TOSY08_Yes-No Task_2019_Jun_18_1323_557,-1,False,2019_Jun_18_1323,Yes-No Task,2,TOSY08,
Yes-No Task,32,0,32,0,4.9,-1,Hit,0.30093789997,True,-1,stimulus_TOSY08_Yes-No Task_2019_Jun_18_1323_558,-1,False,2019_Jun_18_1323,Yes-No Task,2,TOSY08,
Yes-No Task,33,0,33,0,4.9,-1,Correct Rejection,0.535546700004,False,-1,stimulus_TOSY08_Yes-No Task_2019_Jun_18_1323_559,-1,False,2019_Jun_18_1323,Yes-No Task,2,TOSY08,
Yes-No Task,34,0,34,0,4.9,-1,Correct Rejection,0.534217200009,False,-1,stimulus_TOSY08_Yes-No Task_2019_Jun_18_1323_560,-1,False,2019_Jun_18_1323,Yes-No Task,2,TOSY08,
Yes-No Task,35,0,35,0,4.9,-1,Correct Rejection,0.567091199977,False,-1,stimulus_TOSY08_Yes-No Task_2019_Jun_18_1323_561,-1,False,2019_Jun_18_1323,Yes-No Task,2,TOSY08,
Yes-No Task,36,0,36,0,4.9,-1,Correct Rejection,0.53408730001,False,-1,stimulus_TOSY08_Yes-No Task_2019_Jun_18_1323_562,-1,False,2019_Jun_18_1323,Yes-No Task,2,TOSY08,
Yes-No Task,37,0,37,0,4.9,-1,Hit,0.700640999945,True,-1,stimulus_TOSY08_Yes-No Task_2019_Jun_18_1323_563,-1,False,2019_Jun_18_1323,Yes-No Task,2,TOSY08,
Yes-No Task,38,0,38,0,4.9,-1,Miss,0.667038699961,True,-1,stimulus_TOSY08_Yes-No Task_2019_Jun_18_1323_564,-1,False,2019_Jun_18_1323,Yes-No Task,2,TOSY08,
Yes-No Task,39,0,39,0,4.9,-1,Correct Rejection,0.701145400002,False,-1,stimulus_TOSY08_Yes-No Task_2019_Jun_18_1323_565,-1,False,2019_Jun_18_1323,Yes-No Task,2,TOSY08,
Yes-No Task,40,0,40,0,4.9,-1,Hit,0.600542799977,True,-1,stimulus_TOSY08_Yes-No Task_2019_Jun_18_1323_566,-1,False,2019_Jun_18_1323,Yes-No Task,2,TOSY08,
Yes-No Task,41,0,41,0,4.9,-1,Miss,0.600203700014,True,-1,stimulus_TOSY08_Yes-No Task_2019_Jun_18_1323_567,-1,False,2019_Jun_18_1323,Yes-No Task,2,TOSY08,
Yes-No Task,42,0,42,0,4.9,-1,Miss,0.567348800017,True,-1,stimulus_TOSY08_Yes-No Task_2019_Jun_18_1323_568,-1,False,2019_Jun_18_1323,Yes-No Task,2,TOSY08,
Yes-No Task,43,0,43,0,4.9,-1,Correct Rejection,0.534204300027,False,-1,stimulus_TOSY08_Yes-No Task_2019_Jun_18_1323_569,-1,False,2019_Jun_18_1323,Yes-No Task,2,TOSY08,
Yes-No Task,44,0,44,0,4.9,-1,False Alarm,0.534104100021,False,-1,stimulus_TOSY08_Yes-No Task_2019_Jun_18_1323_570,-1,False,2019_Jun_18_1323,Yes-No Task,2,TOSY08,
Yes-No Task,45,0,45,0,4.9,-1,Correct Rejection,0.500810900005,False,-1,stimulus_TOSY08_Yes-No Task_2019_Jun_18_1323_571,-1,False,2019_Jun_18_1323,Yes-No Task,2,TOSY08,
Yes-No Task,46,0,46,0,4.9,-1,Correct Rejection,0.600817699975,False,-1,stimulus_TOSY08_Yes-No Task_2019_Jun_18_1323_572,-1,False,2019_Jun_18_1323,Yes-No Task,2,TOSY08,
Yes-No Task,47,0,47,0,4.9,-1,False Alarm,0.501674300001,False,-1,stimulus_TOSY08_Yes-No Task_2019_Jun_18_1323_573,-1,False,2019_Jun_18_1323,Yes-No Task,2,TOSY08,
Yes-No Task,48,0,48,0,4.9,-1,Miss,0.335209799989,True,-1,stimulus_TOSY08_Yes-No Task_2019_Jun_18_1323_574,-1,False,2019_Jun_18_1323,Yes-No Task,2,TOSY08,
Yes-No Task,49,0,49,0,4.9,-1,Hit,0.566969300038,True,-1,stimulus_TOSY08_Yes-No Task_2019_Jun_18_1323_575,-1,False,2019_Jun_18_1323,Yes-No Task,2,TOSY08,
Yes-No Task,50,0,50,0,4.9,-1,False Alarm,0.833989600011,False,-1,stimulus_TOSY08_Yes-No Task_2019_Jun_18_1323_576,-1,False,2019_Jun_18_1323,Yes-No Task,2,TOSY08,
Yes-No Task,51,0,51,0,4.9,-1,Correct Rejection,0.534149300016,False,-1,stimulus_TOSY08_Yes-No Task_2019_Jun_18_1323_577,-1,False,2019_Jun_18_1323,Yes-No Task,2,TOSY08,
Yes-No Task,52,0,52,0,4.9,-1,Hit,0.401703100011,True,-1,stimulus_TOSY08_Yes-No Task_2019_Jun_18_1323_578,-1,False,2019_Jun_18_1323,Yes-No Task,2,TOSY08,
Yes-No Task,53,0,53,0,4.9,-1,Correct Rejection,0.598236799997,False,-1,stimulus_TOSY08_Yes-No Task_2019_Jun_18_1323_579,-1,False,2019_Jun_18_1323,Yes-No Task,2,TOSY08,
Yes-No Task,54,0,54,0,4.9,-1,False Alarm,0.334185099986,False,-1,stimulus_TOSY08_Yes-No Task_2019_Jun_18_1323_580,-1,False,2019_Jun_18_1323,Yes-No Task,2,TOSY08,
Yes-No Task,55,0,55,0,4.9,-1,Miss,0.133599699999,True,-1,stimulus_TOSY08_Yes-No Task_2019_Jun_18_1323_581,-1,False,2019_Jun_18_1323,Yes-No Task,2,TOSY08,
Yes-No Task,56,0,56,0,4.9,-1,Correct Rejection,0.333882200008,False,-1,stimulus_TOSY08_Yes-No Task_2019_Jun_18_1323_582,-1,False,2019_Jun_18_1323,Yes-No Task,2,TOSY08,
Yes-No Task,57,0,57,0,4.9,-1,Miss,0.600923899969,True,-1,stimulus_TOSY08_Yes-No Task_2019_Jun_18_1323_583,-1,False,2019_Jun_18_1323,Yes-No Task,2,TOSY08,
Yes-No Task,58,0,58,0,4.9,-1,Correct Rejection,0.334378300002,False,-1,stimulus_TOSY08_Yes-No Task_2019_Jun_18_1323_584,-1,False,2019_Jun_18_1323,Yes-No Task,2,TOSY08,
Yes-No Task,59,0,59,0,4.9,-1,Miss,0.567127000017,True,-1,stimulus_TOSY08_Yes-No Task_2019_Jun_18_1323_585,-1,False,2019_Jun_18_1323,Yes-No Task,2,TOSY08,
Yes-No Task,60,0,60,0,4.9,-1,False Alarm,0.301232099999,False,-1,stimulus_TOSY08_Yes-No Task_2019_Jun_18_1323_586,-1,False,2019_Jun_18_1323,Yes-No Task,2,TOSY08,
Yes-No Task,61,0,61,0,4.9,-1,Correct Rejection,0.3014387,False,-1,stimulus_TOSY08_Yes-No Task_2019_Jun_18_1323_587,-1,False,2019_Jun_18_1323,Yes-No Task,2,TOSY08,
Yes-No Task,62,0,62,0,4.9,-1,Correct Rejection,0.467770399991,False,-1,stimulus_TOSY08_Yes-No Task_2019_Jun_18_1323_588,-1,False,2019_Jun_18_1323,Yes-No Task,2,TOSY08,
Yes-No Task,63,0,63,0,4.9,-1,Correct Rejection,0.467168700008,False,-1,stimulus_TOSY08_Yes-No Task_2019_Jun_18_1323_589,-1,False,2019_Jun_18_1323,Yes-No Task,2,TOSY08,
Yes-No Task,64,0,64,0,4.9,-1,Correct Rejection,0.500852999976,False,-1,stimulus_TOSY08_Yes-No Task_2019_Jun_18_1323_590,-1,False,2019_Jun_18_1323,Yes-No Task,2,TOSY08,
Yes-No Task,65,0,65,0,4.9,-1,Miss,0.56735050003,True,-1,stimulus_TOSY08_Yes-No Task_2019_Jun_18_1323_591,-1,False,2019_Jun_18_1323,Yes-No Task,2,TOSY08,
Yes-No Task,66,0,66,0,4.9,-1,False Alarm,0.466271499987,False,-1,stimulus_TOSY08_Yes-No Task_2019_Jun_18_1323_592,-1,False,2019_Jun_18_1323,Yes-No Task,2,TOSY08,
Yes-No Task,67,0,67,0,4.9,-1,Miss,0.366986499983,True,-1,stimulus_TOSY08_Yes-No Task_2019_Jun_18_1323_593,-1,False,2019_Jun_18_1323,Yes-No Task,2,TOSY08,
Yes-No Task,68,0,68,0,4.9,-1,Hit,0.333862599975,True,-1,stimulus_TOSY08_Yes-No Task_2019_Jun_18_1323_594,-1,False,2019_Jun_18_1323,Yes-No Task,2,TOSY08,
Yes-No Task,69,0,69,0,4.9,-1,Correct Rejection,0.534439700015,False,-1,stimulus_TOSY08_Yes-No Task_2019_Jun_18_1323_595,-1,False,2019_Jun_18_1323,Yes-No Task,2,TOSY08,
Yes-No Task,70,0,70,0,4.9,-1,Correct Rejection,0.633743800048,False,-1,stimulus_TOSY08_Yes-No Task_2019_Jun_18_1323_596,-1,False,2019_Jun_18_1323,Yes-No Task,2,TOSY08,
Yes-No Task,71,0,71,0,4.9,-1,Miss,0.434187000035,True,-1,stimulus_TOSY08_Yes-No Task_2019_Jun_18_1323_597,-1,False,2019_Jun_18_1323,Yes-No Task,2,TOSY08,
Yes-No Task,72,0,72,0,4.9,-1,Hit,0.334321699978,True,-1,stimulus_TOSY08_Yes-No Task_2019_Jun_18_1323_598,-1,False,2019_Jun_18_1323,Yes-No Task,2,TOSY08,
Yes-No Task,73,0,73,0,4.9,-1,Hit,0.466318099992,True,-1,stimulus_TOSY08_Yes-No Task_2019_Jun_18_1323_599,-1,False,2019_Jun_18_1323,Yes-No Task,2,TOSY08,
Yes-No Task,74,0,74,0,4.9,-1,Hit,0.433822299994,True,-1,stimulus_TOSY08_Yes-No Task_2019_Jun_18_1323_600,-1,False,2019_Jun_18_1323,Yes-No Task,2,TOSY08,
