Task,trials.thisRepN,trials.thisTrialN,trials.thisN,trials.thisIndex,signal_intensity,constant Value,response,time_response,signal_on_stimuluspos1,signal_on_stimuluspos2,stimulus_name_pos1,stimulus_name_pos2,random_intensity,date,expName,session,participant,
2IFC,0,0,0,0,12.9,-1,correct answer,0.367092199973,False,True,stimulusTOSY08_2IFC_2019_Jun_18_1255_1,stimulusTOSY08_2IFC_2019_Jun_18_1255_2,False,2019_Jun_18_1255,2IFC,2,TOSY08,
2IFC,1,0,1,0,12.9,-1,correct answer,0.367470500001,False,True,stimulusTOSY08_2IFC_2019_Jun_18_1255_3,stimulusTOSY08_2IFC_2019_Jun_18_1255_4,False,2019_Jun_18_1255,2IFC,2,TOSY08,
2IFC,2,0,2,0,12.9,-1,correct answer,0.333984900033,True,False,stimulusTOSY08_2IFC_2019_Jun_18_1255_5,stimulusTOSY08_2IFC_2019_Jun_18_1255_6,False,2019_Jun_18_1255,2IFC,2,TOSY08,
2IFC,3,0,3,0,12.9,-1,correct answer,0.367495999963,False,True,stimulusTOSY08_2IFC_2019_Jun_18_1255_7,stimulusTOSY08_2IFC_2019_Jun_18_1255_8,False,2019_Jun_18_1255,2IFC,2,TOSY08,
2IFC,4,0,4,0,12.9,-1,wrong answer,0.434544000018,False,True,stimulusTOSY08_2IFC_2019_Jun_18_1255_9,stimulusTOSY08_2IFC_2019_Jun_18_1255_10,False,2019_Jun_18_1255,2IFC,2,TOSY08,
2IFC,5,0,5,0,12.9,-1,correct answer,0.300417700026,True,False,stimulusTOSY08_2IFC_2019_Jun_18_1255_11,stimulusTOSY08_2IFC_2019_Jun_18_1255_12,False,2019_Jun_18_1255,2IFC,2,TOSY08,
2IFC,6,0,6,0,12.9,-1,correct answer,0.533509199973,False,True,stimulusTOSY08_2IFC_2019_Jun_18_1255_13,stimulusTOSY08_2IFC_2019_Jun_18_1255_14,False,2019_Jun_18_1255,2IFC,2,TOSY08,
2IFC,7,0,7,0,12.9,-1,correct answer,0.367093600042,True,False,stimulusTOSY08_2IFC_2019_Jun_18_1255_15,stimulusTOSY08_2IFC_2019_Jun_18_1255_16,False,2019_Jun_18_1255,2IFC,2,TOSY08,
2IFC,8,0,8,0,12.9,-1,correct answer,0.400827400037,False,True,stimulusTOSY08_2IFC_2019_Jun_18_1255_17,stimulusTOSY08_2IFC_2019_Jun_18_1255_18,False,2019_Jun_18_1255,2IFC,2,TOSY08,
2IFC,9,0,9,0,12.9,-1,correct answer,0.366979199986,True,False,stimulusTOSY08_2IFC_2019_Jun_18_1255_19,stimulusTOSY08_2IFC_2019_Jun_18_1255_20,False,2019_Jun_18_1255,2IFC,2,TOSY08,
2IFC,10,0,10,0,12.9,-1,correct answer,0.468079200014,False,True,stimulusTOSY08_2IFC_2019_Jun_18_1255_21,stimulusTOSY08_2IFC_2019_Jun_18_1255_22,False,2019_Jun_18_1255,2IFC,2,TOSY08,
2IFC,11,0,11,0,12.9,-1,correct answer,0.53385430004,False,True,stimulusTOSY08_2IFC_2019_Jun_18_1255_23,stimulusTOSY08_2IFC_2019_Jun_18_1255_24,False,2019_Jun_18_1255,2IFC,2,TOSY08,
2IFC,12,0,12,0,12.9,-1,correct answer,0.367100200034,True,False,stimulusTOSY08_2IFC_2019_Jun_18_1255_25,stimulusTOSY08_2IFC_2019_Jun_18_1255_26,False,2019_Jun_18_1255,2IFC,2,TOSY08,
2IFC,13,0,13,0,12.9,-1,correct answer,0.36750459997,False,True,stimulusTOSY08_2IFC_2019_Jun_18_1255_27,stimulusTOSY08_2IFC_2019_Jun_18_1255_28,False,2019_Jun_18_1255,2IFC,2,TOSY08,
2IFC,14,0,14,0,12.9,-1,correct answer,0.366665899986,True,False,stimulusTOSY08_2IFC_2019_Jun_18_1255_29,stimulusTOSY08_2IFC_2019_Jun_18_1255_30,False,2019_Jun_18_1255,2IFC,2,TOSY08,
2IFC,15,0,15,0,12.9,-1,correct answer,0.366917499981,False,True,stimulusTOSY08_2IFC_2019_Jun_18_1255_31,stimulusTOSY08_2IFC_2019_Jun_18_1255_32,False,2019_Jun_18_1255,2IFC,2,TOSY08,
2IFC,16,0,16,0,12.9,-1,correct answer,0.533134200028,False,True,stimulusTOSY08_2IFC_2019_Jun_18_1255_33,stimulusTOSY08_2IFC_2019_Jun_18_1255_34,False,2019_Jun_18_1255,2IFC,2,TOSY08,
2IFC,17,0,17,0,12.9,-1,correct answer,0.334236000024,True,False,stimulusTOSY08_2IFC_2019_Jun_18_1255_35,stimulusTOSY08_2IFC_2019_Jun_18_1255_36,False,2019_Jun_18_1255,2IFC,2,TOSY08,
2IFC,18,0,18,0,12.9,-1,correct answer,0.434126700042,True,False,stimulusTOSY08_2IFC_2019_Jun_18_1255_37,stimulusTOSY08_2IFC_2019_Jun_18_1255_38,False,2019_Jun_18_1255,2IFC,2,TOSY08,
2IFC,19,0,19,0,12.9,-1,correct answer,0.302051800012,False,True,stimulusTOSY08_2IFC_2019_Jun_18_1255_39,stimulusTOSY08_2IFC_2019_Jun_18_1255_40,False,2019_Jun_18_1255,2IFC,2,TOSY08,
2IFC,20,0,20,0,12.9,-1,wrong answer,0.465583499987,False,True,stimulusTOSY08_2IFC_2019_Jun_18_1255_41,stimulusTOSY08_2IFC_2019_Jun_18_1255_42,False,2019_Jun_18_1255,2IFC,2,TOSY08,
2IFC,21,0,21,0,12.9,-1,correct answer,0.301080100005,True,False,stimulusTOSY08_2IFC_2019_Jun_18_1255_43,stimulusTOSY08_2IFC_2019_Jun_18_1255_44,False,2019_Jun_18_1255,2IFC,2,TOSY08,
2IFC,22,0,22,0,12.9,-1,correct answer,0.301089999964,True,False,stimulusTOSY08_2IFC_2019_Jun_18_1255_45,stimulusTOSY08_2IFC_2019_Jun_18_1255_46,False,2019_Jun_18_1255,2IFC,2,TOSY08,
2IFC,23,0,23,0,12.9,-1,correct answer,0.333588999987,True,False,stimulusTOSY08_2IFC_2019_Jun_18_1255_47,stimulusTOSY08_2IFC_2019_Jun_18_1255_48,False,2019_Jun_18_1255,2IFC,2,TOSY08,
2IFC,24,0,24,0,12.9,-1,correct answer,0.30018000002,True,False,stimulusTOSY08_2IFC_2019_Jun_18_1255_49,stimulusTOSY08_2IFC_2019_Jun_18_1255_50,False,2019_Jun_18_1255,2IFC,2,TOSY08,
2IFC,25,0,25,0,12.9,-1,correct answer,0.467431999976,True,False,stimulusTOSY08_2IFC_2019_Jun_18_1255_51,stimulusTOSY08_2IFC_2019_Jun_18_1255_52,False,2019_Jun_18_1255,2IFC,2,TOSY08,
2IFC,26,0,26,0,12.9,-1,correct answer,0.333820100001,True,False,stimulusTOSY08_2IFC_2019_Jun_18_1255_53,stimulusTOSY08_2IFC_2019_Jun_18_1255_54,False,2019_Jun_18_1255,2IFC,2,TOSY08,
2IFC,27,0,27,0,12.9,-1,correct answer,0.300100799999,True,False,stimulusTOSY08_2IFC_2019_Jun_18_1255_55,stimulusTOSY08_2IFC_2019_Jun_18_1255_56,False,2019_Jun_18_1255,2IFC,2,TOSY08,
2IFC,28,0,28,0,12.9,-1,correct answer,0.333980800002,False,True,stimulusTOSY08_2IFC_2019_Jun_18_1255_57,stimulusTOSY08_2IFC_2019_Jun_18_1255_58,False,2019_Jun_18_1255,2IFC,2,TOSY08,
2IFC,29,0,29,0,12.9,-1,correct answer,0.567396199971,False,True,stimulusTOSY08_2IFC_2019_Jun_18_1255_59,stimulusTOSY08_2IFC_2019_Jun_18_1255_60,False,2019_Jun_18_1255,2IFC,2,TOSY08,
2IFC,30,0,30,0,12.9,-1,correct answer,0.298957600025,True,False,stimulusTOSY08_2IFC_2019_Jun_18_1255_61,stimulusTOSY08_2IFC_2019_Jun_18_1255_62,False,2019_Jun_18_1255,2IFC,2,TOSY08,
2IFC,31,0,31,0,12.9,-1,correct answer,0.300408900017,True,False,stimulusTOSY08_2IFC_2019_Jun_18_1255_63,stimulusTOSY08_2IFC_2019_Jun_18_1255_64,False,2019_Jun_18_1255,2IFC,2,TOSY08,
2IFC,32,0,32,0,12.9,-1,correct answer,0.467134499981,True,False,stimulusTOSY08_2IFC_2019_Jun_18_1255_65,stimulusTOSY08_2IFC_2019_Jun_18_1255_66,False,2019_Jun_18_1255,2IFC,2,TOSY08,
2IFC,33,0,33,0,12.9,-1,correct answer,0.400717399956,True,False,stimulusTOSY08_2IFC_2019_Jun_18_1255_67,stimulusTOSY08_2IFC_2019_Jun_18_1255_68,False,2019_Jun_18_1255,2IFC,2,TOSY08,
2IFC,34,0,34,0,12.9,-1,correct answer,0.365690200008,True,False,stimulusTOSY08_2IFC_2019_Jun_18_1255_69,stimulusTOSY08_2IFC_2019_Jun_18_1255_70,False,2019_Jun_18_1255,2IFC,2,TOSY08,
2IFC,35,0,35,0,12.9,-1,correct answer,0.334050400008,False,True,stimulusTOSY08_2IFC_2019_Jun_18_1255_71,stimulusTOSY08_2IFC_2019_Jun_18_1255_72,False,2019_Jun_18_1255,2IFC,2,TOSY08,
2IFC,36,0,36,0,12.9,-1,correct answer,0.500831500045,False,True,stimulusTOSY08_2IFC_2019_Jun_18_1255_73,stimulusTOSY08_2IFC_2019_Jun_18_1255_74,False,2019_Jun_18_1255,2IFC,2,TOSY08,
2IFC,37,0,37,0,12.9,-1,wrong answer,0.467451200006,False,True,stimulusTOSY08_2IFC_2019_Jun_18_1255_75,stimulusTOSY08_2IFC_2019_Jun_18_1255_76,False,2019_Jun_18_1255,2IFC,2,TOSY08,
2IFC,38,0,38,0,12.9,-1,correct answer,0.400633600017,False,True,stimulusTOSY08_2IFC_2019_Jun_18_1255_77,stimulusTOSY08_2IFC_2019_Jun_18_1255_78,False,2019_Jun_18_1255,2IFC,2,TOSY08,
2IFC,39,0,39,0,12.9,-1,correct answer,0.333157500019,False,True,stimulusTOSY08_2IFC_2019_Jun_18_1255_79,stimulusTOSY08_2IFC_2019_Jun_18_1255_80,False,2019_Jun_18_1255,2IFC,2,TOSY08,
2IFC,40,0,40,0,12.9,-1,correct answer,0.266909600003,False,True,stimulusTOSY08_2IFC_2019_Jun_18_1255_81,stimulusTOSY08_2IFC_2019_Jun_18_1255_82,False,2019_Jun_18_1255,2IFC,2,TOSY08,
2IFC,41,0,41,0,12.9,-1,correct answer,0.267154000001,True,False,stimulusTOSY08_2IFC_2019_Jun_18_1255_83,stimulusTOSY08_2IFC_2019_Jun_18_1255_84,False,2019_Jun_18_1255,2IFC,2,TOSY08,
2IFC,42,0,42,0,12.9,-1,correct answer,0.300314400054,False,True,stimulusTOSY08_2IFC_2019_Jun_18_1255_85,stimulusTOSY08_2IFC_2019_Jun_18_1255_86,False,2019_Jun_18_1255,2IFC,2,TOSY08,
2IFC,43,0,43,0,12.9,-1,correct answer,0.80085140001,True,False,stimulusTOSY08_2IFC_2019_Jun_18_1255_87,stimulusTOSY08_2IFC_2019_Jun_18_1255_88,False,2019_Jun_18_1255,2IFC,2,TOSY08,
2IFC,44,0,44,0,12.9,-1,correct answer,0.700103300042,False,True,stimulusTOSY08_2IFC_2019_Jun_18_1255_89,stimulusTOSY08_2IFC_2019_Jun_18_1255_90,False,2019_Jun_18_1255,2IFC,2,TOSY08,
2IFC,45,0,45,0,12.9,-1,correct answer,0.333219499968,True,False,stimulusTOSY08_2IFC_2019_Jun_18_1255_91,stimulusTOSY08_2IFC_2019_Jun_18_1255_92,False,2019_Jun_18_1255,2IFC,2,TOSY08,
2IFC,46,0,46,0,12.9,-1,correct answer,0.301499399997,True,False,stimulusTOSY08_2IFC_2019_Jun_18_1255_93,stimulusTOSY08_2IFC_2019_Jun_18_1255_94,False,2019_Jun_18_1255,2IFC,2,TOSY08,
2IFC,47,0,47,0,12.9,-1,correct answer,0.134022899962,False,True,stimulusTOSY08_2IFC_2019_Jun_18_1255_95,stimulusTOSY08_2IFC_2019_Jun_18_1255_96,False,2019_Jun_18_1255,2IFC,2,TOSY08,
2IFC,48,0,48,0,12.9,-1,correct answer,0.367135500011,False,True,stimulusTOSY08_2IFC_2019_Jun_18_1255_97,stimulusTOSY08_2IFC_2019_Jun_18_1255_98,False,2019_Jun_18_1255,2IFC,2,TOSY08,
2IFC,49,0,49,0,12.9,-1,correct answer,0.40069629997,True,False,stimulusTOSY08_2IFC_2019_Jun_18_1255_99,stimulusTOSY08_2IFC_2019_Jun_18_1255_100,False,2019_Jun_18_1255,2IFC,2,TOSY08,
2IFC,50,0,50,0,12.9,-1,correct answer,0.467596700008,True,False,stimulusTOSY08_2IFC_2019_Jun_18_1255_101,stimulusTOSY08_2IFC_2019_Jun_18_1255_102,False,2019_Jun_18_1255,2IFC,2,TOSY08,
2IFC,51,0,51,0,12.9,-1,correct answer,0.334095099999,False,True,stimulusTOSY08_2IFC_2019_Jun_18_1255_103,stimulusTOSY08_2IFC_2019_Jun_18_1255_104,False,2019_Jun_18_1255,2IFC,2,TOSY08,
2IFC,52,0,52,0,12.9,-1,correct answer,0.400640700012,False,True,stimulusTOSY08_2IFC_2019_Jun_18_1255_105,stimulusTOSY08_2IFC_2019_Jun_18_1255_106,False,2019_Jun_18_1255,2IFC,2,TOSY08,
2IFC,53,0,53,0,12.9,-1,correct answer,0.233706900035,True,False,stimulusTOSY08_2IFC_2019_Jun_18_1255_107,stimulusTOSY08_2IFC_2019_Jun_18_1255_108,False,2019_Jun_18_1255,2IFC,2,TOSY08,
2IFC,54,0,54,0,12.9,-1,correct answer,0.33526880003,False,True,stimulusTOSY08_2IFC_2019_Jun_18_1255_109,stimulusTOSY08_2IFC_2019_Jun_18_1255_110,False,2019_Jun_18_1255,2IFC,2,TOSY08,
2IFC,55,0,55,0,12.9,-1,wrong answer,0.300339000009,False,True,stimulusTOSY08_2IFC_2019_Jun_18_1255_111,stimulusTOSY08_2IFC_2019_Jun_18_1255_112,False,2019_Jun_18_1255,2IFC,2,TOSY08,
2IFC,56,0,56,0,12.9,-1,correct answer,0.53576119995,True,False,stimulusTOSY08_2IFC_2019_Jun_18_1255_113,stimulusTOSY08_2IFC_2019_Jun_18_1255_114,False,2019_Jun_18_1255,2IFC,2,TOSY08,
2IFC,57,0,57,0,12.9,-1,correct answer,0.366908999975,True,False,stimulusTOSY08_2IFC_2019_Jun_18_1255_115,stimulusTOSY08_2IFC_2019_Jun_18_1255_116,False,2019_Jun_18_1255,2IFC,2,TOSY08,
2IFC,58,0,58,0,12.9,-1,correct answer,0.267095700023,False,True,stimulusTOSY08_2IFC_2019_Jun_18_1255_117,stimulusTOSY08_2IFC_2019_Jun_18_1255_118,False,2019_Jun_18_1255,2IFC,2,TOSY08,
2IFC,59,0,59,0,12.9,-1,wrong answer,0.200503200002,False,True,stimulusTOSY08_2IFC_2019_Jun_18_1255_119,stimulusTOSY08_2IFC_2019_Jun_18_1255_120,False,2019_Jun_18_1255,2IFC,2,TOSY08,
2IFC,60,0,60,0,12.9,-1,correct answer,0.367425900011,False,True,stimulusTOSY08_2IFC_2019_Jun_18_1255_121,stimulusTOSY08_2IFC_2019_Jun_18_1255_122,False,2019_Jun_18_1255,2IFC,2,TOSY08,
2IFC,61,0,61,0,12.9,-1,wrong answer,0.43538489996,False,True,stimulusTOSY08_2IFC_2019_Jun_18_1255_123,stimulusTOSY08_2IFC_2019_Jun_18_1255_124,False,2019_Jun_18_1255,2IFC,2,TOSY08,
2IFC,62,0,62,0,12.9,-1,correct answer,0.36743719998,False,True,stimulusTOSY08_2IFC_2019_Jun_18_1255_125,stimulusTOSY08_2IFC_2019_Jun_18_1255_126,False,2019_Jun_18_1255,2IFC,2,TOSY08,
2IFC,63,0,63,0,12.9,-1,correct answer,0.334055300045,False,True,stimulusTOSY08_2IFC_2019_Jun_18_1255_127,stimulusTOSY08_2IFC_2019_Jun_18_1255_128,False,2019_Jun_18_1255,2IFC,2,TOSY08,
2IFC,64,0,64,0,12.9,-1,correct answer,0.267465699988,False,True,stimulusTOSY08_2IFC_2019_Jun_18_1255_129,stimulusTOSY08_2IFC_2019_Jun_18_1255_130,False,2019_Jun_18_1255,2IFC,2,TOSY08,
2IFC,65,0,65,0,12.9,-1,correct answer,0.369025299966,False,True,stimulusTOSY08_2IFC_2019_Jun_18_1255_131,stimulusTOSY08_2IFC_2019_Jun_18_1255_132,False,2019_Jun_18_1255,2IFC,2,TOSY08,
2IFC,66,0,66,0,12.9,-1,correct answer,0.300499500008,True,False,stimulusTOSY08_2IFC_2019_Jun_18_1255_133,stimulusTOSY08_2IFC_2019_Jun_18_1255_134,False,2019_Jun_18_1255,2IFC,2,TOSY08,
2IFC,67,0,67,0,12.9,-1,correct answer,0.366892400023,True,False,stimulusTOSY08_2IFC_2019_Jun_18_1255_135,stimulusTOSY08_2IFC_2019_Jun_18_1255_136,False,2019_Jun_18_1255,2IFC,2,TOSY08,
2IFC,68,0,68,0,12.9,-1,correct answer,0.33464690001,True,False,stimulusTOSY08_2IFC_2019_Jun_18_1255_137,stimulusTOSY08_2IFC_2019_Jun_18_1255_138,False,2019_Jun_18_1255,2IFC,2,TOSY08,
2IFC,69,0,69,0,12.9,-1,correct answer,0.299910300004,True,False,stimulusTOSY08_2IFC_2019_Jun_18_1255_139,stimulusTOSY08_2IFC_2019_Jun_18_1255_140,False,2019_Jun_18_1255,2IFC,2,TOSY08,
2IFC,70,0,70,0,12.9,-1,correct answer,0.599898900022,False,True,stimulusTOSY08_2IFC_2019_Jun_18_1255_141,stimulusTOSY08_2IFC_2019_Jun_18_1255_142,False,2019_Jun_18_1255,2IFC,2,TOSY08,
2IFC,71,0,71,0,12.9,-1,correct answer,0.467178300023,False,True,stimulusTOSY08_2IFC_2019_Jun_18_1255_143,stimulusTOSY08_2IFC_2019_Jun_18_1255_144,False,2019_Jun_18_1255,2IFC,2,TOSY08,
2IFC,72,0,72,0,12.9,-1,correct answer,0.234287099971,True,False,stimulusTOSY08_2IFC_2019_Jun_18_1255_145,stimulusTOSY08_2IFC_2019_Jun_18_1255_146,False,2019_Jun_18_1255,2IFC,2,TOSY08,
2IFC,73,0,73,0,12.9,-1,correct answer,0.400583999988,False,True,stimulusTOSY08_2IFC_2019_Jun_18_1255_147,stimulusTOSY08_2IFC_2019_Jun_18_1255_148,False,2019_Jun_18_1255,2IFC,2,TOSY08,
2IFC,74,0,74,0,12.9,-1,wrong answer,0.468204600038,False,True,stimulusTOSY08_2IFC_2019_Jun_18_1255_149,stimulusTOSY08_2IFC_2019_Jun_18_1255_150,False,2019_Jun_18_1255,2IFC,2,TOSY08,
2IFC,0,0,0,0,11.7,-1,correct answer,0.434557300003,True,False,stimulusTOSY08_2IFC_2019_Jun_18_1255_151,stimulusTOSY08_2IFC_2019_Jun_18_1255_152,False,2019_Jun_18_1255,2IFC,2,TOSY08,
2IFC,1,0,1,0,11.7,-1,correct answer,0.601050199999,False,True,stimulusTOSY08_2IFC_2019_Jun_18_1255_153,stimulusTOSY08_2IFC_2019_Jun_18_1255_154,False,2019_Jun_18_1255,2IFC,2,TOSY08,
2IFC,2,0,2,0,11.7,-1,correct answer,0.433593199996,True,False,stimulusTOSY08_2IFC_2019_Jun_18_1255_155,stimulusTOSY08_2IFC_2019_Jun_18_1255_156,False,2019_Jun_18_1255,2IFC,2,TOSY08,
2IFC,3,0,3,0,11.7,-1,correct answer,0.400601500005,False,True,stimulusTOSY08_2IFC_2019_Jun_18_1255_157,stimulusTOSY08_2IFC_2019_Jun_18_1255_158,False,2019_Jun_18_1255,2IFC,2,TOSY08,
2IFC,4,0,4,0,11.7,-1,correct answer,0.467062500014,True,False,stimulusTOSY08_2IFC_2019_Jun_18_1255_159,stimulusTOSY08_2IFC_2019_Jun_18_1255_160,False,2019_Jun_18_1255,2IFC,2,TOSY08,
2IFC,5,0,5,0,11.7,-1,correct answer,0.33360100002,True,False,stimulusTOSY08_2IFC_2019_Jun_18_1255_161,stimulusTOSY08_2IFC_2019_Jun_18_1255_162,False,2019_Jun_18_1255,2IFC,2,TOSY08,
2IFC,6,0,6,0,11.7,-1,correct answer,0.40060719999,False,True,stimulusTOSY08_2IFC_2019_Jun_18_1255_163,stimulusTOSY08_2IFC_2019_Jun_18_1255_164,False,2019_Jun_18_1255,2IFC,2,TOSY08,
2IFC,7,0,7,0,11.7,-1,correct answer,0.367217499996,False,True,stimulusTOSY08_2IFC_2019_Jun_18_1255_165,stimulusTOSY08_2IFC_2019_Jun_18_1255_166,False,2019_Jun_18_1255,2IFC,2,TOSY08,
2IFC,8,0,8,0,11.7,-1,correct answer,0.36751750001,False,True,stimulusTOSY08_2IFC_2019_Jun_18_1255_167,stimulusTOSY08_2IFC_2019_Jun_18_1255_168,False,2019_Jun_18_1255,2IFC,2,TOSY08,
2IFC,9,0,9,0,11.7,-1,correct answer,0.433589000022,False,True,stimulusTOSY08_2IFC_2019_Jun_18_1255_169,stimulusTOSY08_2IFC_2019_Jun_18_1255_170,False,2019_Jun_18_1255,2IFC,2,TOSY08,
2IFC,10,0,10,0,11.7,-1,correct answer,0.368050300051,False,True,stimulusTOSY08_2IFC_2019_Jun_18_1255_171,stimulusTOSY08_2IFC_2019_Jun_18_1255_172,False,2019_Jun_18_1255,2IFC,2,TOSY08,
2IFC,11,0,11,0,11.7,-1,correct answer,0.599778800039,True,False,stimulusTOSY08_2IFC_2019_Jun_18_1255_173,stimulusTOSY08_2IFC_2019_Jun_18_1255_174,False,2019_Jun_18_1255,2IFC,2,TOSY08,
2IFC,12,0,12,0,11.7,-1,correct answer,0.299804600014,False,True,stimulusTOSY08_2IFC_2019_Jun_18_1255_175,stimulusTOSY08_2IFC_2019_Jun_18_1255_176,False,2019_Jun_18_1255,2IFC,2,TOSY08,
2IFC,13,0,13,0,11.7,-1,correct answer,0.500732999993,True,False,stimulusTOSY08_2IFC_2019_Jun_18_1255_177,stimulusTOSY08_2IFC_2019_Jun_18_1255_178,False,2019_Jun_18_1255,2IFC,2,TOSY08,
2IFC,14,0,14,0,11.7,-1,correct answer,0.534731000022,True,False,stimulusTOSY08_2IFC_2019_Jun_18_1255_179,stimulusTOSY08_2IFC_2019_Jun_18_1255_180,False,2019_Jun_18_1255,2IFC,2,TOSY08,
2IFC,15,0,15,0,11.7,-1,correct answer,0.267232799961,False,True,stimulusTOSY08_2IFC_2019_Jun_18_1255_181,stimulusTOSY08_2IFC_2019_Jun_18_1255_182,False,2019_Jun_18_1255,2IFC,2,TOSY08,
2IFC,16,0,16,0,11.7,-1,correct answer,0.467606300022,False,True,stimulusTOSY08_2IFC_2019_Jun_18_1255_183,stimulusTOSY08_2IFC_2019_Jun_18_1255_184,False,2019_Jun_18_1255,2IFC,2,TOSY08,
2IFC,17,0,17,0,11.7,-1,correct answer,0.366786799976,False,True,stimulusTOSY08_2IFC_2019_Jun_18_1255_185,stimulusTOSY08_2IFC_2019_Jun_18_1255_186,False,2019_Jun_18_1255,2IFC,2,TOSY08,
2IFC,18,0,18,0,11.7,-1,correct answer,0.333928800013,False,True,stimulusTOSY08_2IFC_2019_Jun_18_1255_187,stimulusTOSY08_2IFC_2019_Jun_18_1255_188,False,2019_Jun_18_1255,2IFC,2,TOSY08,
2IFC,19,0,19,0,11.7,-1,correct answer,0.86638750002,False,True,stimulusTOSY08_2IFC_2019_Jun_18_1255_189,stimulusTOSY08_2IFC_2019_Jun_18_1255_190,False,2019_Jun_18_1255,2IFC,2,TOSY08,
2IFC,20,0,20,0,11.7,-1,correct answer,0.367242000008,True,False,stimulusTOSY08_2IFC_2019_Jun_18_1255_191,stimulusTOSY08_2IFC_2019_Jun_18_1255_192,False,2019_Jun_18_1255,2IFC,2,TOSY08,
2IFC,21,0,21,0,11.7,-1,correct answer,0.300195800024,False,True,stimulusTOSY08_2IFC_2019_Jun_18_1255_193,stimulusTOSY08_2IFC_2019_Jun_18_1255_194,False,2019_Jun_18_1255,2IFC,2,TOSY08,
2IFC,22,0,22,0,11.7,-1,correct answer,0.333705500001,True,False,stimulusTOSY08_2IFC_2019_Jun_18_1255_195,stimulusTOSY08_2IFC_2019_Jun_18_1255_196,False,2019_Jun_18_1255,2IFC,2,TOSY08,
2IFC,23,0,23,0,11.7,-1,correct answer,0.267796,True,False,stimulusTOSY08_2IFC_2019_Jun_18_1255_197,stimulusTOSY08_2IFC_2019_Jun_18_1255_198,False,2019_Jun_18_1255,2IFC,2,TOSY08,
2IFC,24,0,24,0,11.7,-1,correct answer,0.333833699988,True,False,stimulusTOSY08_2IFC_2019_Jun_18_1255_199,stimulusTOSY08_2IFC_2019_Jun_18_1255_200,False,2019_Jun_18_1255,2IFC,2,TOSY08,
2IFC,25,0,25,0,11.7,-1,correct answer,0.267041700019,False,True,stimulusTOSY08_2IFC_2019_Jun_18_1255_201,stimulusTOSY08_2IFC_2019_Jun_18_1255_202,False,2019_Jun_18_1255,2IFC,2,TOSY08,
2IFC,26,0,26,0,11.7,-1,wrong answer,0.266584200028,False,True,stimulusTOSY08_2IFC_2019_Jun_18_1255_203,stimulusTOSY08_2IFC_2019_Jun_18_1255_204,False,2019_Jun_18_1255,2IFC,2,TOSY08,
2IFC,27,0,27,0,11.7,-1,correct answer,0.334018100053,True,False,stimulusTOSY08_2IFC_2019_Jun_18_1255_205,stimulusTOSY08_2IFC_2019_Jun_18_1255_206,False,2019_Jun_18_1255,2IFC,2,TOSY08,
2IFC,28,0,28,0,11.7,-1,correct answer,0.26747859997,False,True,stimulusTOSY08_2IFC_2019_Jun_18_1255_207,stimulusTOSY08_2IFC_2019_Jun_18_1255_208,False,2019_Jun_18_1255,2IFC,2,TOSY08,
2IFC,29,0,29,0,11.7,-1,wrong answer,0.400537899986,False,True,stimulusTOSY08_2IFC_2019_Jun_18_1255_209,stimulusTOSY08_2IFC_2019_Jun_18_1255_210,False,2019_Jun_18_1255,2IFC,2,TOSY08,
2IFC,30,0,30,0,11.7,-1,correct answer,0.400847500016,True,False,stimulusTOSY08_2IFC_2019_Jun_18_1255_211,stimulusTOSY08_2IFC_2019_Jun_18_1255_212,False,2019_Jun_18_1255,2IFC,2,TOSY08,
2IFC,31,0,31,0,11.7,-1,correct answer,0.400901800022,True,False,stimulusTOSY08_2IFC_2019_Jun_18_1255_213,stimulusTOSY08_2IFC_2019_Jun_18_1255_214,False,2019_Jun_18_1255,2IFC,2,TOSY08,
2IFC,32,0,32,0,11.7,-1,correct answer,0.600913800008,True,False,stimulusTOSY08_2IFC_2019_Jun_18_1255_215,stimulusTOSY08_2IFC_2019_Jun_18_1255_216,False,2019_Jun_18_1255,2IFC,2,TOSY08,
2IFC,33,0,33,0,11.7,-1,correct answer,0.302644600044,True,False,stimulusTOSY08_2IFC_2019_Jun_18_1255_217,stimulusTOSY08_2IFC_2019_Jun_18_1255_218,False,2019_Jun_18_1255,2IFC,2,TOSY08,
2IFC,34,0,34,0,11.7,-1,correct answer,0.30048179999,True,False,stimulusTOSY08_2IFC_2019_Jun_18_1255_219,stimulusTOSY08_2IFC_2019_Jun_18_1255_220,False,2019_Jun_18_1255,2IFC,2,TOSY08,
2IFC,35,0,35,0,11.7,-1,correct answer,0.26725590002,False,True,stimulusTOSY08_2IFC_2019_Jun_18_1255_221,stimulusTOSY08_2IFC_2019_Jun_18_1255_222,False,2019_Jun_18_1255,2IFC,2,TOSY08,
2IFC,36,0,36,0,11.7,-1,correct answer,0.467082899995,True,False,stimulusTOSY08_2IFC_2019_Jun_18_1255_223,stimulusTOSY08_2IFC_2019_Jun_18_1255_224,False,2019_Jun_18_1255,2IFC,2,TOSY08,
2IFC,37,0,37,0,11.7,-1,correct answer,0.300151900039,False,True,stimulusTOSY08_2IFC_2019_Jun_18_1255_225,stimulusTOSY08_2IFC_2019_Jun_18_1255_226,False,2019_Jun_18_1255,2IFC,2,TOSY08,
2IFC,38,0,38,0,11.7,-1,correct answer,0.400765999977,True,False,stimulusTOSY08_2IFC_2019_Jun_18_1255_227,stimulusTOSY08_2IFC_2019_Jun_18_1255_228,False,2019_Jun_18_1255,2IFC,2,TOSY08,
2IFC,39,0,39,0,11.7,-1,correct answer,0.301088600012,True,False,stimulusTOSY08_2IFC_2019_Jun_18_1255_229,stimulusTOSY08_2IFC_2019_Jun_18_1255_230,False,2019_Jun_18_1255,2IFC,2,TOSY08,
2IFC,40,0,40,0,11.7,-1,correct answer,0.430694599985,False,True,stimulusTOSY08_2IFC_2019_Jun_18_1255_231,stimulusTOSY08_2IFC_2019_Jun_18_1255_232,False,2019_Jun_18_1255,2IFC,2,TOSY08,
2IFC,41,0,41,0,11.7,-1,correct answer,0.599953499972,True,False,stimulusTOSY08_2IFC_2019_Jun_18_1255_233,stimulusTOSY08_2IFC_2019_Jun_18_1255_234,False,2019_Jun_18_1255,2IFC,2,TOSY08,
2IFC,42,0,42,0,11.7,-1,correct answer,0.367302400002,False,True,stimulusTOSY08_2IFC_2019_Jun_18_1255_235,stimulusTOSY08_2IFC_2019_Jun_18_1255_236,False,2019_Jun_18_1255,2IFC,2,TOSY08,
2IFC,43,0,43,0,11.7,-1,correct answer,0.333872499992,True,False,stimulusTOSY08_2IFC_2019_Jun_18_1255_237,stimulusTOSY08_2IFC_2019_Jun_18_1255_238,False,2019_Jun_18_1255,2IFC,2,TOSY08,
2IFC,44,0,44,0,11.7,-1,correct answer,0.400645899994,True,False,stimulusTOSY08_2IFC_2019_Jun_18_1255_239,stimulusTOSY08_2IFC_2019_Jun_18_1255_240,False,2019_Jun_18_1255,2IFC,2,TOSY08,
2IFC,45,0,45,0,11.7,-1,wrong answer,0.368096499995,True,False,stimulusTOSY08_2IFC_2019_Jun_18_1255_241,stimulusTOSY08_2IFC_2019_Jun_18_1255_242,False,2019_Jun_18_1255,2IFC,2,TOSY08,
2IFC,46,0,46,0,11.7,-1,correct answer,0.268574799993,True,False,stimulusTOSY08_2IFC_2019_Jun_18_1255_243,stimulusTOSY08_2IFC_2019_Jun_18_1255_244,False,2019_Jun_18_1255,2IFC,2,TOSY08,
2IFC,47,0,47,0,11.7,-1,correct answer,0.300569099956,True,False,stimulusTOSY08_2IFC_2019_Jun_18_1255_245,stimulusTOSY08_2IFC_2019_Jun_18_1255_246,False,2019_Jun_18_1255,2IFC,2,TOSY08,
2IFC,48,0,48,0,11.7,-1,correct answer,0.262620399997,True,False,stimulusTOSY08_2IFC_2019_Jun_18_1255_247,stimulusTOSY08_2IFC_2019_Jun_18_1255_248,False,2019_Jun_18_1255,2IFC,2,TOSY08,
2IFC,49,0,49,0,11.7,-1,wrong answer,0.800552100001,False,True,stimulusTOSY08_2IFC_2019_Jun_18_1255_249,stimulusTOSY08_2IFC_2019_Jun_18_1255_250,False,2019_Jun_18_1255,2IFC,2,TOSY08,
2IFC,50,0,50,0,11.7,-1,correct answer,0.298498700024,True,False,stimulusTOSY08_2IFC_2019_Jun_18_1255_251,stimulusTOSY08_2IFC_2019_Jun_18_1255_252,False,2019_Jun_18_1255,2IFC,2,TOSY08,
2IFC,51,0,51,0,11.7,-1,correct answer,0.333768500015,True,False,stimulusTOSY08_2IFC_2019_Jun_18_1255_253,stimulusTOSY08_2IFC_2019_Jun_18_1255_254,False,2019_Jun_18_1255,2IFC,2,TOSY08,
2IFC,52,0,52,0,11.7,-1,correct answer,0.297192200029,False,True,stimulusTOSY08_2IFC_2019_Jun_18_1255_255,stimulusTOSY08_2IFC_2019_Jun_18_1255_256,False,2019_Jun_18_1255,2IFC,2,TOSY08,
2IFC,53,0,53,0,11.7,-1,correct answer,0.101767500048,False,True,stimulusTOSY08_2IFC_2019_Jun_18_1255_257,stimulusTOSY08_2IFC_2019_Jun_18_1255_258,False,2019_Jun_18_1255,2IFC,2,TOSY08,
2IFC,54,0,54,0,11.7,-1,correct answer,0.535488499969,True,False,stimulusTOSY08_2IFC_2019_Jun_18_1255_259,stimulusTOSY08_2IFC_2019_Jun_18_1255_260,False,2019_Jun_18_1255,2IFC,2,TOSY08,
2IFC,55,0,55,0,11.7,-1,correct answer,0.130183200003,False,True,stimulusTOSY08_2IFC_2019_Jun_18_1255_261,stimulusTOSY08_2IFC_2019_Jun_18_1255_262,False,2019_Jun_18_1255,2IFC,2,TOSY08,
2IFC,56,0,56,0,11.7,-1,wrong answer,0.133906400006,False,True,stimulusTOSY08_2IFC_2019_Jun_18_1255_263,stimulusTOSY08_2IFC_2019_Jun_18_1255_264,False,2019_Jun_18_1255,2IFC,2,TOSY08,
2IFC,57,0,57,0,11.7,-1,correct answer,0.200578599994,False,True,stimulusTOSY08_2IFC_2019_Jun_18_1255_265,stimulusTOSY08_2IFC_2019_Jun_18_1255_266,False,2019_Jun_18_1255,2IFC,2,TOSY08,
2IFC,58,0,58,0,11.7,-1,correct answer,0.0334857999696,True,False,stimulusTOSY08_2IFC_2019_Jun_18_1255_267,stimulusTOSY08_2IFC_2019_Jun_18_1255_268,False,2019_Jun_18_1255,2IFC,2,TOSY08,
2IFC,59,0,59,0,11.7,-1,correct answer,0.500965900021,True,False,stimulusTOSY08_2IFC_2019_Jun_18_1255_269,stimulusTOSY08_2IFC_2019_Jun_18_1255_270,False,2019_Jun_18_1255,2IFC,2,TOSY08,
2IFC,60,0,60,0,11.7,-1,correct answer,0.267254700011,True,False,stimulusTOSY08_2IFC_2019_Jun_18_1255_271,stimulusTOSY08_2IFC_2019_Jun_18_1255_272,False,2019_Jun_18_1255,2IFC,2,TOSY08,
2IFC,61,0,61,0,11.7,-1,correct answer,0.500640900049,True,False,stimulusTOSY08_2IFC_2019_Jun_18_1255_273,stimulusTOSY08_2IFC_2019_Jun_18_1255_274,False,2019_Jun_18_1255,2IFC,2,TOSY08,
2IFC,62,0,62,0,11.7,-1,correct answer,0.0338013999863,False,True,stimulusTOSY08_2IFC_2019_Jun_18_1255_275,stimulusTOSY08_2IFC_2019_Jun_18_1255_276,False,2019_Jun_18_1255,2IFC,2,TOSY08,
2IFC,63,0,63,0,11.7,-1,wrong answer,0.0342148999916,False,True,stimulusTOSY08_2IFC_2019_Jun_18_1255_277,stimulusTOSY08_2IFC_2019_Jun_18_1255_278,False,2019_Jun_18_1255,2IFC,2,TOSY08,
2IFC,64,0,64,0,11.7,-1,correct answer,0.30030599999,True,False,stimulusTOSY08_2IFC_2019_Jun_18_1255_279,stimulusTOSY08_2IFC_2019_Jun_18_1255_280,False,2019_Jun_18_1255,2IFC,2,TOSY08,
2IFC,65,0,65,0,11.7,-1,wrong answer,0.266836999974,True,False,stimulusTOSY08_2IFC_2019_Jun_18_1255_281,stimulusTOSY08_2IFC_2019_Jun_18_1255_282,False,2019_Jun_18_1255,2IFC,2,TOSY08,
2IFC,66,0,66,0,11.7,-1,correct answer,0.400397900026,False,True,stimulusTOSY08_2IFC_2019_Jun_18_1255_283,stimulusTOSY08_2IFC_2019_Jun_18_1255_284,False,2019_Jun_18_1255,2IFC,2,TOSY08,
2IFC,67,0,67,0,11.7,-1,correct answer,0.233686499996,False,True,stimulusTOSY08_2IFC_2019_Jun_18_1255_285,stimulusTOSY08_2IFC_2019_Jun_18_1255_286,False,2019_Jun_18_1255,2IFC,2,TOSY08,
2IFC,68,0,68,0,11.7,-1,correct answer,0.166785000009,True,False,stimulusTOSY08_2IFC_2019_Jun_18_1255_287,stimulusTOSY08_2IFC_2019_Jun_18_1255_288,False,2019_Jun_18_1255,2IFC,2,TOSY08,
2IFC,69,0,69,0,11.7,-1,correct answer,0.23168680002,False,True,stimulusTOSY08_2IFC_2019_Jun_18_1255_289,stimulusTOSY08_2IFC_2019_Jun_18_1255_290,False,2019_Jun_18_1255,2IFC,2,TOSY08,
2IFC,70,0,70,0,11.7,-1,correct answer,0.267879499996,False,True,stimulusTOSY08_2IFC_2019_Jun_18_1255_291,stimulusTOSY08_2IFC_2019_Jun_18_1255_292,False,2019_Jun_18_1255,2IFC,2,TOSY08,
2IFC,71,0,71,0,11.7,-1,correct answer,0.266951499972,False,True,stimulusTOSY08_2IFC_2019_Jun_18_1255_293,stimulusTOSY08_2IFC_2019_Jun_18_1255_294,False,2019_Jun_18_1255,2IFC,2,TOSY08,
2IFC,72,0,72,0,11.7,-1,correct answer,0.267205799988,True,False,stimulusTOSY08_2IFC_2019_Jun_18_1255_295,stimulusTOSY08_2IFC_2019_Jun_18_1255_296,False,2019_Jun_18_1255,2IFC,2,TOSY08,
2IFC,73,0,73,0,11.7,-1,wrong answer,0.2340692,True,False,stimulusTOSY08_2IFC_2019_Jun_18_1255_297,stimulusTOSY08_2IFC_2019_Jun_18_1255_298,False,2019_Jun_18_1255,2IFC,2,TOSY08,
2IFC,74,0,74,0,11.7,-1,correct answer,0.233962500002,True,False,stimulusTOSY08_2IFC_2019_Jun_18_1255_299,stimulusTOSY08_2IFC_2019_Jun_18_1255_300,False,2019_Jun_18_1255,2IFC,2,TOSY08,
2IFC,0,0,0,0,6.5,-1,correct answer,0.734636900015,True,False,stimulusTOSY08_2IFC_2019_Jun_18_1255_301,stimulusTOSY08_2IFC_2019_Jun_18_1255_302,False,2019_Jun_18_1255,2IFC,2,TOSY08,
2IFC,1,0,1,0,6.5,-1,correct answer,0.667707599991,True,False,stimulusTOSY08_2IFC_2019_Jun_18_1255_303,stimulusTOSY08_2IFC_2019_Jun_18_1255_304,False,2019_Jun_18_1255,2IFC,2,TOSY08,
2IFC,2,0,2,0,6.5,-1,wrong answer,0.667234199995,False,True,stimulusTOSY08_2IFC_2019_Jun_18_1255_305,stimulusTOSY08_2IFC_2019_Jun_18_1255_306,False,2019_Jun_18_1255,2IFC,2,TOSY08,
2IFC,3,0,3,0,6.5,-1,correct answer,0.600341400015,False,True,stimulusTOSY08_2IFC_2019_Jun_18_1255_307,stimulusTOSY08_2IFC_2019_Jun_18_1255_308,False,2019_Jun_18_1255,2IFC,2,TOSY08,
2IFC,4,0,4,0,6.5,-1,correct answer,0.668668999977,True,False,stimulusTOSY08_2IFC_2019_Jun_18_1255_309,stimulusTOSY08_2IFC_2019_Jun_18_1255_310,False,2019_Jun_18_1255,2IFC,2,TOSY08,
2IFC,5,0,5,0,6.5,-1,correct answer,0.768206999986,True,False,stimulusTOSY08_2IFC_2019_Jun_18_1255_311,stimulusTOSY08_2IFC_2019_Jun_18_1255_312,False,2019_Jun_18_1255,2IFC,2,TOSY08,
2IFC,6,0,6,0,6.5,-1,correct answer,0.666771299962,False,True,stimulusTOSY08_2IFC_2019_Jun_18_1255_313,stimulusTOSY08_2IFC_2019_Jun_18_1255_314,False,2019_Jun_18_1255,2IFC,2,TOSY08,
2IFC,7,0,7,0,6.5,-1,correct answer,0.734343500051,False,True,stimulusTOSY08_2IFC_2019_Jun_18_1255_315,stimulusTOSY08_2IFC_2019_Jun_18_1255_316,False,2019_Jun_18_1255,2IFC,2,TOSY08,
2IFC,8,0,8,0,6.5,-1,correct answer,0.701690400019,True,False,stimulusTOSY08_2IFC_2019_Jun_18_1255_317,stimulusTOSY08_2IFC_2019_Jun_18_1255_318,False,2019_Jun_18_1255,2IFC,2,TOSY08,
2IFC,9,0,9,0,6.5,-1,wrong answer,0.800825299986,False,True,stimulusTOSY08_2IFC_2019_Jun_18_1255_319,stimulusTOSY08_2IFC_2019_Jun_18_1255_320,False,2019_Jun_18_1255,2IFC,2,TOSY08,
2IFC,10,0,10,0,6.5,-1,correct answer,0.635633600003,False,True,stimulusTOSY08_2IFC_2019_Jun_18_1255_321,stimulusTOSY08_2IFC_2019_Jun_18_1255_322,False,2019_Jun_18_1255,2IFC,2,TOSY08,
2IFC,11,0,11,0,6.5,-1,correct answer,0.767437599949,True,False,stimulusTOSY08_2IFC_2019_Jun_18_1255_323,stimulusTOSY08_2IFC_2019_Jun_18_1255_324,False,2019_Jun_18_1255,2IFC,2,TOSY08,
2IFC,12,0,12,0,6.5,-1,correct answer,0.500165500038,True,False,stimulusTOSY08_2IFC_2019_Jun_18_1255_325,stimulusTOSY08_2IFC_2019_Jun_18_1255_326,False,2019_Jun_18_1255,2IFC,2,TOSY08,
2IFC,13,0,13,0,6.5,-1,no answer,-1,True,False,stimulusTOSY08_2IFC_2019_Jun_18_1255_327,stimulusTOSY08_2IFC_2019_Jun_18_1255_328,False,2019_Jun_18_1255,2IFC,2,TOSY08,
2IFC,14,0,14,0,6.5,-1,correct answer,0.367184599978,False,True,stimulusTOSY08_2IFC_2019_Jun_18_1255_329,stimulusTOSY08_2IFC_2019_Jun_18_1255_330,False,2019_Jun_18_1255,2IFC,2,TOSY08,
2IFC,15,0,15,0,6.5,-1,wrong answer,0.36723730003,False,True,stimulusTOSY08_2IFC_2019_Jun_18_1255_331,stimulusTOSY08_2IFC_2019_Jun_18_1255_332,False,2019_Jun_18_1255,2IFC,2,TOSY08,
2IFC,16,0,16,0,6.5,-1,correct answer,0.333796599996,True,False,stimulusTOSY08_2IFC_2019_Jun_18_1255_333,stimulusTOSY08_2IFC_2019_Jun_18_1255_334,False,2019_Jun_18_1255,2IFC,2,TOSY08,
2IFC,17,0,17,0,6.5,-1,correct answer,0.63248640002,True,False,stimulusTOSY08_2IFC_2019_Jun_18_1255_335,stimulusTOSY08_2IFC_2019_Jun_18_1255_336,False,2019_Jun_18_1255,2IFC,2,TOSY08,
2IFC,18,0,18,0,6.5,-1,correct answer,0.300875000015,False,True,stimulusTOSY08_2IFC_2019_Jun_18_1255_337,stimulusTOSY08_2IFC_2019_Jun_18_1255_338,False,2019_Jun_18_1255,2IFC,2,TOSY08,
2IFC,19,0,19,0,6.5,-1,correct answer,0.700870000001,False,True,stimulusTOSY08_2IFC_2019_Jun_18_1255_339,stimulusTOSY08_2IFC_2019_Jun_18_1255_340,False,2019_Jun_18_1255,2IFC,2,TOSY08,
2IFC,20,0,20,0,6.5,-1,correct answer,0.733011299977,True,False,stimulusTOSY08_2IFC_2019_Jun_18_1255_341,stimulusTOSY08_2IFC_2019_Jun_18_1255_342,False,2019_Jun_18_1255,2IFC,2,TOSY08,
2IFC,21,0,21,0,6.5,-1,correct answer,0.834636499989,True,False,stimulusTOSY08_2IFC_2019_Jun_18_1255_343,stimulusTOSY08_2IFC_2019_Jun_18_1255_344,False,2019_Jun_18_1255,2IFC,2,TOSY08,
2IFC,22,0,22,0,6.5,-1,correct answer,0.768002099998,True,False,stimulusTOSY08_2IFC_2019_Jun_18_1255_345,stimulusTOSY08_2IFC_2019_Jun_18_1255_346,False,2019_Jun_18_1255,2IFC,2,TOSY08,
2IFC,23,0,23,0,6.5,-1,correct answer,0.734111300029,True,False,stimulusTOSY08_2IFC_2019_Jun_18_1255_347,stimulusTOSY08_2IFC_2019_Jun_18_1255_348,False,2019_Jun_18_1255,2IFC,2,TOSY08,
2IFC,24,0,24,0,6.5,-1,correct answer,0.700709900004,True,False,stimulusTOSY08_2IFC_2019_Jun_18_1255_349,stimulusTOSY08_2IFC_2019_Jun_18_1255_350,False,2019_Jun_18_1255,2IFC,2,TOSY08,
2IFC,25,0,25,0,6.5,-1,correct answer,0.433832900017,True,False,stimulusTOSY08_2IFC_2019_Jun_18_1255_351,stimulusTOSY08_2IFC_2019_Jun_18_1255_352,False,2019_Jun_18_1255,2IFC,2,TOSY08,
2IFC,26,0,26,0,6.5,-1,no answer,-1,True,False,stimulusTOSY08_2IFC_2019_Jun_18_1255_353,stimulusTOSY08_2IFC_2019_Jun_18_1255_354,False,2019_Jun_18_1255,2IFC,2,TOSY08,
2IFC,27,0,27,0,6.5,-1,wrong answer,0.834255100053,True,False,stimulusTOSY08_2IFC_2019_Jun_18_1255_355,stimulusTOSY08_2IFC_2019_Jun_18_1255_356,False,2019_Jun_18_1255,2IFC,2,TOSY08,
2IFC,28,0,28,0,6.5,-1,correct answer,0.834020200011,False,True,stimulusTOSY08_2IFC_2019_Jun_18_1255_357,stimulusTOSY08_2IFC_2019_Jun_18_1255_358,False,2019_Jun_18_1255,2IFC,2,TOSY08,
2IFC,29,0,29,0,6.5,-1,correct answer,0.570173199987,True,False,stimulusTOSY08_2IFC_2019_Jun_18_1255_359,stimulusTOSY08_2IFC_2019_Jun_18_1255_360,False,2019_Jun_18_1255,2IFC,2,TOSY08,
2IFC,30,0,30,0,6.5,-1,wrong answer,0.301393400005,True,False,stimulusTOSY08_2IFC_2019_Jun_18_1255_361,stimulusTOSY08_2IFC_2019_Jun_18_1255_362,False,2019_Jun_18_1255,2IFC,2,TOSY08,
2IFC,31,0,31,0,6.5,-1,correct answer,0.733797200024,True,False,stimulusTOSY08_2IFC_2019_Jun_18_1255_363,stimulusTOSY08_2IFC_2019_Jun_18_1255_364,False,2019_Jun_18_1255,2IFC,2,TOSY08,
2IFC,32,0,32,0,6.5,-1,correct answer,0.56747400004,True,False,stimulusTOSY08_2IFC_2019_Jun_18_1255_365,stimulusTOSY08_2IFC_2019_Jun_18_1255_366,False,2019_Jun_18_1255,2IFC,2,TOSY08,
2IFC,33,0,33,0,6.5,-1,no answer,-1,True,False,stimulusTOSY08_2IFC_2019_Jun_18_1255_367,stimulusTOSY08_2IFC_2019_Jun_18_1255_368,False,2019_Jun_18_1255,2IFC,2,TOSY08,
2IFC,34,0,34,0,6.5,-1,correct answer,0.700610300002,False,True,stimulusTOSY08_2IFC_2019_Jun_18_1255_369,stimulusTOSY08_2IFC_2019_Jun_18_1255_370,False,2019_Jun_18_1255,2IFC,2,TOSY08,
2IFC,35,0,35,0,6.5,-1,wrong answer,0.401684799988,False,True,stimulusTOSY08_2IFC_2019_Jun_18_1255_371,stimulusTOSY08_2IFC_2019_Jun_18_1255_372,False,2019_Jun_18_1255,2IFC,2,TOSY08,
2IFC,36,0,36,0,6.5,-1,wrong answer,0.267007699993,True,False,stimulusTOSY08_2IFC_2019_Jun_18_1255_373,stimulusTOSY08_2IFC_2019_Jun_18_1255_374,False,2019_Jun_18_1255,2IFC,2,TOSY08,
2IFC,37,0,37,0,6.5,-1,correct answer,0.267232000013,True,False,stimulusTOSY08_2IFC_2019_Jun_18_1255_375,stimulusTOSY08_2IFC_2019_Jun_18_1255_376,False,2019_Jun_18_1255,2IFC,2,TOSY08,
2IFC,38,0,38,0,6.5,-1,wrong answer,0.634142200055,True,False,stimulusTOSY08_2IFC_2019_Jun_18_1255_377,stimulusTOSY08_2IFC_2019_Jun_18_1255_378,False,2019_Jun_18_1255,2IFC,2,TOSY08,
2IFC,39,0,39,0,6.5,-1,correct answer,0.800617799978,True,False,stimulusTOSY08_2IFC_2019_Jun_18_1255_379,stimulusTOSY08_2IFC_2019_Jun_18_1255_380,False,2019_Jun_18_1255,2IFC,2,TOSY08,
2IFC,40,0,40,0,6.5,-1,correct answer,0.700466699956,False,True,stimulusTOSY08_2IFC_2019_Jun_18_1255_381,stimulusTOSY08_2IFC_2019_Jun_18_1255_382,False,2019_Jun_18_1255,2IFC,2,TOSY08,
2IFC,41,0,41,0,6.5,-1,wrong answer,0.767585000023,False,True,stimulusTOSY08_2IFC_2019_Jun_18_1255_383,stimulusTOSY08_2IFC_2019_Jun_18_1255_384,False,2019_Jun_18_1255,2IFC,2,TOSY08,
2IFC,42,0,42,0,6.5,-1,correct answer,0.399571400019,False,True,stimulusTOSY08_2IFC_2019_Jun_18_1255_385,stimulusTOSY08_2IFC_2019_Jun_18_1255_386,False,2019_Jun_18_1255,2IFC,2,TOSY08,
2IFC,43,0,43,0,6.5,-1,correct answer,0.767587599985,True,False,stimulusTOSY08_2IFC_2019_Jun_18_1255_387,stimulusTOSY08_2IFC_2019_Jun_18_1255_388,False,2019_Jun_18_1255,2IFC,2,TOSY08,
2IFC,44,0,44,0,6.5,-1,correct answer,0.467102400027,False,True,stimulusTOSY08_2IFC_2019_Jun_18_1255_389,stimulusTOSY08_2IFC_2019_Jun_18_1255_390,False,2019_Jun_18_1255,2IFC,2,TOSY08,
2IFC,45,0,45,0,6.5,-1,correct answer,0.834055099986,True,False,stimulusTOSY08_2IFC_2019_Jun_18_1255_391,stimulusTOSY08_2IFC_2019_Jun_18_1255_392,False,2019_Jun_18_1255,2IFC,2,TOSY08,
2IFC,46,0,46,0,6.5,-1,no answer,-1,True,False,stimulusTOSY08_2IFC_2019_Jun_18_1255_393,stimulusTOSY08_2IFC_2019_Jun_18_1255_394,False,2019_Jun_18_1255,2IFC,2,TOSY08,
2IFC,47,0,47,0,6.5,-1,correct answer,0.500611300056,False,True,stimulusTOSY08_2IFC_2019_Jun_18_1255_395,stimulusTOSY08_2IFC_2019_Jun_18_1255_396,False,2019_Jun_18_1255,2IFC,2,TOSY08,
2IFC,48,0,48,0,6.5,-1,wrong answer,0.666759400046,False,True,stimulusTOSY08_2IFC_2019_Jun_18_1255_397,stimulusTOSY08_2IFC_2019_Jun_18_1255_398,False,2019_Jun_18_1255,2IFC,2,TOSY08,
2IFC,49,0,49,0,6.5,-1,correct answer,0.634040699981,False,True,stimulusTOSY08_2IFC_2019_Jun_18_1255_399,stimulusTOSY08_2IFC_2019_Jun_18_1255_400,False,2019_Jun_18_1255,2IFC,2,TOSY08,
2IFC,50,0,50,0,6.5,-1,correct answer,0.634242599946,False,True,stimulusTOSY08_2IFC_2019_Jun_18_1255_401,stimulusTOSY08_2IFC_2019_Jun_18_1255_402,False,2019_Jun_18_1255,2IFC,2,TOSY08,
2IFC,51,0,51,0,6.5,-1,correct answer,0.667600299988,False,True,stimulusTOSY08_2IFC_2019_Jun_18_1255_403,stimulusTOSY08_2IFC_2019_Jun_18_1255_404,False,2019_Jun_18_1255,2IFC,2,TOSY08,
2IFC,52,0,52,0,6.5,-1,correct answer,0.66726440005,True,False,stimulusTOSY08_2IFC_2019_Jun_18_1255_405,stimulusTOSY08_2IFC_2019_Jun_18_1255_406,False,2019_Jun_18_1255,2IFC,2,TOSY08,
2IFC,53,0,53,0,6.5,-1,correct answer,0.500516000029,False,True,stimulusTOSY08_2IFC_2019_Jun_18_1255_407,stimulusTOSY08_2IFC_2019_Jun_18_1255_408,False,2019_Jun_18_1255,2IFC,2,TOSY08,
2IFC,54,0,54,0,6.5,-1,correct answer,0.567186700006,False,True,stimulusTOSY08_2IFC_2019_Jun_18_1255_409,stimulusTOSY08_2IFC_2019_Jun_18_1255_410,False,2019_Jun_18_1255,2IFC,2,TOSY08,
2IFC,55,0,55,0,6.5,-1,correct answer,0.60073060001,False,True,stimulusTOSY08_2IFC_2019_Jun_18_1255_411,stimulusTOSY08_2IFC_2019_Jun_18_1255_412,False,2019_Jun_18_1255,2IFC,2,TOSY08,
2IFC,56,0,56,0,6.5,-1,correct answer,0.734026500024,True,False,stimulusTOSY08_2IFC_2019_Jun_18_1255_413,stimulusTOSY08_2IFC_2019_Jun_18_1255_414,False,2019_Jun_18_1255,2IFC,2,TOSY08,
2IFC,57,0,57,0,6.5,-1,correct answer,0.433587200008,False,True,stimulusTOSY08_2IFC_2019_Jun_18_1255_415,stimulusTOSY08_2IFC_2019_Jun_18_1255_416,False,2019_Jun_18_1255,2IFC,2,TOSY08,
2IFC,58,0,58,0,6.5,-1,correct answer,0.600688499981,False,True,stimulusTOSY08_2IFC_2019_Jun_18_1255_417,stimulusTOSY08_2IFC_2019_Jun_18_1255_418,False,2019_Jun_18_1255,2IFC,2,TOSY08,
2IFC,59,0,59,0,6.5,-1,wrong answer,0.667500900046,False,True,stimulusTOSY08_2IFC_2019_Jun_18_1255_419,stimulusTOSY08_2IFC_2019_Jun_18_1255_420,False,2019_Jun_18_1255,2IFC,2,TOSY08,
2IFC,60,0,60,0,6.5,-1,correct answer,0.406286199985,True,False,stimulusTOSY08_2IFC_2019_Jun_18_1255_421,stimulusTOSY08_2IFC_2019_Jun_18_1255_422,False,2019_Jun_18_1255,2IFC,2,TOSY08,
2IFC,61,0,61,0,6.5,-1,correct answer,0.833503800037,True,False,stimulusTOSY08_2IFC_2019_Jun_18_1255_423,stimulusTOSY08_2IFC_2019_Jun_18_1255_424,False,2019_Jun_18_1255,2IFC,2,TOSY08,
2IFC,62,0,62,0,6.5,-1,wrong answer,0.333614500007,True,False,stimulusTOSY08_2IFC_2019_Jun_18_1255_425,stimulusTOSY08_2IFC_2019_Jun_18_1255_426,False,2019_Jun_18_1255,2IFC,2,TOSY08,
2IFC,63,0,63,0,6.5,-1,correct answer,0.499951099977,False,True,stimulusTOSY08_2IFC_2019_Jun_18_1255_427,stimulusTOSY08_2IFC_2019_Jun_18_1255_428,False,2019_Jun_18_1255,2IFC,2,TOSY08,
2IFC,64,0,64,0,6.5,-1,correct answer,0.834139099985,False,True,stimulusTOSY08_2IFC_2019_Jun_18_1255_429,stimulusTOSY08_2IFC_2019_Jun_18_1255_430,False,2019_Jun_18_1255,2IFC,2,TOSY08,
2IFC,65,0,65,0,6.5,-1,correct answer,0.467424200033,False,True,stimulusTOSY08_2IFC_2019_Jun_18_1255_431,stimulusTOSY08_2IFC_2019_Jun_18_1255_432,False,2019_Jun_18_1255,2IFC,2,TOSY08,
2IFC,66,0,66,0,6.5,-1,correct answer,0.767879699997,True,False,stimulusTOSY08_2IFC_2019_Jun_18_1255_433,stimulusTOSY08_2IFC_2019_Jun_18_1255_434,False,2019_Jun_18_1255,2IFC,2,TOSY08,
2IFC,67,0,67,0,6.5,-1,correct answer,0.400685000001,True,False,stimulusTOSY08_2IFC_2019_Jun_18_1255_435,stimulusTOSY08_2IFC_2019_Jun_18_1255_436,False,2019_Jun_18_1255,2IFC,2,TOSY08,
2IFC,68,0,68,0,6.5,-1,correct answer,0.330882100039,False,True,stimulusTOSY08_2IFC_2019_Jun_18_1255_437,stimulusTOSY08_2IFC_2019_Jun_18_1255_438,False,2019_Jun_18_1255,2IFC,2,TOSY08,
2IFC,69,0,69,0,6.5,-1,correct answer,0.599773900001,True,False,stimulusTOSY08_2IFC_2019_Jun_18_1255_439,stimulusTOSY08_2IFC_2019_Jun_18_1255_440,False,2019_Jun_18_1255,2IFC,2,TOSY08,
2IFC,70,0,70,0,6.5,-1,wrong answer,0.634197100007,True,False,stimulusTOSY08_2IFC_2019_Jun_18_1255_441,stimulusTOSY08_2IFC_2019_Jun_18_1255_442,False,2019_Jun_18_1255,2IFC,2,TOSY08,
2IFC,71,0,71,0,6.5,-1,no answer,-1,True,False,stimulusTOSY08_2IFC_2019_Jun_18_1255_443,stimulusTOSY08_2IFC_2019_Jun_18_1255_444,False,2019_Jun_18_1255,2IFC,2,TOSY08,
2IFC,72,0,72,0,6.5,-1,correct answer,0.433635399968,False,True,stimulusTOSY08_2IFC_2019_Jun_18_1255_445,stimulusTOSY08_2IFC_2019_Jun_18_1255_446,False,2019_Jun_18_1255,2IFC,2,TOSY08,
2IFC,73,0,73,0,6.5,-1,correct answer,0.300621200004,False,True,stimulusTOSY08_2IFC_2019_Jun_18_1255_447,stimulusTOSY08_2IFC_2019_Jun_18_1255_448,False,2019_Jun_18_1255,2IFC,2,TOSY08,
2IFC,74,0,74,0,6.5,-1,correct answer,0.334521799989,True,False,stimulusTOSY08_2IFC_2019_Jun_18_1255_449,stimulusTOSY08_2IFC_2019_Jun_18_1255_450,False,2019_Jun_18_1255,2IFC,2,TOSY08,
2IFC,0,0,0,0,9.7,-1,correct answer,0.299851200019,True,False,stimulusTOSY08_2IFC_2019_Jun_18_1255_451,stimulusTOSY08_2IFC_2019_Jun_18_1255_452,False,2019_Jun_18_1255,2IFC,2,TOSY08,
2IFC,1,0,1,0,9.7,-1,correct answer,0.367135900015,False,True,stimulusTOSY08_2IFC_2019_Jun_18_1255_453,stimulusTOSY08_2IFC_2019_Jun_18_1255_454,False,2019_Jun_18_1255,2IFC,2,TOSY08,
2IFC,2,0,2,0,9.7,-1,correct answer,0.300513800001,True,False,stimulusTOSY08_2IFC_2019_Jun_18_1255_455,stimulusTOSY08_2IFC_2019_Jun_18_1255_456,False,2019_Jun_18_1255,2IFC,2,TOSY08,
2IFC,3,0,3,0,9.7,-1,correct answer,0.567858199996,False,True,stimulusTOSY08_2IFC_2019_Jun_18_1255_457,stimulusTOSY08_2IFC_2019_Jun_18_1255_458,False,2019_Jun_18_1255,2IFC,2,TOSY08,
2IFC,4,0,4,0,9.7,-1,correct answer,0.435754999984,True,False,stimulusTOSY08_2IFC_2019_Jun_18_1255_459,stimulusTOSY08_2IFC_2019_Jun_18_1255_460,False,2019_Jun_18_1255,2IFC,2,TOSY08,
2IFC,5,0,5,0,9.7,-1,correct answer,0.400524199998,True,False,stimulusTOSY08_2IFC_2019_Jun_18_1255_461,stimulusTOSY08_2IFC_2019_Jun_18_1255_462,False,2019_Jun_18_1255,2IFC,2,TOSY08,
2IFC,6,0,6,0,9.7,-1,correct answer,0.600398399984,True,False,stimulusTOSY08_2IFC_2019_Jun_18_1255_463,stimulusTOSY08_2IFC_2019_Jun_18_1255_464,False,2019_Jun_18_1255,2IFC,2,TOSY08,
2IFC,7,0,7,0,9.7,-1,correct answer,0.600807800016,True,False,stimulusTOSY08_2IFC_2019_Jun_18_1255_465,stimulusTOSY08_2IFC_2019_Jun_18_1255_466,False,2019_Jun_18_1255,2IFC,2,TOSY08,
2IFC,8,0,8,0,9.7,-1,correct answer,0.400524099998,True,False,stimulusTOSY08_2IFC_2019_Jun_18_1255_467,stimulusTOSY08_2IFC_2019_Jun_18_1255_468,False,2019_Jun_18_1255,2IFC,2,TOSY08,
2IFC,9,0,9,0,9.7,-1,correct answer,0.30040040001,True,False,stimulusTOSY08_2IFC_2019_Jun_18_1255_469,stimulusTOSY08_2IFC_2019_Jun_18_1255_470,False,2019_Jun_18_1255,2IFC,2,TOSY08,
2IFC,10,0,10,0,9.7,-1,correct answer,0.13429919997,True,False,stimulusTOSY08_2IFC_2019_Jun_18_1255_471,stimulusTOSY08_2IFC_2019_Jun_18_1255_472,False,2019_Jun_18_1255,2IFC,2,TOSY08,
2IFC,11,0,11,0,9.7,-1,correct answer,0.233545000025,True,False,stimulusTOSY08_2IFC_2019_Jun_18_1255_473,stimulusTOSY08_2IFC_2019_Jun_18_1255_474,False,2019_Jun_18_1255,2IFC,2,TOSY08,
2IFC,12,0,12,0,9.7,-1,correct answer,0.600791799952,False,True,stimulusTOSY08_2IFC_2019_Jun_18_1255_475,stimulusTOSY08_2IFC_2019_Jun_18_1255_476,False,2019_Jun_18_1255,2IFC,2,TOSY08,
2IFC,13,0,13,0,9.7,-1,correct answer,0.832639899978,False,True,stimulusTOSY08_2IFC_2019_Jun_18_1255_477,stimulusTOSY08_2IFC_2019_Jun_18_1255_478,False,2019_Jun_18_1255,2IFC,2,TOSY08,
2IFC,14,0,14,0,9.7,-1,correct answer,0.667233299988,False,True,stimulusTOSY08_2IFC_2019_Jun_18_1255_479,stimulusTOSY08_2IFC_2019_Jun_18_1255_480,False,2019_Jun_18_1255,2IFC,2,TOSY08,
2IFC,15,0,15,0,9.7,-1,correct answer,0.434001900023,True,False,stimulusTOSY08_2IFC_2019_Jun_18_1255_481,stimulusTOSY08_2IFC_2019_Jun_18_1255_482,False,2019_Jun_18_1255,2IFC,2,TOSY08,
2IFC,16,0,16,0,9.7,-1,correct answer,0.368889200035,True,False,stimulusTOSY08_2IFC_2019_Jun_18_1255_483,stimulusTOSY08_2IFC_2019_Jun_18_1255_484,False,2019_Jun_18_1255,2IFC,2,TOSY08,
2IFC,17,0,17,0,9.7,-1,correct answer,0.400593900005,True,False,stimulusTOSY08_2IFC_2019_Jun_18_1255_485,stimulusTOSY08_2IFC_2019_Jun_18_1255_486,False,2019_Jun_18_1255,2IFC,2,TOSY08,
2IFC,18,0,18,0,9.7,-1,correct answer,0.333990699961,True,False,stimulusTOSY08_2IFC_2019_Jun_18_1255_487,stimulusTOSY08_2IFC_2019_Jun_18_1255_488,False,2019_Jun_18_1255,2IFC,2,TOSY08,
2IFC,19,0,19,0,9.7,-1,correct answer,0.46723140002,False,True,stimulusTOSY08_2IFC_2019_Jun_18_1255_489,stimulusTOSY08_2IFC_2019_Jun_18_1255_490,False,2019_Jun_18_1255,2IFC,2,TOSY08,
2IFC,20,0,20,0,9.7,-1,correct answer,0.334020600014,False,True,stimulusTOSY08_2IFC_2019_Jun_18_1255_491,stimulusTOSY08_2IFC_2019_Jun_18_1255_492,False,2019_Jun_18_1255,2IFC,2,TOSY08,
2IFC,21,0,21,0,9.7,-1,correct answer,0.401331499976,True,False,stimulusTOSY08_2IFC_2019_Jun_18_1255_493,stimulusTOSY08_2IFC_2019_Jun_18_1255_494,False,2019_Jun_18_1255,2IFC,2,TOSY08,
2IFC,22,0,22,0,9.7,-1,correct answer,0.333936999959,False,True,stimulusTOSY08_2IFC_2019_Jun_18_1255_495,stimulusTOSY08_2IFC_2019_Jun_18_1255_496,False,2019_Jun_18_1255,2IFC,2,TOSY08,
2IFC,23,0,23,0,9.7,-1,wrong answer,0.335310099996,False,True,stimulusTOSY08_2IFC_2019_Jun_18_1255_497,stimulusTOSY08_2IFC_2019_Jun_18_1255_498,False,2019_Jun_18_1255,2IFC,2,TOSY08,
2IFC,24,0,24,0,9.7,-1,correct answer,0.300623100018,True,False,stimulusTOSY08_2IFC_2019_Jun_18_1255_499,stimulusTOSY08_2IFC_2019_Jun_18_1255_500,False,2019_Jun_18_1255,2IFC,2,TOSY08,
2IFC,25,0,25,0,9.7,-1,correct answer,0.434512000007,False,True,stimulusTOSY08_2IFC_2019_Jun_18_1255_501,stimulusTOSY08_2IFC_2019_Jun_18_1255_502,False,2019_Jun_18_1255,2IFC,2,TOSY08,
2IFC,26,0,26,0,9.7,-1,correct answer,0.634156799992,True,False,stimulusTOSY08_2IFC_2019_Jun_18_1255_503,stimulusTOSY08_2IFC_2019_Jun_18_1255_504,False,2019_Jun_18_1255,2IFC,2,TOSY08,
2IFC,27,0,27,0,9.7,-1,correct answer,0.300236099982,False,True,stimulusTOSY08_2IFC_2019_Jun_18_1255_505,stimulusTOSY08_2IFC_2019_Jun_18_1255_506,False,2019_Jun_18_1255,2IFC,2,TOSY08,
2IFC,28,0,28,0,9.7,-1,correct answer,0.567270699947,False,True,stimulusTOSY08_2IFC_2019_Jun_18_1255_507,stimulusTOSY08_2IFC_2019_Jun_18_1255_508,False,2019_Jun_18_1255,2IFC,2,TOSY08,
2IFC,29,0,29,0,9.7,-1,correct answer,0.332756000047,False,True,stimulusTOSY08_2IFC_2019_Jun_18_1255_509,stimulusTOSY08_2IFC_2019_Jun_18_1255_510,False,2019_Jun_18_1255,2IFC,2,TOSY08,
2IFC,30,0,30,0,9.7,-1,wrong answer,0.533175799996,True,False,stimulusTOSY08_2IFC_2019_Jun_18_1255_511,stimulusTOSY08_2IFC_2019_Jun_18_1255_512,False,2019_Jun_18_1255,2IFC,2,TOSY08,
2IFC,31,0,31,0,9.7,-1,correct answer,0.433805299981,False,True,stimulusTOSY08_2IFC_2019_Jun_18_1255_513,stimulusTOSY08_2IFC_2019_Jun_18_1255_514,False,2019_Jun_18_1255,2IFC,2,TOSY08,
2IFC,32,0,32,0,9.7,-1,correct answer,0.533964299946,False,True,stimulusTOSY08_2IFC_2019_Jun_18_1255_515,stimulusTOSY08_2IFC_2019_Jun_18_1255_516,False,2019_Jun_18_1255,2IFC,2,TOSY08,
2IFC,33,0,33,0,9.7,-1,correct answer,0.500595999998,False,True,stimulusTOSY08_2IFC_2019_Jun_18_1255_517,stimulusTOSY08_2IFC_2019_Jun_18_1255_518,False,2019_Jun_18_1255,2IFC,2,TOSY08,
2IFC,34,0,34,0,9.7,-1,correct answer,0.400539000053,True,False,stimulusTOSY08_2IFC_2019_Jun_18_1255_519,stimulusTOSY08_2IFC_2019_Jun_18_1255_520,False,2019_Jun_18_1255,2IFC,2,TOSY08,
2IFC,35,0,35,0,9.7,-1,correct answer,0.300575800007,False,True,stimulusTOSY08_2IFC_2019_Jun_18_1255_521,stimulusTOSY08_2IFC_2019_Jun_18_1255_522,False,2019_Jun_18_1255,2IFC,2,TOSY08,
2IFC,36,0,36,0,9.7,-1,wrong answer,0.368379899999,True,False,stimulusTOSY08_2IFC_2019_Jun_18_1255_523,stimulusTOSY08_2IFC_2019_Jun_18_1255_524,False,2019_Jun_18_1255,2IFC,2,TOSY08,
2IFC,37,0,37,0,9.7,-1,correct answer,0.56810059998,False,True,stimulusTOSY08_2IFC_2019_Jun_18_1255_525,stimulusTOSY08_2IFC_2019_Jun_18_1255_526,False,2019_Jun_18_1255,2IFC,2,TOSY08,
2IFC,38,0,38,0,9.7,-1,correct answer,0.467456299986,False,True,stimulusTOSY08_2IFC_2019_Jun_18_1255_527,stimulusTOSY08_2IFC_2019_Jun_18_1255_528,False,2019_Jun_18_1255,2IFC,2,TOSY08,
2IFC,39,0,39,0,9.7,-1,correct answer,0.500582000008,True,False,stimulusTOSY08_2IFC_2019_Jun_18_1255_529,stimulusTOSY08_2IFC_2019_Jun_18_1255_530,False,2019_Jun_18_1255,2IFC,2,TOSY08,
2IFC,40,0,40,0,9.7,-1,correct answer,0.433908900013,True,False,stimulusTOSY08_2IFC_2019_Jun_18_1255_531,stimulusTOSY08_2IFC_2019_Jun_18_1255_532,False,2019_Jun_18_1255,2IFC,2,TOSY08,
2IFC,41,0,41,0,9.7,-1,correct answer,0.267390399997,False,True,stimulusTOSY08_2IFC_2019_Jun_18_1255_533,stimulusTOSY08_2IFC_2019_Jun_18_1255_534,False,2019_Jun_18_1255,2IFC,2,TOSY08,
2IFC,42,0,42,0,9.7,-1,correct answer,0.300699600019,True,False,stimulusTOSY08_2IFC_2019_Jun_18_1255_535,stimulusTOSY08_2IFC_2019_Jun_18_1255_536,False,2019_Jun_18_1255,2IFC,2,TOSY08,
2IFC,43,0,43,0,9.7,-1,correct answer,0.301115600043,False,True,stimulusTOSY08_2IFC_2019_Jun_18_1255_537,stimulusTOSY08_2IFC_2019_Jun_18_1255_538,False,2019_Jun_18_1255,2IFC,2,TOSY08,
2IFC,44,0,44,0,9.7,-1,correct answer,0.303103100043,False,True,stimulusTOSY08_2IFC_2019_Jun_18_1255_539,stimulusTOSY08_2IFC_2019_Jun_18_1255_540,False,2019_Jun_18_1255,2IFC,2,TOSY08,
2IFC,45,0,45,0,9.7,-1,correct answer,0.267212299979,True,False,stimulusTOSY08_2IFC_2019_Jun_18_1255_541,stimulusTOSY08_2IFC_2019_Jun_18_1255_542,False,2019_Jun_18_1255,2IFC,2,TOSY08,
2IFC,46,0,46,0,9.7,-1,correct answer,0.300582800002,False,True,stimulusTOSY08_2IFC_2019_Jun_18_1255_543,stimulusTOSY08_2IFC_2019_Jun_18_1255_544,False,2019_Jun_18_1255,2IFC,2,TOSY08,
2IFC,47,0,47,0,9.7,-1,correct answer,0.367313200026,True,False,stimulusTOSY08_2IFC_2019_Jun_18_1255_545,stimulusTOSY08_2IFC_2019_Jun_18_1255_546,False,2019_Jun_18_1255,2IFC,2,TOSY08,
2IFC,48,0,48,0,9.7,-1,wrong answer,0.0998981000157,True,False,stimulusTOSY08_2IFC_2019_Jun_18_1255_547,stimulusTOSY08_2IFC_2019_Jun_18_1255_548,False,2019_Jun_18_1255,2IFC,2,TOSY08,
2IFC,49,0,49,0,9.7,-1,correct answer,0.500703400001,False,True,stimulusTOSY08_2IFC_2019_Jun_18_1255_549,stimulusTOSY08_2IFC_2019_Jun_18_1255_550,False,2019_Jun_18_1255,2IFC,2,TOSY08,
2IFC,50,0,50,0,9.7,-1,correct answer,0.36718880001,True,False,stimulusTOSY08_2IFC_2019_Jun_18_1255_551,stimulusTOSY08_2IFC_2019_Jun_18_1255_552,False,2019_Jun_18_1255,2IFC,2,TOSY08,
2IFC,51,0,51,0,9.7,-1,correct answer,0.0998890999472,False,True,stimulusTOSY08_2IFC_2019_Jun_18_1255_553,stimulusTOSY08_2IFC_2019_Jun_18_1255_554,False,2019_Jun_18_1255,2IFC,2,TOSY08,
2IFC,52,0,52,0,9.7,-1,correct answer,0.267065299966,False,True,stimulusTOSY08_2IFC_2019_Jun_18_1255_555,stimulusTOSY08_2IFC_2019_Jun_18_1255_556,False,2019_Jun_18_1255,2IFC,2,TOSY08,
2IFC,53,0,53,0,9.7,-1,correct answer,0.166988199984,True,False,stimulusTOSY08_2IFC_2019_Jun_18_1255_557,stimulusTOSY08_2IFC_2019_Jun_18_1255_558,False,2019_Jun_18_1255,2IFC,2,TOSY08,
2IFC,54,0,54,0,9.7,-1,correct answer,0.400543300027,True,False,stimulusTOSY08_2IFC_2019_Jun_18_1255_559,stimulusTOSY08_2IFC_2019_Jun_18_1255_560,False,2019_Jun_18_1255,2IFC,2,TOSY08,
2IFC,55,0,55,0,9.7,-1,correct answer,0.800770299975,False,True,stimulusTOSY08_2IFC_2019_Jun_18_1255_561,stimulusTOSY08_2IFC_2019_Jun_18_1255_562,False,2019_Jun_18_1255,2IFC,2,TOSY08,
2IFC,56,0,56,0,9.7,-1,correct answer,0.367000899976,True,False,stimulusTOSY08_2IFC_2019_Jun_18_1255_563,stimulusTOSY08_2IFC_2019_Jun_18_1255_564,False,2019_Jun_18_1255,2IFC,2,TOSY08,
2IFC,57,0,57,0,9.7,-1,correct answer,0.233841100009,False,True,stimulusTOSY08_2IFC_2019_Jun_18_1255_565,stimulusTOSY08_2IFC_2019_Jun_18_1255_566,False,2019_Jun_18_1255,2IFC,2,TOSY08,
2IFC,58,0,58,0,9.7,-1,correct answer,0.167043599999,False,True,stimulusTOSY08_2IFC_2019_Jun_18_1255_567,stimulusTOSY08_2IFC_2019_Jun_18_1255_568,False,2019_Jun_18_1255,2IFC,2,TOSY08,
2IFC,59,0,59,0,9.7,-1,correct answer,0.233723500045,False,True,stimulusTOSY08_2IFC_2019_Jun_18_1255_569,stimulusTOSY08_2IFC_2019_Jun_18_1255_570,False,2019_Jun_18_1255,2IFC,2,TOSY08,
2IFC,60,0,60,0,9.7,-1,correct answer,0.200348800048,False,True,stimulusTOSY08_2IFC_2019_Jun_18_1255_571,stimulusTOSY08_2IFC_2019_Jun_18_1255_572,False,2019_Jun_18_1255,2IFC,2,TOSY08,
2IFC,61,0,61,0,9.7,-1,correct answer,0.267173699976,True,False,stimulusTOSY08_2IFC_2019_Jun_18_1255_573,stimulusTOSY08_2IFC_2019_Jun_18_1255_574,False,2019_Jun_18_1255,2IFC,2,TOSY08,
2IFC,62,0,62,0,9.7,-1,correct answer,0.100388200022,False,True,stimulusTOSY08_2IFC_2019_Jun_18_1255_575,stimulusTOSY08_2IFC_2019_Jun_18_1255_576,False,2019_Jun_18_1255,2IFC,2,TOSY08,
2IFC,63,0,63,0,9.7,-1,correct answer,0.234414100007,True,False,stimulusTOSY08_2IFC_2019_Jun_18_1255_577,stimulusTOSY08_2IFC_2019_Jun_18_1255_578,False,2019_Jun_18_1255,2IFC,2,TOSY08,
2IFC,64,0,64,0,9.7,-1,correct answer,0.333736700006,True,False,stimulusTOSY08_2IFC_2019_Jun_18_1255_579,stimulusTOSY08_2IFC_2019_Jun_18_1255_580,False,2019_Jun_18_1255,2IFC,2,TOSY08,
2IFC,65,0,65,0,9.7,-1,correct answer,0.299107499945,True,False,stimulusTOSY08_2IFC_2019_Jun_18_1255_581,stimulusTOSY08_2IFC_2019_Jun_18_1255_582,False,2019_Jun_18_1255,2IFC,2,TOSY08,
2IFC,66,0,66,0,9.7,-1,correct answer,0.233698500029,True,False,stimulusTOSY08_2IFC_2019_Jun_18_1255_583,stimulusTOSY08_2IFC_2019_Jun_18_1255_584,False,2019_Jun_18_1255,2IFC,2,TOSY08,
2IFC,67,0,67,0,9.7,-1,correct answer,0.266931999999,False,True,stimulusTOSY08_2IFC_2019_Jun_18_1255_585,stimulusTOSY08_2IFC_2019_Jun_18_1255_586,False,2019_Jun_18_1255,2IFC,2,TOSY08,
2IFC,68,0,68,0,9.7,-1,correct answer,0.267378700024,True,False,stimulusTOSY08_2IFC_2019_Jun_18_1255_587,stimulusTOSY08_2IFC_2019_Jun_18_1255_588,False,2019_Jun_18_1255,2IFC,2,TOSY08,
2IFC,69,0,69,0,9.7,-1,correct answer,0.567118300009,True,False,stimulusTOSY08_2IFC_2019_Jun_18_1255_589,stimulusTOSY08_2IFC_2019_Jun_18_1255_590,False,2019_Jun_18_1255,2IFC,2,TOSY08,
2IFC,70,0,70,0,9.7,-1,correct answer,0.333414799999,True,False,stimulusTOSY08_2IFC_2019_Jun_18_1255_591,stimulusTOSY08_2IFC_2019_Jun_18_1255_592,False,2019_Jun_18_1255,2IFC,2,TOSY08,
2IFC,71,0,71,0,9.7,-1,correct answer,0.2678418,True,False,stimulusTOSY08_2IFC_2019_Jun_18_1255_593,stimulusTOSY08_2IFC_2019_Jun_18_1255_594,False,2019_Jun_18_1255,2IFC,2,TOSY08,
2IFC,72,0,72,0,9.7,-1,correct answer,0.602057199983,False,True,stimulusTOSY08_2IFC_2019_Jun_18_1255_595,stimulusTOSY08_2IFC_2019_Jun_18_1255_596,False,2019_Jun_18_1255,2IFC,2,TOSY08,
2IFC,73,0,73,0,9.7,-1,correct answer,0.467421699956,False,True,stimulusTOSY08_2IFC_2019_Jun_18_1255_597,stimulusTOSY08_2IFC_2019_Jun_18_1255_598,False,2019_Jun_18_1255,2IFC,2,TOSY08,
2IFC,74,0,74,0,9.7,-1,correct answer,0.467368100013,False,True,stimulusTOSY08_2IFC_2019_Jun_18_1255_599,stimulusTOSY08_2IFC_2019_Jun_18_1255_600,False,2019_Jun_18_1255,2IFC,2,TOSY08,
2IFC,0,0,0,0,8.7,-1,wrong answer,0.734099199995,False,True,stimulusTOSY08_2IFC_2019_Jun_18_1255_601,stimulusTOSY08_2IFC_2019_Jun_18_1255_602,False,2019_Jun_18_1255,2IFC,2,TOSY08,
2IFC,1,0,1,0,8.7,-1,correct answer,0.567569400009,True,False,stimulusTOSY08_2IFC_2019_Jun_18_1255_603,stimulusTOSY08_2IFC_2019_Jun_18_1255_604,False,2019_Jun_18_1255,2IFC,2,TOSY08,
2IFC,2,0,2,0,8.7,-1,correct answer,0.568092500034,False,True,stimulusTOSY08_2IFC_2019_Jun_18_1255_605,stimulusTOSY08_2IFC_2019_Jun_18_1255_606,False,2019_Jun_18_1255,2IFC,2,TOSY08,
2IFC,3,0,3,0,8.7,-1,correct answer,0.467761300039,False,True,stimulusTOSY08_2IFC_2019_Jun_18_1255_607,stimulusTOSY08_2IFC_2019_Jun_18_1255_608,False,2019_Jun_18_1255,2IFC,2,TOSY08,
2IFC,4,0,4,0,8.7,-1,correct answer,0.568496100022,False,True,stimulusTOSY08_2IFC_2019_Jun_18_1255_609,stimulusTOSY08_2IFC_2019_Jun_18_1255_610,False,2019_Jun_18_1255,2IFC,2,TOSY08,
2IFC,5,0,5,0,8.7,-1,correct answer,0.366472999973,True,False,stimulusTOSY08_2IFC_2019_Jun_18_1255_611,stimulusTOSY08_2IFC_2019_Jun_18_1255_612,False,2019_Jun_18_1255,2IFC,2,TOSY08,
2IFC,6,0,6,0,8.7,-1,wrong answer,0.567393600009,True,False,stimulusTOSY08_2IFC_2019_Jun_18_1255_613,stimulusTOSY08_2IFC_2019_Jun_18_1255_614,False,2019_Jun_18_1255,2IFC,2,TOSY08,
2IFC,7,0,7,0,8.7,-1,wrong answer,0.332675900019,False,True,stimulusTOSY08_2IFC_2019_Jun_18_1255_615,stimulusTOSY08_2IFC_2019_Jun_18_1255_616,False,2019_Jun_18_1255,2IFC,2,TOSY08,
2IFC,8,0,8,0,8.7,-1,correct answer,0.467433699989,False,True,stimulusTOSY08_2IFC_2019_Jun_18_1255_617,stimulusTOSY08_2IFC_2019_Jun_18_1255_618,False,2019_Jun_18_1255,2IFC,2,TOSY08,
2IFC,9,0,9,0,8.7,-1,correct answer,0.532766100019,True,False,stimulusTOSY08_2IFC_2019_Jun_18_1255_619,stimulusTOSY08_2IFC_2019_Jun_18_1255_620,False,2019_Jun_18_1255,2IFC,2,TOSY08,
2IFC,10,0,10,0,8.7,-1,correct answer,0.500472799991,False,True,stimulusTOSY08_2IFC_2019_Jun_18_1255_621,stimulusTOSY08_2IFC_2019_Jun_18_1255_622,False,2019_Jun_18_1255,2IFC,2,TOSY08,
2IFC,11,0,11,0,8.7,-1,correct answer,0.534022000036,False,True,stimulusTOSY08_2IFC_2019_Jun_18_1255_623,stimulusTOSY08_2IFC_2019_Jun_18_1255_624,False,2019_Jun_18_1255,2IFC,2,TOSY08,
2IFC,12,0,12,0,8.7,-1,correct answer,0.366173800023,True,False,stimulusTOSY08_2IFC_2019_Jun_18_1255_625,stimulusTOSY08_2IFC_2019_Jun_18_1255_626,False,2019_Jun_18_1255,2IFC,2,TOSY08,
2IFC,13,0,13,0,8.7,-1,correct answer,0.300637000008,False,True,stimulusTOSY08_2IFC_2019_Jun_18_1255_627,stimulusTOSY08_2IFC_2019_Jun_18_1255_628,False,2019_Jun_18_1255,2IFC,2,TOSY08,
2IFC,14,0,14,0,8.7,-1,correct answer,0.467325599981,True,False,stimulusTOSY08_2IFC_2019_Jun_18_1255_629,stimulusTOSY08_2IFC_2019_Jun_18_1255_630,False,2019_Jun_18_1255,2IFC,2,TOSY08,
2IFC,15,0,15,0,8.7,-1,correct answer,0.30026009999,False,True,stimulusTOSY08_2IFC_2019_Jun_18_1255_631,stimulusTOSY08_2IFC_2019_Jun_18_1255_632,False,2019_Jun_18_1255,2IFC,2,TOSY08,
2IFC,16,0,16,0,8.7,-1,correct answer,0.367689199978,True,False,stimulusTOSY08_2IFC_2019_Jun_18_1255_633,stimulusTOSY08_2IFC_2019_Jun_18_1255_634,False,2019_Jun_18_1255,2IFC,2,TOSY08,
2IFC,17,0,17,0,8.7,-1,correct answer,0.433853900002,True,False,stimulusTOSY08_2IFC_2019_Jun_18_1255_635,stimulusTOSY08_2IFC_2019_Jun_18_1255_636,False,2019_Jun_18_1255,2IFC,2,TOSY08,
2IFC,18,0,18,0,8.7,-1,correct answer,0.30126410001,False,True,stimulusTOSY08_2IFC_2019_Jun_18_1255_637,stimulusTOSY08_2IFC_2019_Jun_18_1255_638,False,2019_Jun_18_1255,2IFC,2,TOSY08,
2IFC,19,0,19,0,8.7,-1,correct answer,0.600716200017,False,True,stimulusTOSY08_2IFC_2019_Jun_18_1255_639,stimulusTOSY08_2IFC_2019_Jun_18_1255_640,False,2019_Jun_18_1255,2IFC,2,TOSY08,
2IFC,20,0,20,0,8.7,-1,correct answer,0.334017300047,True,False,stimulusTOSY08_2IFC_2019_Jun_18_1255_641,stimulusTOSY08_2IFC_2019_Jun_18_1255_642,False,2019_Jun_18_1255,2IFC,2,TOSY08,
2IFC,21,0,21,0,8.7,-1,correct answer,0.568322699983,True,False,stimulusTOSY08_2IFC_2019_Jun_18_1255_643,stimulusTOSY08_2IFC_2019_Jun_18_1255_644,False,2019_Jun_18_1255,2IFC,2,TOSY08,
2IFC,22,0,22,0,8.7,-1,correct answer,0.300766,True,False,stimulusTOSY08_2IFC_2019_Jun_18_1255_645,stimulusTOSY08_2IFC_2019_Jun_18_1255_646,False,2019_Jun_18_1255,2IFC,2,TOSY08,
2IFC,23,0,23,0,8.7,-1,correct answer,0.40059850004,False,True,stimulusTOSY08_2IFC_2019_Jun_18_1255_647,stimulusTOSY08_2IFC_2019_Jun_18_1255_648,False,2019_Jun_18_1255,2IFC,2,TOSY08,
2IFC,24,0,24,0,8.7,-1,correct answer,0.567093399994,False,True,stimulusTOSY08_2IFC_2019_Jun_18_1255_649,stimulusTOSY08_2IFC_2019_Jun_18_1255_650,False,2019_Jun_18_1255,2IFC,2,TOSY08,
2IFC,25,0,25,0,8.7,-1,correct answer,0.399551299983,True,False,stimulusTOSY08_2IFC_2019_Jun_18_1255_651,stimulusTOSY08_2IFC_2019_Jun_18_1255_652,False,2019_Jun_18_1255,2IFC,2,TOSY08,
2IFC,26,0,26,0,8.7,-1,correct answer,0.701296299987,False,True,stimulusTOSY08_2IFC_2019_Jun_18_1255_653,stimulusTOSY08_2IFC_2019_Jun_18_1255_654,False,2019_Jun_18_1255,2IFC,2,TOSY08,
2IFC,27,0,27,0,8.7,-1,correct answer,0.40053449996,False,True,stimulusTOSY08_2IFC_2019_Jun_18_1255_655,stimulusTOSY08_2IFC_2019_Jun_18_1255_656,False,2019_Jun_18_1255,2IFC,2,TOSY08,
2IFC,28,0,28,0,8.7,-1,correct answer,0.534193300002,True,False,stimulusTOSY08_2IFC_2019_Jun_18_1255_657,stimulusTOSY08_2IFC_2019_Jun_18_1255_658,False,2019_Jun_18_1255,2IFC,2,TOSY08,
2IFC,29,0,29,0,8.7,-1,correct answer,0.300377700012,True,False,stimulusTOSY08_2IFC_2019_Jun_18_1255_659,stimulusTOSY08_2IFC_2019_Jun_18_1255_660,False,2019_Jun_18_1255,2IFC,2,TOSY08,
2IFC,30,0,30,0,8.7,-1,correct answer,0.700763000001,False,True,stimulusTOSY08_2IFC_2019_Jun_18_1255_661,stimulusTOSY08_2IFC_2019_Jun_18_1255_662,False,2019_Jun_18_1255,2IFC,2,TOSY08,
2IFC,31,0,31,0,8.7,-1,correct answer,0.567810300039,False,True,stimulusTOSY08_2IFC_2019_Jun_18_1255_663,stimulusTOSY08_2IFC_2019_Jun_18_1255_664,False,2019_Jun_18_1255,2IFC,2,TOSY08,
2IFC,32,0,32,0,8.7,-1,correct answer,0.600748799974,False,True,stimulusTOSY08_2IFC_2019_Jun_18_1255_665,stimulusTOSY08_2IFC_2019_Jun_18_1255_666,False,2019_Jun_18_1255,2IFC,2,TOSY08,
2IFC,33,0,33,0,8.7,-1,correct answer,0.667487300001,False,True,stimulusTOSY08_2IFC_2019_Jun_18_1255_667,stimulusTOSY08_2IFC_2019_Jun_18_1255_668,False,2019_Jun_18_1255,2IFC,2,TOSY08,
2IFC,34,0,34,0,8.7,-1,correct answer,0.634105899953,False,True,stimulusTOSY08_2IFC_2019_Jun_18_1255_669,stimulusTOSY08_2IFC_2019_Jun_18_1255_670,False,2019_Jun_18_1255,2IFC,2,TOSY08,
2IFC,35,0,35,0,8.7,-1,correct answer,0.467211500043,False,True,stimulusTOSY08_2IFC_2019_Jun_18_1255_671,stimulusTOSY08_2IFC_2019_Jun_18_1255_672,False,2019_Jun_18_1255,2IFC,2,TOSY08,
2IFC,36,0,36,0,8.7,-1,correct answer,0.534125900012,True,False,stimulusTOSY08_2IFC_2019_Jun_18_1255_673,stimulusTOSY08_2IFC_2019_Jun_18_1255_674,False,2019_Jun_18_1255,2IFC,2,TOSY08,
2IFC,37,0,37,0,8.7,-1,correct answer,0.668062000012,True,False,stimulusTOSY08_2IFC_2019_Jun_18_1255_675,stimulusTOSY08_2IFC_2019_Jun_18_1255_676,False,2019_Jun_18_1255,2IFC,2,TOSY08,
2IFC,38,0,38,0,8.7,-1,correct answer,0.333328999986,False,True,stimulusTOSY08_2IFC_2019_Jun_18_1255_677,stimulusTOSY08_2IFC_2019_Jun_18_1255_678,False,2019_Jun_18_1255,2IFC,2,TOSY08,
2IFC,39,0,39,0,8.7,-1,correct answer,0.599746800028,False,True,stimulusTOSY08_2IFC_2019_Jun_18_1255_679,stimulusTOSY08_2IFC_2019_Jun_18_1255_680,False,2019_Jun_18_1255,2IFC,2,TOSY08,
2IFC,40,0,40,0,8.7,-1,correct answer,0.534264300019,False,True,stimulusTOSY08_2IFC_2019_Jun_18_1255_681,stimulusTOSY08_2IFC_2019_Jun_18_1255_682,False,2019_Jun_18_1255,2IFC,2,TOSY08,
2IFC,41,0,41,0,8.7,-1,correct answer,0.667194699985,True,False,stimulusTOSY08_2IFC_2019_Jun_18_1255_683,stimulusTOSY08_2IFC_2019_Jun_18_1255_684,False,2019_Jun_18_1255,2IFC,2,TOSY08,
2IFC,42,0,42,0,8.7,-1,correct answer,0.667480400007,True,False,stimulusTOSY08_2IFC_2019_Jun_18_1255_685,stimulusTOSY08_2IFC_2019_Jun_18_1255_686,False,2019_Jun_18_1255,2IFC,2,TOSY08,
2IFC,43,0,43,0,8.7,-1,correct answer,0.36741419998,False,True,stimulusTOSY08_2IFC_2019_Jun_18_1255_687,stimulusTOSY08_2IFC_2019_Jun_18_1255_688,False,2019_Jun_18_1255,2IFC,2,TOSY08,
2IFC,44,0,44,0,8.7,-1,correct answer,0.467723799986,False,True,stimulusTOSY08_2IFC_2019_Jun_18_1255_689,stimulusTOSY08_2IFC_2019_Jun_18_1255_690,False,2019_Jun_18_1255,2IFC,2,TOSY08,
2IFC,45,0,45,0,8.7,-1,correct answer,0.497147199989,True,False,stimulusTOSY08_2IFC_2019_Jun_18_1255_691,stimulusTOSY08_2IFC_2019_Jun_18_1255_692,False,2019_Jun_18_1255,2IFC,2,TOSY08,
2IFC,46,0,46,0,8.7,-1,correct answer,0.434044399997,False,True,stimulusTOSY08_2IFC_2019_Jun_18_1255_693,stimulusTOSY08_2IFC_2019_Jun_18_1255_694,False,2019_Jun_18_1255,2IFC,2,TOSY08,
2IFC,47,0,47,0,8.7,-1,correct answer,0.467431700032,True,False,stimulusTOSY08_2IFC_2019_Jun_18_1255_695,stimulusTOSY08_2IFC_2019_Jun_18_1255_696,False,2019_Jun_18_1255,2IFC,2,TOSY08,
2IFC,48,0,48,0,8.7,-1,correct answer,0.300237699994,False,True,stimulusTOSY08_2IFC_2019_Jun_18_1255_697,stimulusTOSY08_2IFC_2019_Jun_18_1255_698,False,2019_Jun_18_1255,2IFC,2,TOSY08,
2IFC,49,0,49,0,8.7,-1,correct answer,0.467529300018,True,False,stimulusTOSY08_2IFC_2019_Jun_18_1255_699,stimulusTOSY08_2IFC_2019_Jun_18_1255_700,False,2019_Jun_18_1255,2IFC,2,TOSY08,
2IFC,50,0,50,0,8.7,-1,correct answer,0.400494100002,False,True,stimulusTOSY08_2IFC_2019_Jun_18_1255_701,stimulusTOSY08_2IFC_2019_Jun_18_1255_702,False,2019_Jun_18_1255,2IFC,2,TOSY08,
2IFC,51,0,51,0,8.7,-1,correct answer,0.500920699968,True,False,stimulusTOSY08_2IFC_2019_Jun_18_1255_703,stimulusTOSY08_2IFC_2019_Jun_18_1255_704,False,2019_Jun_18_1255,2IFC,2,TOSY08,
2IFC,52,0,52,0,8.7,-1,correct answer,0.300409399963,False,True,stimulusTOSY08_2IFC_2019_Jun_18_1255_705,stimulusTOSY08_2IFC_2019_Jun_18_1255_706,False,2019_Jun_18_1255,2IFC,2,TOSY08,
2IFC,53,0,53,0,8.7,-1,correct answer,0.800846600032,True,False,stimulusTOSY08_2IFC_2019_Jun_18_1255_707,stimulusTOSY08_2IFC_2019_Jun_18_1255_708,False,2019_Jun_18_1255,2IFC,2,TOSY08,
2IFC,54,0,54,0,8.7,-1,correct answer,0.567573800043,False,True,stimulusTOSY08_2IFC_2019_Jun_18_1255_709,stimulusTOSY08_2IFC_2019_Jun_18_1255_710,False,2019_Jun_18_1255,2IFC,2,TOSY08,
2IFC,55,0,55,0,8.7,-1,correct answer,0.800380699977,False,True,stimulusTOSY08_2IFC_2019_Jun_18_1255_711,stimulusTOSY08_2IFC_2019_Jun_18_1255_712,False,2019_Jun_18_1255,2IFC,2,TOSY08,
2IFC,56,0,56,0,8.7,-1,correct answer,0.634153000021,False,True,stimulusTOSY08_2IFC_2019_Jun_18_1255_713,stimulusTOSY08_2IFC_2019_Jun_18_1255_714,False,2019_Jun_18_1255,2IFC,2,TOSY08,
2IFC,57,0,57,0,8.7,-1,correct answer,0.566664299986,False,True,stimulusTOSY08_2IFC_2019_Jun_18_1255_715,stimulusTOSY08_2IFC_2019_Jun_18_1255_716,False,2019_Jun_18_1255,2IFC,2,TOSY08,
2IFC,58,0,58,0,8.7,-1,correct answer,0.600747300021,True,False,stimulusTOSY08_2IFC_2019_Jun_18_1255_717,stimulusTOSY08_2IFC_2019_Jun_18_1255_718,False,2019_Jun_18_1255,2IFC,2,TOSY08,
2IFC,59,0,59,0,8.7,-1,correct answer,0.568458400026,True,False,stimulusTOSY08_2IFC_2019_Jun_18_1255_719,stimulusTOSY08_2IFC_2019_Jun_18_1255_720,False,2019_Jun_18_1255,2IFC,2,TOSY08,
2IFC,60,0,60,0,8.7,-1,correct answer,0.433893800015,True,False,stimulusTOSY08_2IFC_2019_Jun_18_1255_721,stimulusTOSY08_2IFC_2019_Jun_18_1255_722,False,2019_Jun_18_1255,2IFC,2,TOSY08,
2IFC,61,0,61,0,8.7,-1,correct answer,0.266987200011,False,True,stimulusTOSY08_2IFC_2019_Jun_18_1255_723,stimulusTOSY08_2IFC_2019_Jun_18_1255_724,False,2019_Jun_18_1255,2IFC,2,TOSY08,
2IFC,62,0,62,0,8.7,-1,wrong answer,0.433750099968,False,True,stimulusTOSY08_2IFC_2019_Jun_18_1255_725,stimulusTOSY08_2IFC_2019_Jun_18_1255_726,False,2019_Jun_18_1255,2IFC,2,TOSY08,
2IFC,63,0,63,0,8.7,-1,correct answer,0.200267200009,True,False,stimulusTOSY08_2IFC_2019_Jun_18_1255_727,stimulusTOSY08_2IFC_2019_Jun_18_1255_728,False,2019_Jun_18_1255,2IFC,2,TOSY08,
2IFC,64,0,64,0,8.7,-1,correct answer,0.333598800004,False,True,stimulusTOSY08_2IFC_2019_Jun_18_1255_729,stimulusTOSY08_2IFC_2019_Jun_18_1255_730,False,2019_Jun_18_1255,2IFC,2,TOSY08,
2IFC,65,0,65,0,8.7,-1,correct answer,0.367246700043,True,False,stimulusTOSY08_2IFC_2019_Jun_18_1255_731,stimulusTOSY08_2IFC_2019_Jun_18_1255_732,False,2019_Jun_18_1255,2IFC,2,TOSY08,
2IFC,66,0,66,0,8.7,-1,correct answer,0.467597200011,True,False,stimulusTOSY08_2IFC_2019_Jun_18_1255_733,stimulusTOSY08_2IFC_2019_Jun_18_1255_734,False,2019_Jun_18_1255,2IFC,2,TOSY08,
2IFC,67,0,67,0,8.7,-1,wrong answer,0.501210600021,True,False,stimulusTOSY08_2IFC_2019_Jun_18_1255_735,stimulusTOSY08_2IFC_2019_Jun_18_1255_736,False,2019_Jun_18_1255,2IFC,2,TOSY08,
2IFC,68,0,68,0,8.7,-1,correct answer,0.332883099967,False,True,stimulusTOSY08_2IFC_2019_Jun_18_1255_737,stimulusTOSY08_2IFC_2019_Jun_18_1255_738,False,2019_Jun_18_1255,2IFC,2,TOSY08,
2IFC,69,0,69,0,8.7,-1,correct answer,0.300552800007,True,False,stimulusTOSY08_2IFC_2019_Jun_18_1255_739,stimulusTOSY08_2IFC_2019_Jun_18_1255_740,False,2019_Jun_18_1255,2IFC,2,TOSY08,
2IFC,70,0,70,0,8.7,-1,correct answer,0.333638200013,True,False,stimulusTOSY08_2IFC_2019_Jun_18_1255_741,stimulusTOSY08_2IFC_2019_Jun_18_1255_742,False,2019_Jun_18_1255,2IFC,2,TOSY08,
2IFC,71,0,71,0,8.7,-1,correct answer,0.297587700014,True,False,stimulusTOSY08_2IFC_2019_Jun_18_1255_743,stimulusTOSY08_2IFC_2019_Jun_18_1255_744,False,2019_Jun_18_1255,2IFC,2,TOSY08,
2IFC,72,0,72,0,8.7,-1,correct answer,0.501238199999,False,True,stimulusTOSY08_2IFC_2019_Jun_18_1255_745,stimulusTOSY08_2IFC_2019_Jun_18_1255_746,False,2019_Jun_18_1255,2IFC,2,TOSY08,
2IFC,73,0,73,0,8.7,-1,correct answer,0.467510399991,False,True,stimulusTOSY08_2IFC_2019_Jun_18_1255_747,stimulusTOSY08_2IFC_2019_Jun_18_1255_748,False,2019_Jun_18_1255,2IFC,2,TOSY08,
2IFC,74,0,74,0,8.7,-1,wrong answer,0.301170599996,False,True,stimulusTOSY08_2IFC_2019_Jun_18_1255_749,stimulusTOSY08_2IFC_2019_Jun_18_1255_750,False,2019_Jun_18_1255,2IFC,2,TOSY08,
2IFC,0,0,0,0,7.7,-1,wrong answer,0.367284600041,True,False,stimulusTOSY08_2IFC_2019_Jun_18_1255_751,stimulusTOSY08_2IFC_2019_Jun_18_1255_752,False,2019_Jun_18_1255,2IFC,2,TOSY08,
2IFC,1,0,1,0,7.7,-1,wrong answer,0.333500200009,True,False,stimulusTOSY08_2IFC_2019_Jun_18_1255_753,stimulusTOSY08_2IFC_2019_Jun_18_1255_754,False,2019_Jun_18_1255,2IFC,2,TOSY08,
2IFC,2,0,2,0,7.7,-1,wrong answer,0.699379900005,True,False,stimulusTOSY08_2IFC_2019_Jun_18_1255_755,stimulusTOSY08_2IFC_2019_Jun_18_1255_756,False,2019_Jun_18_1255,2IFC,2,TOSY08,
2IFC,3,0,3,0,7.7,-1,correct answer,0.634554999997,True,False,stimulusTOSY08_2IFC_2019_Jun_18_1255_757,stimulusTOSY08_2IFC_2019_Jun_18_1255_758,False,2019_Jun_18_1255,2IFC,2,TOSY08,
2IFC,4,0,4,0,7.7,-1,correct answer,0.533810099994,False,True,stimulusTOSY08_2IFC_2019_Jun_18_1255_759,stimulusTOSY08_2IFC_2019_Jun_18_1255_760,False,2019_Jun_18_1255,2IFC,2,TOSY08,
2IFC,5,0,5,0,7.7,-1,correct answer,0.568149600003,False,True,stimulusTOSY08_2IFC_2019_Jun_18_1255_761,stimulusTOSY08_2IFC_2019_Jun_18_1255_762,False,2019_Jun_18_1255,2IFC,2,TOSY08,
2IFC,6,0,6,0,7.7,-1,correct answer,0.498308100039,False,True,stimulusTOSY08_2IFC_2019_Jun_18_1255_763,stimulusTOSY08_2IFC_2019_Jun_18_1255_764,False,2019_Jun_18_1255,2IFC,2,TOSY08,
2IFC,7,0,7,0,7.7,-1,wrong answer,0.501672000042,True,False,stimulusTOSY08_2IFC_2019_Jun_18_1255_765,stimulusTOSY08_2IFC_2019_Jun_18_1255_766,False,2019_Jun_18_1255,2IFC,2,TOSY08,
2IFC,8,0,8,0,7.7,-1,correct answer,0.667980200029,True,False,stimulusTOSY08_2IFC_2019_Jun_18_1255_767,stimulusTOSY08_2IFC_2019_Jun_18_1255_768,False,2019_Jun_18_1255,2IFC,2,TOSY08,
2IFC,9,0,9,0,7.7,-1,correct answer,0.633608700009,True,False,stimulusTOSY08_2IFC_2019_Jun_18_1255_769,stimulusTOSY08_2IFC_2019_Jun_18_1255_770,False,2019_Jun_18_1255,2IFC,2,TOSY08,
2IFC,10,0,10,0,7.7,-1,correct answer,0.600727000041,True,False,stimulusTOSY08_2IFC_2019_Jun_18_1255_771,stimulusTOSY08_2IFC_2019_Jun_18_1255_772,False,2019_Jun_18_1255,2IFC,2,TOSY08,
2IFC,11,0,11,0,7.7,-1,correct answer,0.767954599985,False,True,stimulusTOSY08_2IFC_2019_Jun_18_1255_773,stimulusTOSY08_2IFC_2019_Jun_18_1255_774,False,2019_Jun_18_1255,2IFC,2,TOSY08,
2IFC,12,0,12,0,7.7,-1,correct answer,0.568217499997,False,True,stimulusTOSY08_2IFC_2019_Jun_18_1255_775,stimulusTOSY08_2IFC_2019_Jun_18_1255_776,False,2019_Jun_18_1255,2IFC,2,TOSY08,
2IFC,13,0,13,0,7.7,-1,correct answer,0.567190300033,True,False,stimulusTOSY08_2IFC_2019_Jun_18_1255_777,stimulusTOSY08_2IFC_2019_Jun_18_1255_778,False,2019_Jun_18_1255,2IFC,2,TOSY08,
2IFC,14,0,14,0,7.7,-1,correct answer,0.300226500025,False,True,stimulusTOSY08_2IFC_2019_Jun_18_1255_779,stimulusTOSY08_2IFC_2019_Jun_18_1255_780,False,2019_Jun_18_1255,2IFC,2,TOSY08,
2IFC,15,0,15,0,7.7,-1,correct answer,0.300790799956,False,True,stimulusTOSY08_2IFC_2019_Jun_18_1255_781,stimulusTOSY08_2IFC_2019_Jun_18_1255_782,False,2019_Jun_18_1255,2IFC,2,TOSY08,
2IFC,16,0,16,0,7.7,-1,correct answer,0.567734399985,False,True,stimulusTOSY08_2IFC_2019_Jun_18_1255_783,stimulusTOSY08_2IFC_2019_Jun_18_1255_784,False,2019_Jun_18_1255,2IFC,2,TOSY08,
2IFC,17,0,17,0,7.7,-1,correct answer,0.367050100002,True,False,stimulusTOSY08_2IFC_2019_Jun_18_1255_785,stimulusTOSY08_2IFC_2019_Jun_18_1255_786,False,2019_Jun_18_1255,2IFC,2,TOSY08,
2IFC,18,0,18,0,7.7,-1,correct answer,0.600672999979,True,False,stimulusTOSY08_2IFC_2019_Jun_18_1255_787,stimulusTOSY08_2IFC_2019_Jun_18_1255_788,False,2019_Jun_18_1255,2IFC,2,TOSY08,
2IFC,19,0,19,0,7.7,-1,correct answer,0.365736100008,False,True,stimulusTOSY08_2IFC_2019_Jun_18_1255_789,stimulusTOSY08_2IFC_2019_Jun_18_1255_790,False,2019_Jun_18_1255,2IFC,2,TOSY08,
2IFC,20,0,20,0,7.7,-1,correct answer,0.567707999959,False,True,stimulusTOSY08_2IFC_2019_Jun_18_1255_791,stimulusTOSY08_2IFC_2019_Jun_18_1255_792,False,2019_Jun_18_1255,2IFC,2,TOSY08,
2IFC,21,0,21,0,7.7,-1,correct answer,0.300964599999,False,True,stimulusTOSY08_2IFC_2019_Jun_18_1255_793,stimulusTOSY08_2IFC_2019_Jun_18_1255_794,False,2019_Jun_18_1255,2IFC,2,TOSY08,
2IFC,22,0,22,0,7.7,-1,correct answer,0.30098499998,True,False,stimulusTOSY08_2IFC_2019_Jun_18_1255_795,stimulusTOSY08_2IFC_2019_Jun_18_1255_796,False,2019_Jun_18_1255,2IFC,2,TOSY08,
2IFC,23,0,23,0,7.7,-1,correct answer,0.567296000023,True,False,stimulusTOSY08_2IFC_2019_Jun_18_1255_797,stimulusTOSY08_2IFC_2019_Jun_18_1255_798,False,2019_Jun_18_1255,2IFC,2,TOSY08,
2IFC,24,0,24,0,7.7,-1,correct answer,0.533910900005,False,True,stimulusTOSY08_2IFC_2019_Jun_18_1255_799,stimulusTOSY08_2IFC_2019_Jun_18_1255_800,False,2019_Jun_18_1255,2IFC,2,TOSY08,
2IFC,25,0,25,0,7.7,-1,correct answer,0.802483499981,False,True,stimulusTOSY08_2IFC_2019_Jun_18_1255_801,stimulusTOSY08_2IFC_2019_Jun_18_1255_802,False,2019_Jun_18_1255,2IFC,2,TOSY08,
2IFC,26,0,26,0,7.7,-1,correct answer,0.301228399971,True,False,stimulusTOSY08_2IFC_2019_Jun_18_1255_803,stimulusTOSY08_2IFC_2019_Jun_18_1255_804,False,2019_Jun_18_1255,2IFC,2,TOSY08,
2IFC,27,0,27,0,7.7,-1,correct answer,0.533507800021,True,False,stimulusTOSY08_2IFC_2019_Jun_18_1255_805,stimulusTOSY08_2IFC_2019_Jun_18_1255_806,False,2019_Jun_18_1255,2IFC,2,TOSY08,
2IFC,28,0,28,0,7.7,-1,correct answer,0.634353799978,True,False,stimulusTOSY08_2IFC_2019_Jun_18_1255_807,stimulusTOSY08_2IFC_2019_Jun_18_1255_808,False,2019_Jun_18_1255,2IFC,2,TOSY08,
2IFC,29,0,29,0,7.7,-1,correct answer,0.334172600007,False,True,stimulusTOSY08_2IFC_2019_Jun_18_1255_809,stimulusTOSY08_2IFC_2019_Jun_18_1255_810,False,2019_Jun_18_1255,2IFC,2,TOSY08,
2IFC,30,0,30,0,7.7,-1,wrong answer,0.600576600002,True,False,stimulusTOSY08_2IFC_2019_Jun_18_1255_811,stimulusTOSY08_2IFC_2019_Jun_18_1255_812,False,2019_Jun_18_1255,2IFC,2,TOSY08,
2IFC,31,0,31,0,7.7,-1,correct answer,0.815679299994,True,False,stimulusTOSY08_2IFC_2019_Jun_18_1255_813,stimulusTOSY08_2IFC_2019_Jun_18_1255_814,False,2019_Jun_18_1255,2IFC,2,TOSY08,
2IFC,32,0,32,0,7.7,-1,wrong answer,0.666073200002,True,False,stimulusTOSY08_2IFC_2019_Jun_18_1255_815,stimulusTOSY08_2IFC_2019_Jun_18_1255_816,False,2019_Jun_18_1255,2IFC,2,TOSY08,
2IFC,33,0,33,0,7.7,-1,correct answer,0.400751700043,False,True,stimulusTOSY08_2IFC_2019_Jun_18_1255_817,stimulusTOSY08_2IFC_2019_Jun_18_1255_818,False,2019_Jun_18_1255,2IFC,2,TOSY08,
2IFC,34,0,34,0,7.7,-1,correct answer,0.534219799971,False,True,stimulusTOSY08_2IFC_2019_Jun_18_1255_819,stimulusTOSY08_2IFC_2019_Jun_18_1255_820,False,2019_Jun_18_1255,2IFC,2,TOSY08,
2IFC,35,0,35,0,7.7,-1,correct answer,0.5668802,False,True,stimulusTOSY08_2IFC_2019_Jun_18_1255_821,stimulusTOSY08_2IFC_2019_Jun_18_1255_822,False,2019_Jun_18_1255,2IFC,2,TOSY08,
2IFC,36,0,36,0,7.7,-1,correct answer,0.334096099949,True,False,stimulusTOSY08_2IFC_2019_Jun_18_1255_823,stimulusTOSY08_2IFC_2019_Jun_18_1255_824,False,2019_Jun_18_1255,2IFC,2,TOSY08,
2IFC,37,0,37,0,7.7,-1,correct answer,0.434259500005,False,True,stimulusTOSY08_2IFC_2019_Jun_18_1255_825,stimulusTOSY08_2IFC_2019_Jun_18_1255_826,False,2019_Jun_18_1255,2IFC,2,TOSY08,
2IFC,38,0,38,0,7.7,-1,correct answer,0.567280699965,True,False,stimulusTOSY08_2IFC_2019_Jun_18_1255_827,stimulusTOSY08_2IFC_2019_Jun_18_1255_828,False,2019_Jun_18_1255,2IFC,2,TOSY08,
2IFC,39,0,39,0,7.7,-1,correct answer,0.60062459996,True,False,stimulusTOSY08_2IFC_2019_Jun_18_1255_829,stimulusTOSY08_2IFC_2019_Jun_18_1255_830,False,2019_Jun_18_1255,2IFC,2,TOSY08,
2IFC,40,0,40,0,7.7,-1,wrong answer,0.534223499999,True,False,stimulusTOSY08_2IFC_2019_Jun_18_1255_831,stimulusTOSY08_2IFC_2019_Jun_18_1255_832,False,2019_Jun_18_1255,2IFC,2,TOSY08,
2IFC,41,0,41,0,7.7,-1,correct answer,0.333830699965,True,False,stimulusTOSY08_2IFC_2019_Jun_18_1255_833,stimulusTOSY08_2IFC_2019_Jun_18_1255_834,False,2019_Jun_18_1255,2IFC,2,TOSY08,
2IFC,42,0,42,0,7.7,-1,correct answer,0.466903700028,True,False,stimulusTOSY08_2IFC_2019_Jun_18_1255_835,stimulusTOSY08_2IFC_2019_Jun_18_1255_836,False,2019_Jun_18_1255,2IFC,2,TOSY08,
2IFC,43,0,43,0,7.7,-1,correct answer,0.700867899985,False,True,stimulusTOSY08_2IFC_2019_Jun_18_1255_837,stimulusTOSY08_2IFC_2019_Jun_18_1255_838,False,2019_Jun_18_1255,2IFC,2,TOSY08,
2IFC,44,0,44,0,7.7,-1,correct answer,0.400845099997,False,True,stimulusTOSY08_2IFC_2019_Jun_18_1255_839,stimulusTOSY08_2IFC_2019_Jun_18_1255_840,False,2019_Jun_18_1255,2IFC,2,TOSY08,
2IFC,45,0,45,0,7.7,-1,correct answer,0.565333100036,False,True,stimulusTOSY08_2IFC_2019_Jun_18_1255_841,stimulusTOSY08_2IFC_2019_Jun_18_1255_842,False,2019_Jun_18_1255,2IFC,2,TOSY08,
2IFC,46,0,46,0,7.7,-1,correct answer,0.533960799978,True,False,stimulusTOSY08_2IFC_2019_Jun_18_1255_843,stimulusTOSY08_2IFC_2019_Jun_18_1255_844,False,2019_Jun_18_1255,2IFC,2,TOSY08,
2IFC,47,0,47,0,7.7,-1,wrong answer,0.233703400008,True,False,stimulusTOSY08_2IFC_2019_Jun_18_1255_845,stimulusTOSY08_2IFC_2019_Jun_18_1255_846,False,2019_Jun_18_1255,2IFC,2,TOSY08,
2IFC,48,0,48,0,7.7,-1,correct answer,0.300384100003,True,False,stimulusTOSY08_2IFC_2019_Jun_18_1255_847,stimulusTOSY08_2IFC_2019_Jun_18_1255_848,False,2019_Jun_18_1255,2IFC,2,TOSY08,
2IFC,49,0,49,0,7.7,-1,wrong answer,0.267749399994,True,False,stimulusTOSY08_2IFC_2019_Jun_18_1255_849,stimulusTOSY08_2IFC_2019_Jun_18_1255_850,False,2019_Jun_18_1255,2IFC,2,TOSY08,
2IFC,50,0,50,0,7.7,-1,correct answer,0.434543299954,True,False,stimulusTOSY08_2IFC_2019_Jun_18_1255_851,stimulusTOSY08_2IFC_2019_Jun_18_1255_852,False,2019_Jun_18_1255,2IFC,2,TOSY08,
2IFC,51,0,51,0,7.7,-1,correct answer,0.567033900006,True,False,stimulusTOSY08_2IFC_2019_Jun_18_1255_853,stimulusTOSY08_2IFC_2019_Jun_18_1255_854,False,2019_Jun_18_1255,2IFC,2,TOSY08,
2IFC,52,0,52,0,7.7,-1,correct answer,0.467070800019,False,True,stimulusTOSY08_2IFC_2019_Jun_18_1255_855,stimulusTOSY08_2IFC_2019_Jun_18_1255_856,False,2019_Jun_18_1255,2IFC,2,TOSY08,
2IFC,53,0,53,0,7.7,-1,correct answer,0.666226200003,True,False,stimulusTOSY08_2IFC_2019_Jun_18_1255_857,stimulusTOSY08_2IFC_2019_Jun_18_1255_858,False,2019_Jun_18_1255,2IFC,2,TOSY08,
2IFC,54,0,54,0,7.7,-1,correct answer,0.633198500029,True,False,stimulusTOSY08_2IFC_2019_Jun_18_1255_859,stimulusTOSY08_2IFC_2019_Jun_18_1255_860,False,2019_Jun_18_1255,2IFC,2,TOSY08,
2IFC,55,0,55,0,7.7,-1,correct answer,0.334829600004,False,True,stimulusTOSY08_2IFC_2019_Jun_18_1255_861,stimulusTOSY08_2IFC_2019_Jun_18_1255_862,False,2019_Jun_18_1255,2IFC,2,TOSY08,
2IFC,56,0,56,0,7.7,-1,correct answer,0.66678020003,True,False,stimulusTOSY08_2IFC_2019_Jun_18_1255_863,stimulusTOSY08_2IFC_2019_Jun_18_1255_864,False,2019_Jun_18_1255,2IFC,2,TOSY08,
2IFC,57,0,57,0,7.7,-1,correct answer,0.500408199965,False,True,stimulusTOSY08_2IFC_2019_Jun_18_1255_865,stimulusTOSY08_2IFC_2019_Jun_18_1255_866,False,2019_Jun_18_1255,2IFC,2,TOSY08,
2IFC,58,0,58,0,7.7,-1,correct answer,0.600388499966,False,True,stimulusTOSY08_2IFC_2019_Jun_18_1255_867,stimulusTOSY08_2IFC_2019_Jun_18_1255_868,False,2019_Jun_18_1255,2IFC,2,TOSY08,
2IFC,59,0,59,0,7.7,-1,correct answer,0.700574100018,True,False,stimulusTOSY08_2IFC_2019_Jun_18_1255_869,stimulusTOSY08_2IFC_2019_Jun_18_1255_870,False,2019_Jun_18_1255,2IFC,2,TOSY08,
2IFC,60,0,60,0,7.7,-1,wrong answer,0.267452999949,True,False,stimulusTOSY08_2IFC_2019_Jun_18_1255_871,stimulusTOSY08_2IFC_2019_Jun_18_1255_872,False,2019_Jun_18_1255,2IFC,2,TOSY08,
2IFC,61,0,61,0,7.7,-1,wrong answer,0.434017400024,True,False,stimulusTOSY08_2IFC_2019_Jun_18_1255_873,stimulusTOSY08_2IFC_2019_Jun_18_1255_874,False,2019_Jun_18_1255,2IFC,2,TOSY08,
2IFC,62,0,62,0,7.7,-1,correct answer,0.300394400023,True,False,stimulusTOSY08_2IFC_2019_Jun_18_1255_875,stimulusTOSY08_2IFC_2019_Jun_18_1255_876,False,2019_Jun_18_1255,2IFC,2,TOSY08,
2IFC,63,0,63,0,7.7,-1,correct answer,0.567793200025,False,True,stimulusTOSY08_2IFC_2019_Jun_18_1255_877,stimulusTOSY08_2IFC_2019_Jun_18_1255_878,False,2019_Jun_18_1255,2IFC,2,TOSY08,
2IFC,64,0,64,0,7.7,-1,correct answer,0.367423300049,False,True,stimulusTOSY08_2IFC_2019_Jun_18_1255_879,stimulusTOSY08_2IFC_2019_Jun_18_1255_880,False,2019_Jun_18_1255,2IFC,2,TOSY08,
2IFC,65,0,65,0,7.7,-1,no answer,-1,False,True,stimulusTOSY08_2IFC_2019_Jun_18_1255_881,stimulusTOSY08_2IFC_2019_Jun_18_1255_882,False,2019_Jun_18_1255,2IFC,2,TOSY08,
2IFC,66,0,66,0,7.7,-1,correct answer,0.267148899962,False,True,stimulusTOSY08_2IFC_2019_Jun_18_1255_883,stimulusTOSY08_2IFC_2019_Jun_18_1255_884,False,2019_Jun_18_1255,2IFC,2,TOSY08,
2IFC,67,0,67,0,7.7,-1,correct answer,0.701032399957,True,False,stimulusTOSY08_2IFC_2019_Jun_18_1255_885,stimulusTOSY08_2IFC_2019_Jun_18_1255_886,False,2019_Jun_18_1255,2IFC,2,TOSY08,
2IFC,68,0,68,0,7.7,-1,correct answer,0.367913099995,False,True,stimulusTOSY08_2IFC_2019_Jun_18_1255_887,stimulusTOSY08_2IFC_2019_Jun_18_1255_888,False,2019_Jun_18_1255,2IFC,2,TOSY08,
2IFC,69,0,69,0,7.7,-1,wrong answer,0.434095899982,True,False,stimulusTOSY08_2IFC_2019_Jun_18_1255_889,stimulusTOSY08_2IFC_2019_Jun_18_1255_890,False,2019_Jun_18_1255,2IFC,2,TOSY08,
2IFC,70,0,70,0,7.7,-1,correct answer,0.266891199979,False,True,stimulusTOSY08_2IFC_2019_Jun_18_1255_891,stimulusTOSY08_2IFC_2019_Jun_18_1255_892,False,2019_Jun_18_1255,2IFC,2,TOSY08,
2IFC,71,0,71,0,7.7,-1,wrong answer,0.702871200047,True,False,stimulusTOSY08_2IFC_2019_Jun_18_1255_893,stimulusTOSY08_2IFC_2019_Jun_18_1255_894,False,2019_Jun_18_1255,2IFC,2,TOSY08,
2IFC,72,0,72,0,7.7,-1,correct answer,0.500411900051,False,True,stimulusTOSY08_2IFC_2019_Jun_18_1255_895,stimulusTOSY08_2IFC_2019_Jun_18_1255_896,False,2019_Jun_18_1255,2IFC,2,TOSY08,
2IFC,73,0,73,0,7.7,-1,correct answer,0.600676300004,True,False,stimulusTOSY08_2IFC_2019_Jun_18_1255_897,stimulusTOSY08_2IFC_2019_Jun_18_1255_898,False,2019_Jun_18_1255,2IFC,2,TOSY08,
2IFC,74,0,74,0,7.7,-1,correct answer,0.235636800004,False,True,stimulusTOSY08_2IFC_2019_Jun_18_1255_899,stimulusTOSY08_2IFC_2019_Jun_18_1255_900,False,2019_Jun_18_1255,2IFC,2,TOSY08,
2IFC,0,0,0,0,10.7,-1,correct answer,0.601048500044,False,True,stimulusTOSY08_2IFC_2019_Jun_18_1255_901,stimulusTOSY08_2IFC_2019_Jun_18_1255_902,False,2019_Jun_18_1255,2IFC,2,TOSY08,
2IFC,1,0,1,0,10.7,-1,correct answer,0.567151300027,False,True,stimulusTOSY08_2IFC_2019_Jun_18_1255_903,stimulusTOSY08_2IFC_2019_Jun_18_1255_904,False,2019_Jun_18_1255,2IFC,2,TOSY08,
2IFC,2,0,2,0,10.7,-1,correct answer,0.567620900052,False,True,stimulusTOSY08_2IFC_2019_Jun_18_1255_905,stimulusTOSY08_2IFC_2019_Jun_18_1255_906,False,2019_Jun_18_1255,2IFC,2,TOSY08,
2IFC,3,0,3,0,10.7,-1,correct answer,0.433641000011,True,False,stimulusTOSY08_2IFC_2019_Jun_18_1255_907,stimulusTOSY08_2IFC_2019_Jun_18_1255_908,False,2019_Jun_18_1255,2IFC,2,TOSY08,
2IFC,4,0,4,0,10.7,-1,correct answer,0.400750800036,True,False,stimulusTOSY08_2IFC_2019_Jun_18_1255_909,stimulusTOSY08_2IFC_2019_Jun_18_1255_910,False,2019_Jun_18_1255,2IFC,2,TOSY08,
2IFC,5,0,5,0,10.7,-1,correct answer,0.600305499975,False,True,stimulusTOSY08_2IFC_2019_Jun_18_1255_911,stimulusTOSY08_2IFC_2019_Jun_18_1255_912,False,2019_Jun_18_1255,2IFC,2,TOSY08,
2IFC,6,0,6,0,10.7,-1,correct answer,0.634122600022,False,True,stimulusTOSY08_2IFC_2019_Jun_18_1255_913,stimulusTOSY08_2IFC_2019_Jun_18_1255_914,False,2019_Jun_18_1255,2IFC,2,TOSY08,
2IFC,7,0,7,0,10.7,-1,correct answer,0.567545800004,True,False,stimulusTOSY08_2IFC_2019_Jun_18_1255_915,stimulusTOSY08_2IFC_2019_Jun_18_1255_916,False,2019_Jun_18_1255,2IFC,2,TOSY08,
2IFC,8,0,8,0,10.7,-1,correct answer,0.567574099987,False,True,stimulusTOSY08_2IFC_2019_Jun_18_1255_917,stimulusTOSY08_2IFC_2019_Jun_18_1255_918,False,2019_Jun_18_1255,2IFC,2,TOSY08,
2IFC,9,0,9,0,10.7,-1,correct answer,0.534067800036,False,True,stimulusTOSY08_2IFC_2019_Jun_18_1255_919,stimulusTOSY08_2IFC_2019_Jun_18_1255_920,False,2019_Jun_18_1255,2IFC,2,TOSY08,
2IFC,10,0,10,0,10.7,-1,correct answer,0.433671100007,False,True,stimulusTOSY08_2IFC_2019_Jun_18_1255_921,stimulusTOSY08_2IFC_2019_Jun_18_1255_922,False,2019_Jun_18_1255,2IFC,2,TOSY08,
2IFC,11,0,11,0,10.7,-1,correct answer,0.367644900049,True,False,stimulusTOSY08_2IFC_2019_Jun_18_1255_923,stimulusTOSY08_2IFC_2019_Jun_18_1255_924,False,2019_Jun_18_1255,2IFC,2,TOSY08,
2IFC,12,0,12,0,10.7,-1,correct answer,0.433537999983,True,False,stimulusTOSY08_2IFC_2019_Jun_18_1255_925,stimulusTOSY08_2IFC_2019_Jun_18_1255_926,False,2019_Jun_18_1255,2IFC,2,TOSY08,
2IFC,13,0,13,0,10.7,-1,correct answer,0.433559000026,True,False,stimulusTOSY08_2IFC_2019_Jun_18_1255_927,stimulusTOSY08_2IFC_2019_Jun_18_1255_928,False,2019_Jun_18_1255,2IFC,2,TOSY08,
2IFC,14,0,14,0,10.7,-1,correct answer,0.400613699981,True,False,stimulusTOSY08_2IFC_2019_Jun_18_1255_929,stimulusTOSY08_2IFC_2019_Jun_18_1255_930,False,2019_Jun_18_1255,2IFC,2,TOSY08,
2IFC,15,0,15,0,10.7,-1,correct answer,0.667333799996,True,False,stimulusTOSY08_2IFC_2019_Jun_18_1255_931,stimulusTOSY08_2IFC_2019_Jun_18_1255_932,False,2019_Jun_18_1255,2IFC,2,TOSY08,
2IFC,16,0,16,0,10.7,-1,correct answer,0.600558200036,True,False,stimulusTOSY08_2IFC_2019_Jun_18_1255_933,stimulusTOSY08_2IFC_2019_Jun_18_1255_934,False,2019_Jun_18_1255,2IFC,2,TOSY08,
2IFC,17,0,17,0,10.7,-1,correct answer,0.466936000041,False,True,stimulusTOSY08_2IFC_2019_Jun_18_1255_935,stimulusTOSY08_2IFC_2019_Jun_18_1255_936,False,2019_Jun_18_1255,2IFC,2,TOSY08,
2IFC,18,0,18,0,10.7,-1,correct answer,0.300146099995,True,False,stimulusTOSY08_2IFC_2019_Jun_18_1255_937,stimulusTOSY08_2IFC_2019_Jun_18_1255_938,False,2019_Jun_18_1255,2IFC,2,TOSY08,
2IFC,19,0,19,0,10.7,-1,correct answer,0.401427600009,False,True,stimulusTOSY08_2IFC_2019_Jun_18_1255_939,stimulusTOSY08_2IFC_2019_Jun_18_1255_940,False,2019_Jun_18_1255,2IFC,2,TOSY08,
2IFC,20,0,20,0,10.7,-1,correct answer,0.334223599988,True,False,stimulusTOSY08_2IFC_2019_Jun_18_1255_941,stimulusTOSY08_2IFC_2019_Jun_18_1255_942,False,2019_Jun_18_1255,2IFC,2,TOSY08,
2IFC,21,0,21,0,10.7,-1,correct answer,0.300409200019,False,True,stimulusTOSY08_2IFC_2019_Jun_18_1255_943,stimulusTOSY08_2IFC_2019_Jun_18_1255_944,False,2019_Jun_18_1255,2IFC,2,TOSY08,
2IFC,22,0,22,0,10.7,-1,wrong answer,0.366333000013,False,True,stimulusTOSY08_2IFC_2019_Jun_18_1255_945,stimulusTOSY08_2IFC_2019_Jun_18_1255_946,False,2019_Jun_18_1255,2IFC,2,TOSY08,
2IFC,23,0,23,0,10.7,-1,correct answer,0.332593899977,False,True,stimulusTOSY08_2IFC_2019_Jun_18_1255_947,stimulusTOSY08_2IFC_2019_Jun_18_1255_948,False,2019_Jun_18_1255,2IFC,2,TOSY08,
2IFC,24,0,24,0,10.7,-1,correct answer,0.3016451,True,False,stimulusTOSY08_2IFC_2019_Jun_18_1255_949,stimulusTOSY08_2IFC_2019_Jun_18_1255_950,False,2019_Jun_18_1255,2IFC,2,TOSY08,
2IFC,25,0,25,0,10.7,-1,correct answer,0.467431800033,True,False,stimulusTOSY08_2IFC_2019_Jun_18_1255_951,stimulusTOSY08_2IFC_2019_Jun_18_1255_952,False,2019_Jun_18_1255,2IFC,2,TOSY08,
2IFC,26,0,26,0,10.7,-1,correct answer,0.400665000023,False,True,stimulusTOSY08_2IFC_2019_Jun_18_1255_953,stimulusTOSY08_2IFC_2019_Jun_18_1255_954,False,2019_Jun_18_1255,2IFC,2,TOSY08,
2IFC,27,0,27,0,10.7,-1,correct answer,0.401120399998,True,False,stimulusTOSY08_2IFC_2019_Jun_18_1255_955,stimulusTOSY08_2IFC_2019_Jun_18_1255_956,False,2019_Jun_18_1255,2IFC,2,TOSY08,
2IFC,28,0,28,0,10.7,-1,correct answer,0.434088500042,False,True,stimulusTOSY08_2IFC_2019_Jun_18_1255_957,stimulusTOSY08_2IFC_2019_Jun_18_1255_958,False,2019_Jun_18_1255,2IFC,2,TOSY08,
2IFC,29,0,29,0,10.7,-1,correct answer,0.53395740001,False,True,stimulusTOSY08_2IFC_2019_Jun_18_1255_959,stimulusTOSY08_2IFC_2019_Jun_18_1255_960,False,2019_Jun_18_1255,2IFC,2,TOSY08,
2IFC,30,0,30,0,10.7,-1,correct answer,0.567030900042,False,True,stimulusTOSY08_2IFC_2019_Jun_18_1255_961,stimulusTOSY08_2IFC_2019_Jun_18_1255_962,False,2019_Jun_18_1255,2IFC,2,TOSY08,
2IFC,31,0,31,0,10.7,-1,correct answer,0.400362899993,True,False,stimulusTOSY08_2IFC_2019_Jun_18_1255_963,stimulusTOSY08_2IFC_2019_Jun_18_1255_964,False,2019_Jun_18_1255,2IFC,2,TOSY08,
2IFC,32,0,32,0,10.7,-1,correct answer,0.566474700056,True,False,stimulusTOSY08_2IFC_2019_Jun_18_1255_965,stimulusTOSY08_2IFC_2019_Jun_18_1255_966,False,2019_Jun_18_1255,2IFC,2,TOSY08,
2IFC,33,0,33,0,10.7,-1,correct answer,0.400566900033,False,True,stimulusTOSY08_2IFC_2019_Jun_18_1255_967,stimulusTOSY08_2IFC_2019_Jun_18_1255_968,False,2019_Jun_18_1255,2IFC,2,TOSY08,
2IFC,34,0,34,0,10.7,-1,correct answer,0.333886299981,False,True,stimulusTOSY08_2IFC_2019_Jun_18_1255_969,stimulusTOSY08_2IFC_2019_Jun_18_1255_970,False,2019_Jun_18_1255,2IFC,2,TOSY08,
2IFC,35,0,35,0,10.7,-1,correct answer,0.234031500004,True,False,stimulusTOSY08_2IFC_2019_Jun_18_1255_971,stimulusTOSY08_2IFC_2019_Jun_18_1255_972,False,2019_Jun_18_1255,2IFC,2,TOSY08,
2IFC,36,0,36,0,10.7,-1,correct answer,0.400891600002,False,True,stimulusTOSY08_2IFC_2019_Jun_18_1255_973,stimulusTOSY08_2IFC_2019_Jun_18_1255_974,False,2019_Jun_18_1255,2IFC,2,TOSY08,
2IFC,37,0,37,0,10.7,-1,correct answer,0.434231499967,False,True,stimulusTOSY08_2IFC_2019_Jun_18_1255_975,stimulusTOSY08_2IFC_2019_Jun_18_1255_976,False,2019_Jun_18_1255,2IFC,2,TOSY08,
2IFC,38,0,38,0,10.7,-1,correct answer,0.267034900025,True,False,stimulusTOSY08_2IFC_2019_Jun_18_1255_977,stimulusTOSY08_2IFC_2019_Jun_18_1255_978,False,2019_Jun_18_1255,2IFC,2,TOSY08,
2IFC,39,0,39,0,10.7,-1,correct answer,0.366683300002,False,True,stimulusTOSY08_2IFC_2019_Jun_18_1255_979,stimulusTOSY08_2IFC_2019_Jun_18_1255_980,False,2019_Jun_18_1255,2IFC,2,TOSY08,
2IFC,40,0,40,0,10.7,-1,correct answer,0.399790900003,False,True,stimulusTOSY08_2IFC_2019_Jun_18_1255_981,stimulusTOSY08_2IFC_2019_Jun_18_1255_982,False,2019_Jun_18_1255,2IFC,2,TOSY08,
2IFC,41,0,41,0,10.7,-1,correct answer,0.3333537,True,False,stimulusTOSY08_2IFC_2019_Jun_18_1255_983,stimulusTOSY08_2IFC_2019_Jun_18_1255_984,False,2019_Jun_18_1255,2IFC,2,TOSY08,
2IFC,42,0,42,0,10.7,-1,wrong answer,0.300414600002,True,False,stimulusTOSY08_2IFC_2019_Jun_18_1255_985,stimulusTOSY08_2IFC_2019_Jun_18_1255_986,False,2019_Jun_18_1255,2IFC,2,TOSY08,
2IFC,43,0,43,0,10.7,-1,correct answer,0.267111300025,False,True,stimulusTOSY08_2IFC_2019_Jun_18_1255_987,stimulusTOSY08_2IFC_2019_Jun_18_1255_988,False,2019_Jun_18_1255,2IFC,2,TOSY08,
2IFC,44,0,44,0,10.7,-1,correct answer,0.302045500022,False,True,stimulusTOSY08_2IFC_2019_Jun_18_1255_989,stimulusTOSY08_2IFC_2019_Jun_18_1255_990,False,2019_Jun_18_1255,2IFC,2,TOSY08,
2IFC,45,0,45,0,10.7,-1,correct answer,0.100856799982,True,False,stimulusTOSY08_2IFC_2019_Jun_18_1255_991,stimulusTOSY08_2IFC_2019_Jun_18_1255_992,False,2019_Jun_18_1255,2IFC,2,TOSY08,
2IFC,46,0,46,0,10.7,-1,correct answer,0.16688080004,False,True,stimulusTOSY08_2IFC_2019_Jun_18_1255_993,stimulusTOSY08_2IFC_2019_Jun_18_1255_994,False,2019_Jun_18_1255,2IFC,2,TOSY08,
2IFC,47,0,47,0,10.7,-1,correct answer,0.300459299993,False,True,stimulusTOSY08_2IFC_2019_Jun_18_1255_995,stimulusTOSY08_2IFC_2019_Jun_18_1255_996,False,2019_Jun_18_1255,2IFC,2,TOSY08,
2IFC,48,0,48,0,10.7,-1,correct answer,0.29987420002,True,False,stimulusTOSY08_2IFC_2019_Jun_18_1255_997,stimulusTOSY08_2IFC_2019_Jun_18_1255_998,False,2019_Jun_18_1255,2IFC,2,TOSY08,
2IFC,49,0,49,0,10.7,-1,correct answer,0.500462099968,False,True,stimulusTOSY08_2IFC_2019_Jun_18_1255_999,stimulusTOSY08_2IFC_2019_Jun_18_1255_1000,False,2019_Jun_18_1255,2IFC,2,TOSY08,
2IFC,50,0,50,0,10.7,-1,correct answer,0.600472199963,False,True,stimulusTOSY08_2IFC_2019_Jun_18_1255_1001,stimulusTOSY08_2IFC_2019_Jun_18_1255_1002,False,2019_Jun_18_1255,2IFC,2,TOSY08,
2IFC,51,0,51,0,10.7,-1,correct answer,0.300133599958,True,False,stimulusTOSY08_2IFC_2019_Jun_18_1255_1003,stimulusTOSY08_2IFC_2019_Jun_18_1255_1004,False,2019_Jun_18_1255,2IFC,2,TOSY08,
2IFC,52,0,52,0,10.7,-1,correct answer,0.366825699981,True,False,stimulusTOSY08_2IFC_2019_Jun_18_1255_1005,stimulusTOSY08_2IFC_2019_Jun_18_1255_1006,False,2019_Jun_18_1255,2IFC,2,TOSY08,
2IFC,53,0,53,0,10.7,-1,correct answer,0.400391599978,True,False,stimulusTOSY08_2IFC_2019_Jun_18_1255_1007,stimulusTOSY08_2IFC_2019_Jun_18_1255_1008,False,2019_Jun_18_1255,2IFC,2,TOSY08,
2IFC,54,0,54,0,10.7,-1,correct answer,0.367126099998,False,True,stimulusTOSY08_2IFC_2019_Jun_18_1255_1009,stimulusTOSY08_2IFC_2019_Jun_18_1255_1010,False,2019_Jun_18_1255,2IFC,2,TOSY08,
2IFC,55,0,55,0,10.7,-1,correct answer,0.467504600005,False,True,stimulusTOSY08_2IFC_2019_Jun_18_1255_1011,stimulusTOSY08_2IFC_2019_Jun_18_1255_1012,False,2019_Jun_18_1255,2IFC,2,TOSY08,
2IFC,56,0,56,0,10.7,-1,correct answer,0.434489300009,False,True,stimulusTOSY08_2IFC_2019_Jun_18_1255_1013,stimulusTOSY08_2IFC_2019_Jun_18_1255_1014,False,2019_Jun_18_1255,2IFC,2,TOSY08,
2IFC,57,0,57,0,10.7,-1,correct answer,0.567677699961,False,True,stimulusTOSY08_2IFC_2019_Jun_18_1255_1015,stimulusTOSY08_2IFC_2019_Jun_18_1255_1016,False,2019_Jun_18_1255,2IFC,2,TOSY08,
2IFC,58,0,58,0,10.7,-1,correct answer,0.467365499993,False,True,stimulusTOSY08_2IFC_2019_Jun_18_1255_1017,stimulusTOSY08_2IFC_2019_Jun_18_1255_1018,False,2019_Jun_18_1255,2IFC,2,TOSY08,
2IFC,59,0,59,0,10.7,-1,correct answer,0.366936000006,True,False,stimulusTOSY08_2IFC_2019_Jun_18_1255_1019,stimulusTOSY08_2IFC_2019_Jun_18_1255_1020,False,2019_Jun_18_1255,2IFC,2,TOSY08,
2IFC,60,0,60,0,10.7,-1,correct answer,0.566210900026,True,False,stimulusTOSY08_2IFC_2019_Jun_18_1255_1021,stimulusTOSY08_2IFC_2019_Jun_18_1255_1022,False,2019_Jun_18_1255,2IFC,2,TOSY08,
2IFC,61,0,61,0,10.7,-1,correct answer,0.500782700023,False,True,stimulusTOSY08_2IFC_2019_Jun_18_1255_1023,stimulusTOSY08_2IFC_2019_Jun_18_1255_1024,False,2019_Jun_18_1255,2IFC,2,TOSY08,
2IFC,62,0,62,0,10.7,-1,correct answer,0.367087399994,False,True,stimulusTOSY08_2IFC_2019_Jun_18_1255_1025,stimulusTOSY08_2IFC_2019_Jun_18_1255_1026,False,2019_Jun_18_1255,2IFC,2,TOSY08,
2IFC,63,0,63,0,10.7,-1,correct answer,0.500595999998,False,True,stimulusTOSY08_2IFC_2019_Jun_18_1255_1027,stimulusTOSY08_2IFC_2019_Jun_18_1255_1028,False,2019_Jun_18_1255,2IFC,2,TOSY08,
2IFC,64,0,64,0,10.7,-1,correct answer,0.40066600003,False,True,stimulusTOSY08_2IFC_2019_Jun_18_1255_1029,stimulusTOSY08_2IFC_2019_Jun_18_1255_1030,False,2019_Jun_18_1255,2IFC,2,TOSY08,
2IFC,65,0,65,0,10.7,-1,correct answer,0.434008000011,True,False,stimulusTOSY08_2IFC_2019_Jun_18_1255_1031,stimulusTOSY08_2IFC_2019_Jun_18_1255_1032,False,2019_Jun_18_1255,2IFC,2,TOSY08,
2IFC,66,0,66,0,10.7,-1,correct answer,0.535455000005,True,False,stimulusTOSY08_2IFC_2019_Jun_18_1255_1033,stimulusTOSY08_2IFC_2019_Jun_18_1255_1034,False,2019_Jun_18_1255,2IFC,2,TOSY08,
2IFC,67,0,67,0,10.7,-1,correct answer,0.367301199993,False,True,stimulusTOSY08_2IFC_2019_Jun_18_1255_1035,stimulusTOSY08_2IFC_2019_Jun_18_1255_1036,False,2019_Jun_18_1255,2IFC,2,TOSY08,
2IFC,68,0,68,0,10.7,-1,wrong answer,0.834163299995,False,True,stimulusTOSY08_2IFC_2019_Jun_18_1255_1037,stimulusTOSY08_2IFC_2019_Jun_18_1255_1038,False,2019_Jun_18_1255,2IFC,2,TOSY08,
2IFC,69,0,69,0,10.7,-1,correct answer,0.467142399983,True,False,stimulusTOSY08_2IFC_2019_Jun_18_1255_1039,stimulusTOSY08_2IFC_2019_Jun_18_1255_1040,False,2019_Jun_18_1255,2IFC,2,TOSY08,
2IFC,70,0,70,0,10.7,-1,correct answer,0.467508399975,True,False,stimulusTOSY08_2IFC_2019_Jun_18_1255_1041,stimulusTOSY08_2IFC_2019_Jun_18_1255_1042,False,2019_Jun_18_1255,2IFC,2,TOSY08,
2IFC,71,0,71,0,10.7,-1,correct answer,0.300635199994,False,True,stimulusTOSY08_2IFC_2019_Jun_18_1255_1043,stimulusTOSY08_2IFC_2019_Jun_18_1255_1044,False,2019_Jun_18_1255,2IFC,2,TOSY08,
2IFC,72,0,72,0,10.7,-1,correct answer,0.434078300023,True,False,stimulusTOSY08_2IFC_2019_Jun_18_1255_1045,stimulusTOSY08_2IFC_2019_Jun_18_1255_1046,False,2019_Jun_18_1255,2IFC,2,TOSY08,
2IFC,73,0,73,0,10.7,-1,correct answer,0.300356600026,False,True,stimulusTOSY08_2IFC_2019_Jun_18_1255_1047,stimulusTOSY08_2IFC_2019_Jun_18_1255_1048,False,2019_Jun_18_1255,2IFC,2,TOSY08,
2IFC,74,0,74,0,10.7,-1,wrong answer,0.400491599983,False,True,stimulusTOSY08_2IFC_2019_Jun_18_1255_1049,stimulusTOSY08_2IFC_2019_Jun_18_1255_1050,False,2019_Jun_18_1255,2IFC,2,TOSY08,
2IFC,0,0,0,0,4.9,-1,correct answer,0.634061800025,False,True,stimulusTOSY08_2IFC_2019_Jun_18_1255_1051,stimulusTOSY08_2IFC_2019_Jun_18_1255_1052,False,2019_Jun_18_1255,2IFC,2,TOSY08,
2IFC,1,0,1,0,4.9,-1,correct answer,0.600842799991,False,True,stimulusTOSY08_2IFC_2019_Jun_18_1255_1053,stimulusTOSY08_2IFC_2019_Jun_18_1255_1054,False,2019_Jun_18_1255,2IFC,2,TOSY08,
2IFC,2,0,2,0,4.9,-1,correct answer,0.567023599986,False,True,stimulusTOSY08_2IFC_2019_Jun_18_1255_1055,stimulusTOSY08_2IFC_2019_Jun_18_1255_1056,False,2019_Jun_18_1255,2IFC,2,TOSY08,
2IFC,3,0,3,0,4.9,-1,wrong answer,0.667437899974,True,False,stimulusTOSY08_2IFC_2019_Jun_18_1255_1057,stimulusTOSY08_2IFC_2019_Jun_18_1255_1058,False,2019_Jun_18_1255,2IFC,2,TOSY08,
2IFC,4,0,4,0,4.9,-1,correct answer,0.500711800007,False,True,stimulusTOSY08_2IFC_2019_Jun_18_1255_1059,stimulusTOSY08_2IFC_2019_Jun_18_1255_1060,False,2019_Jun_18_1255,2IFC,2,TOSY08,
2IFC,5,0,5,0,4.9,-1,correct answer,0.767325700028,False,True,stimulusTOSY08_2IFC_2019_Jun_18_1255_1061,stimulusTOSY08_2IFC_2019_Jun_18_1255_1062,False,2019_Jun_18_1255,2IFC,2,TOSY08,
2IFC,6,0,6,0,4.9,-1,correct answer,0.834216599993,True,False,stimulusTOSY08_2IFC_2019_Jun_18_1255_1063,stimulusTOSY08_2IFC_2019_Jun_18_1255_1064,False,2019_Jun_18_1255,2IFC,2,TOSY08,
2IFC,7,0,7,0,4.9,-1,wrong answer,0.635612300015,False,True,stimulusTOSY08_2IFC_2019_Jun_18_1255_1065,stimulusTOSY08_2IFC_2019_Jun_18_1255_1066,False,2019_Jun_18_1255,2IFC,2,TOSY08,
2IFC,8,0,8,0,4.9,-1,correct answer,0.533920100017,False,True,stimulusTOSY08_2IFC_2019_Jun_18_1255_1067,stimulusTOSY08_2IFC_2019_Jun_18_1255_1068,False,2019_Jun_18_1255,2IFC,2,TOSY08,
2IFC,9,0,9,0,4.9,-1,wrong answer,0.600495300023,True,False,stimulusTOSY08_2IFC_2019_Jun_18_1255_1069,stimulusTOSY08_2IFC_2019_Jun_18_1255_1070,False,2019_Jun_18_1255,2IFC,2,TOSY08,
2IFC,10,0,10,0,4.9,-1,correct answer,0.467579199991,False,True,stimulusTOSY08_2IFC_2019_Jun_18_1255_1071,stimulusTOSY08_2IFC_2019_Jun_18_1255_1072,False,2019_Jun_18_1255,2IFC,2,TOSY08,
2IFC,11,0,11,0,4.9,-1,correct answer,0.366666300048,True,False,stimulusTOSY08_2IFC_2019_Jun_18_1255_1073,stimulusTOSY08_2IFC_2019_Jun_18_1255_1074,False,2019_Jun_18_1255,2IFC,2,TOSY08,
2IFC,12,0,12,0,4.9,-1,correct answer,0.334137700032,False,True,stimulusTOSY08_2IFC_2019_Jun_18_1255_1075,stimulusTOSY08_2IFC_2019_Jun_18_1255_1076,False,2019_Jun_18_1255,2IFC,2,TOSY08,
2IFC,13,0,13,0,4.9,-1,correct answer,0.500827400014,False,True,stimulusTOSY08_2IFC_2019_Jun_18_1255_1077,stimulusTOSY08_2IFC_2019_Jun_18_1255_1078,False,2019_Jun_18_1255,2IFC,2,TOSY08,
2IFC,14,0,14,0,4.9,-1,correct answer,0.633967300004,False,True,stimulusTOSY08_2IFC_2019_Jun_18_1255_1079,stimulusTOSY08_2IFC_2019_Jun_18_1255_1080,False,2019_Jun_18_1255,2IFC,2,TOSY08,
2IFC,15,0,15,0,4.9,-1,correct answer,0.632774199999,False,True,stimulusTOSY08_2IFC_2019_Jun_18_1255_1081,stimulusTOSY08_2IFC_2019_Jun_18_1255_1082,False,2019_Jun_18_1255,2IFC,2,TOSY08,
2IFC,16,0,16,0,4.9,-1,correct answer,0.631963699998,False,True,stimulusTOSY08_2IFC_2019_Jun_18_1255_1083,stimulusTOSY08_2IFC_2019_Jun_18_1255_1084,False,2019_Jun_18_1255,2IFC,2,TOSY08,
2IFC,17,0,17,0,4.9,-1,wrong answer,0.400492999994,True,False,stimulusTOSY08_2IFC_2019_Jun_18_1255_1085,stimulusTOSY08_2IFC_2019_Jun_18_1255_1086,False,2019_Jun_18_1255,2IFC,2,TOSY08,
2IFC,18,0,18,0,4.9,-1,correct answer,0.500750600011,False,True,stimulusTOSY08_2IFC_2019_Jun_18_1255_1087,stimulusTOSY08_2IFC_2019_Jun_18_1255_1088,False,2019_Jun_18_1255,2IFC,2,TOSY08,
2IFC,19,0,19,0,4.9,-1,correct answer,0.700758300023,True,False,stimulusTOSY08_2IFC_2019_Jun_18_1255_1089,stimulusTOSY08_2IFC_2019_Jun_18_1255_1090,False,2019_Jun_18_1255,2IFC,2,TOSY08,
2IFC,20,0,20,0,4.9,-1,correct answer,0.534932499984,False,True,stimulusTOSY08_2IFC_2019_Jun_18_1255_1091,stimulusTOSY08_2IFC_2019_Jun_18_1255_1092,False,2019_Jun_18_1255,2IFC,2,TOSY08,
