Task,trials.thisRepN,trials.thisTrialN,trials.thisN,trials.thisIndex,time_response_second,response_2IFCnew,response_key2Interval_2IFCnew,signal_intensity,constant Value,response,time_response,signal_on_stimuluspos1,signal_on_stimuluspos2,stimulus_name_pos1,stimulus_name_pos2,random_intensity,date,expName,session,participant,
2IFCnew,0,0,0,0,0.301234300015,1,No,12.9,-1,Hit,0.36738729995,True,False,stimulusTOSY08_2IFCnew_2019_Jun_18_1224_1,stimulusTOSY08_2IFCnew_2019_Jun_18_1224_2,False,2019_Jun_18_1224,2IFCnew,2,TOSY08,
2IFCnew,1,0,1,0,0.300180499966,1,No,12.9,-1,Hit,0.500766700017,True,False,stimulusTOSY08_2IFCnew_2019_Jun_18_1224_3,stimulusTOSY08_2IFCnew_2019_Jun_18_1224_4,False,2019_Jun_18_1224,2IFCnew,2,TOSY08,
2IFCnew,2,0,2,0,0.466964000021,1,No,12.9,-1,Hit,0.600721900002,True,False,stimulusTOSY08_2IFCnew_2019_Jun_18_1224_5,stimulusTOSY08_2IFCnew_2019_Jun_18_1224_6,False,2019_Jun_18_1224,2IFCnew,2,TOSY08,
2IFCnew,3,0,3,0,0.467035399983,3,No,12.9,-1,False Alarm,0.598821000021,False,True,stimulusTOSY08_2IFCnew_2019_Jun_18_1224_7,stimulusTOSY08_2IFCnew_2019_Jun_18_1224_8,False,2019_Jun_18_1224,2IFCnew,2,TOSY08,
2IFCnew,4,0,4,0,0.400449400011,1,No,12.9,-1,Hit,0.500758300012,True,False,stimulusTOSY08_2IFCnew_2019_Jun_18_1224_9,stimulusTOSY08_2IFCnew_2019_Jun_18_1224_10,False,2019_Jun_18_1224,2IFCnew,2,TOSY08,
2IFCnew,5,0,5,0,0.534031999996,5,Yes,12.9,-1,False Alarm,0.500703800004,False,True,stimulusTOSY08_2IFCnew_2019_Jun_18_1224_11,stimulusTOSY08_2IFCnew_2019_Jun_18_1224_12,False,2019_Jun_18_1224,2IFCnew,2,TOSY08,
2IFCnew,6,0,6,0,0.500096300035,1,No,12.9,-1,Hit,0.567315299995,True,False,stimulusTOSY08_2IFCnew_2019_Jun_18_1224_13,stimulusTOSY08_2IFCnew_2019_Jun_18_1224_14,False,2019_Jun_18_1224,2IFCnew,2,TOSY08,
2IFCnew,7,0,7,0,0.466359799961,5,Yes,12.9,-1,False Alarm,0.600923800026,False,True,stimulusTOSY08_2IFCnew_2019_Jun_18_1224_15,stimulusTOSY08_2IFCnew_2019_Jun_18_1224_16,False,2019_Jun_18_1224,2IFCnew,2,TOSY08,
2IFCnew,8,0,8,0,0.399970200029,1,No,12.9,-1,Hit,0.701993199997,True,False,stimulusTOSY08_2IFCnew_2019_Jun_18_1224_17,stimulusTOSY08_2IFCnew_2019_Jun_18_1224_18,False,2019_Jun_18_1224,2IFCnew,2,TOSY08,
2IFCnew,9,0,9,0,0.600020000013,1,No,12.9,-1,Hit,0.70097960002,True,False,stimulusTOSY08_2IFCnew_2019_Jun_18_1224_19,stimulusTOSY08_2IFCnew_2019_Jun_18_1224_20,False,2019_Jun_18_1224,2IFCnew,2,TOSY08,
2IFCnew,10,0,10,0,0.602060300007,5,Yes,12.9,-1,False Alarm,0.666484199988,False,True,stimulusTOSY08_2IFCnew_2019_Jun_18_1224_21,stimulusTOSY08_2IFCnew_2019_Jun_18_1224_22,False,2019_Jun_18_1224,2IFCnew,2,TOSY08,
2IFCnew,11,0,11,0,0.500381099992,1,No,12.9,-1,Hit,0.767563399975,True,False,stimulusTOSY08_2IFCnew_2019_Jun_18_1224_23,stimulusTOSY08_2IFCnew_2019_Jun_18_1224_24,False,2019_Jun_18_1224,2IFCnew,2,TOSY08,
2IFCnew,12,0,12,0,0.567826899991,2,Yes,12.9,-1,Correct Rejection,0.867561099993,False,True,stimulusTOSY08_2IFCnew_2019_Jun_18_1224_25,stimulusTOSY08_2IFCnew_2019_Jun_18_1224_26,False,2019_Jun_18_1224,2IFCnew,2,TOSY08,
2IFCnew,13,0,13,0,0.367282699968,1,No,12.9,-1,Hit,0.733445599966,True,False,stimulusTOSY08_2IFCnew_2019_Jun_18_1224_27,stimulusTOSY08_2IFCnew_2019_Jun_18_1224_28,False,2019_Jun_18_1224,2IFCnew,2,TOSY08,
2IFCnew,14,0,14,0,0.600704099983,2,Yes,12.9,-1,Correct Rejection,0.868665800022,False,True,stimulusTOSY08_2IFCnew_2019_Jun_18_1224_29,stimulusTOSY08_2IFCnew_2019_Jun_18_1224_30,False,2019_Jun_18_1224,2IFCnew,2,TOSY08,
2IFCnew,15,0,15,0,0.533943600021,1,No,12.9,-1,Hit,0.734117600019,True,False,stimulusTOSY08_2IFCnew_2019_Jun_18_1224_31,stimulusTOSY08_2IFCnew_2019_Jun_18_1224_32,False,2019_Jun_18_1224,2IFCnew,2,TOSY08,
2IFCnew,16,0,16,0,0.367356899951,1,No,12.9,-1,Hit,0.53547969996,True,False,stimulusTOSY08_2IFCnew_2019_Jun_18_1224_33,stimulusTOSY08_2IFCnew_2019_Jun_18_1224_34,False,2019_Jun_18_1224,2IFCnew,2,TOSY08,
2IFCnew,17,0,17,0,0.371040400001,1,No,12.9,-1,Hit,0.566634799994,True,False,stimulusTOSY08_2IFCnew_2019_Jun_18_1224_35,stimulusTOSY08_2IFCnew_2019_Jun_18_1224_36,False,2019_Jun_18_1224,2IFCnew,2,TOSY08,
2IFCnew,18,0,18,0,0.467311199987,1,No,12.9,-1,Hit,0.567362600006,True,False,stimulusTOSY08_2IFCnew_2019_Jun_18_1224_37,stimulusTOSY08_2IFCnew_2019_Jun_18_1224_38,False,2019_Jun_18_1224,2IFCnew,2,TOSY08,
2IFCnew,19,0,19,0,0.46725409996,2,Yes,12.9,-1,Correct Rejection,0.800869200029,False,True,stimulusTOSY08_2IFCnew_2019_Jun_18_1224_39,stimulusTOSY08_2IFCnew_2019_Jun_18_1224_40,False,2019_Jun_18_1224,2IFCnew,2,TOSY08,
2IFCnew,20,0,20,0,0.367654100002,1,No,12.9,-1,Hit,0.567283099983,True,False,stimulusTOSY08_2IFCnew_2019_Jun_18_1224_41,stimulusTOSY08_2IFCnew_2019_Jun_18_1224_42,False,2019_Jun_18_1224,2IFCnew,2,TOSY08,
2IFCnew,21,0,21,0,0.467541799997,2,Yes,12.9,-1,Correct Rejection,0.767418300034,False,True,stimulusTOSY08_2IFCnew_2019_Jun_18_1224_43,stimulusTOSY08_2IFCnew_2019_Jun_18_1224_44,False,2019_Jun_18_1224,2IFCnew,2,TOSY08,
2IFCnew,22,0,22,0,0.533872700005,2,Yes,12.9,-1,Correct Rejection,0.667275799962,False,True,stimulusTOSY08_2IFCnew_2019_Jun_18_1224_45,stimulusTOSY08_2IFCnew_2019_Jun_18_1224_46,False,2019_Jun_18_1224,2IFCnew,2,TOSY08,
2IFCnew,23,0,23,0,0.433310099994,1,No,12.9,-1,Hit,0.602329000016,True,False,stimulusTOSY08_2IFCnew_2019_Jun_18_1224_47,stimulusTOSY08_2IFCnew_2019_Jun_18_1224_48,False,2019_Jun_18_1224,2IFCnew,2,TOSY08,
2IFCnew,24,0,24,0,0.300407700008,1,No,12.9,-1,Hit,0.500608199975,True,False,stimulusTOSY08_2IFCnew_2019_Jun_18_1224_49,stimulusTOSY08_2IFCnew_2019_Jun_18_1224_50,False,2019_Jun_18_1224,2IFCnew,2,TOSY08,
2IFCnew,25,0,25,0,0.400543999975,2,Yes,12.9,-1,Correct Rejection,0.667129900015,False,True,stimulusTOSY08_2IFCnew_2019_Jun_18_1224_51,stimulusTOSY08_2IFCnew_2019_Jun_18_1224_52,False,2019_Jun_18_1224,2IFCnew,2,TOSY08,
2IFCnew,26,0,26,0,0.500429600012,1,No,12.9,-1,Hit,0.734342999989,True,False,stimulusTOSY08_2IFCnew_2019_Jun_18_1224_53,stimulusTOSY08_2IFCnew_2019_Jun_18_1224_54,False,2019_Jun_18_1224,2IFCnew,2,TOSY08,
2IFCnew,27,0,27,0,0.433706900047,1,No,12.9,-1,Hit,0.634373000008,True,False,stimulusTOSY08_2IFCnew_2019_Jun_18_1224_55,stimulusTOSY08_2IFCnew_2019_Jun_18_1224_56,False,2019_Jun_18_1224,2IFCnew,2,TOSY08,
2IFCnew,28,0,28,0,0.333076599985,1,No,12.9,-1,Hit,0.500651500013,True,False,stimulusTOSY08_2IFCnew_2019_Jun_18_1224_57,stimulusTOSY08_2IFCnew_2019_Jun_18_1224_58,False,2019_Jun_18_1224,2IFCnew,2,TOSY08,
2IFCnew,29,0,29,0,0.567274499976,2,Yes,12.9,-1,Correct Rejection,0.834625100018,False,True,stimulusTOSY08_2IFCnew_2019_Jun_18_1224_59,stimulusTOSY08_2IFCnew_2019_Jun_18_1224_60,False,2019_Jun_18_1224,2IFCnew,2,TOSY08,
2IFCnew,30,0,30,0,0.432904799993,1,No,12.9,-1,Hit,0.700099199952,True,False,stimulusTOSY08_2IFCnew_2019_Jun_18_1224_61,stimulusTOSY08_2IFCnew_2019_Jun_18_1224_62,False,2019_Jun_18_1224,2IFCnew,2,TOSY08,
2IFCnew,31,0,31,0,0.400488400017,1,No,12.9,-1,Hit,0.600558799983,True,False,stimulusTOSY08_2IFCnew_2019_Jun_18_1224_63,stimulusTOSY08_2IFCnew_2019_Jun_18_1224_64,False,2019_Jun_18_1224,2IFCnew,2,TOSY08,
2IFCnew,32,0,32,0,0.367078499985,1,No,12.9,-1,Hit,0.533847599989,True,False,stimulusTOSY08_2IFCnew_2019_Jun_18_1224_65,stimulusTOSY08_2IFCnew_2019_Jun_18_1224_66,False,2019_Jun_18_1224,2IFCnew,2,TOSY08,
2IFCnew,33,0,33,0,0.368065699993,1,No,12.9,-1,Hit,0.601381999964,True,False,stimulusTOSY08_2IFCnew_2019_Jun_18_1224_67,stimulusTOSY08_2IFCnew_2019_Jun_18_1224_68,False,2019_Jun_18_1224,2IFCnew,2,TOSY08,
2IFCnew,34,0,34,0,0.333486799966,1,No,12.9,-1,Hit,0.601877300011,True,False,stimulusTOSY08_2IFCnew_2019_Jun_18_1224_69,stimulusTOSY08_2IFCnew_2019_Jun_18_1224_70,False,2019_Jun_18_1224,2IFCnew,2,TOSY08,
2IFCnew,35,0,35,0,0.333665599988,1,No,12.9,-1,Hit,0.566967600025,True,False,stimulusTOSY08_2IFCnew_2019_Jun_18_1224_71,stimulusTOSY08_2IFCnew_2019_Jun_18_1224_72,False,2019_Jun_18_1224,2IFCnew,2,TOSY08,
2IFCnew,36,0,36,0,0.500676300027,1,No,12.9,-1,Hit,0.600302600011,True,False,stimulusTOSY08_2IFCnew_2019_Jun_18_1224_73,stimulusTOSY08_2IFCnew_2019_Jun_18_1224_74,False,2019_Jun_18_1224,2IFCnew,2,TOSY08,
2IFCnew,37,0,37,0,0.463550099987,5,Yes,12.9,-1,False Alarm,0.534220399975,False,True,stimulusTOSY08_2IFCnew_2019_Jun_18_1224_75,stimulusTOSY08_2IFCnew_2019_Jun_18_1224_76,False,2019_Jun_18_1224,2IFCnew,2,TOSY08,
2IFCnew,38,0,38,0,0.467231800023,1,No,12.9,-1,Hit,0.501054399996,True,False,stimulusTOSY08_2IFCnew_2019_Jun_18_1224_77,stimulusTOSY08_2IFCnew_2019_Jun_18_1224_78,False,2019_Jun_18_1224,2IFCnew,2,TOSY08,
2IFCnew,39,0,39,0,0.434041899978,5,Yes,12.9,-1,False Alarm,0.567416699952,False,True,stimulusTOSY08_2IFCnew_2019_Jun_18_1224_79,stimulusTOSY08_2IFCnew_2019_Jun_18_1224_80,False,2019_Jun_18_1224,2IFCnew,2,TOSY08,
2IFCnew,40,0,40,0,0.367486500007,2,Yes,12.9,-1,Correct Rejection,0.567130699987,False,True,stimulusTOSY08_2IFCnew_2019_Jun_18_1224_81,stimulusTOSY08_2IFCnew_2019_Jun_18_1224_82,False,2019_Jun_18_1224,2IFCnew,2,TOSY08,
2IFCnew,41,0,41,0,0.501216100005,2,Yes,12.9,-1,Correct Rejection,0.834029900027,False,True,stimulusTOSY08_2IFCnew_2019_Jun_18_1224_83,stimulusTOSY08_2IFCnew_2019_Jun_18_1224_84,False,2019_Jun_18_1224,2IFCnew,2,TOSY08,
2IFCnew,42,0,42,0,0.400731800008,2,Yes,12.9,-1,Correct Rejection,0.567230300047,False,True,stimulusTOSY08_2IFCnew_2019_Jun_18_1224_85,stimulusTOSY08_2IFCnew_2019_Jun_18_1224_86,False,2019_Jun_18_1224,2IFCnew,2,TOSY08,
2IFCnew,43,0,43,0,0.434533299995,2,Yes,12.9,-1,Correct Rejection,0.502968700021,False,True,stimulusTOSY08_2IFCnew_2019_Jun_18_1224_87,stimulusTOSY08_2IFCnew_2019_Jun_18_1224_88,False,2019_Jun_18_1224,2IFCnew,2,TOSY08,
2IFCnew,44,0,44,0,0.330845199991,2,Yes,12.9,-1,Correct Rejection,0.466134999995,False,True,stimulusTOSY08_2IFCnew_2019_Jun_18_1224_89,stimulusTOSY08_2IFCnew_2019_Jun_18_1224_90,False,2019_Jun_18_1224,2IFCnew,2,TOSY08,
2IFCnew,45,0,45,0,0.400523599994,4,Yes,12.9,-1,Miss,0.56936069997,True,False,stimulusTOSY08_2IFCnew_2019_Jun_18_1224_91,stimulusTOSY08_2IFCnew_2019_Jun_18_1224_92,False,2019_Jun_18_1224,2IFCnew,2,TOSY08,
2IFCnew,46,0,46,0,0.466144100006,1,No,12.9,-1,Hit,0.56699750002,True,False,stimulusTOSY08_2IFCnew_2019_Jun_18_1224_93,stimulusTOSY08_2IFCnew_2019_Jun_18_1224_94,False,2019_Jun_18_1224,2IFCnew,2,TOSY08,
2IFCnew,47,0,47,0,0.467167700001,1,No,12.9,-1,Hit,0.568081100006,True,False,stimulusTOSY08_2IFCnew_2019_Jun_18_1224_95,stimulusTOSY08_2IFCnew_2019_Jun_18_1224_96,False,2019_Jun_18_1224,2IFCnew,2,TOSY08,
2IFCnew,48,0,48,0,0.300368800003,5,Yes,12.9,-1,False Alarm,0.433740900015,False,True,stimulusTOSY08_2IFCnew_2019_Jun_18_1224_97,stimulusTOSY08_2IFCnew_2019_Jun_18_1224_98,False,2019_Jun_18_1224,2IFCnew,2,TOSY08,
2IFCnew,49,0,49,0,0.467806300032,2,Yes,12.9,-1,Correct Rejection,0.867569800001,False,True,stimulusTOSY08_2IFCnew_2019_Jun_18_1224_99,stimulusTOSY08_2IFCnew_2019_Jun_18_1224_100,False,2019_Jun_18_1224,2IFCnew,2,TOSY08,
2IFCnew,50,0,50,0,0.334039799985,1,No,12.9,-1,Hit,0.603238400014,True,False,stimulusTOSY08_2IFCnew_2019_Jun_18_1224_101,stimulusTOSY08_2IFCnew_2019_Jun_18_1224_102,False,2019_Jun_18_1224,2IFCnew,2,TOSY08,
2IFCnew,51,0,51,0,0.299324800028,2,Yes,12.9,-1,Correct Rejection,0.667559799971,False,True,stimulusTOSY08_2IFCnew_2019_Jun_18_1224_103,stimulusTOSY08_2IFCnew_2019_Jun_18_1224_104,False,2019_Jun_18_1224,2IFCnew,2,TOSY08,
2IFCnew,52,0,52,0,0.367266799964,2,Yes,12.9,-1,Correct Rejection,0.534055900003,False,True,stimulusTOSY08_2IFCnew_2019_Jun_18_1224_105,stimulusTOSY08_2IFCnew_2019_Jun_18_1224_106,False,2019_Jun_18_1224,2IFCnew,2,TOSY08,
2IFCnew,53,0,53,0,0.766627200006,4,Yes,12.9,-1,Miss,0.633221699973,True,False,stimulusTOSY08_2IFCnew_2019_Jun_18_1224_107,stimulusTOSY08_2IFCnew_2019_Jun_18_1224_108,False,2019_Jun_18_1224,2IFCnew,2,TOSY08,
2IFCnew,54,0,54,0,0.700644999975,1,No,12.9,-1,Hit,0.868713999982,True,False,stimulusTOSY08_2IFCnew_2019_Jun_18_1224_109,stimulusTOSY08_2IFCnew_2019_Jun_18_1224_110,False,2019_Jun_18_1224,2IFCnew,2,TOSY08,
2IFCnew,55,0,55,0,0.467272199981,1,No,12.9,-1,Hit,0.735182399978,True,False,stimulusTOSY08_2IFCnew_2019_Jun_18_1224_111,stimulusTOSY08_2IFCnew_2019_Jun_18_1224_112,False,2019_Jun_18_1224,2IFCnew,2,TOSY08,
2IFCnew,56,0,56,0,0.300708399969,1,No,12.9,-1,Hit,0.501669500023,True,False,stimulusTOSY08_2IFCnew_2019_Jun_18_1224_113,stimulusTOSY08_2IFCnew_2019_Jun_18_1224_114,False,2019_Jun_18_1224,2IFCnew,2,TOSY08,
2IFCnew,57,0,57,0,0.299675200018,2,Yes,12.9,-1,Correct Rejection,0.800232500012,False,True,stimulusTOSY08_2IFCnew_2019_Jun_18_1224_115,stimulusTOSY08_2IFCnew_2019_Jun_18_1224_116,False,2019_Jun_18_1224,2IFCnew,2,TOSY08,
2IFCnew,58,0,58,0,0.600640600023,4,Yes,12.9,-1,Miss,0.767546200019,True,False,stimulusTOSY08_2IFCnew_2019_Jun_18_1224_117,stimulusTOSY08_2IFCnew_2019_Jun_18_1224_118,False,2019_Jun_18_1224,2IFCnew,2,TOSY08,
2IFCnew,59,0,59,0,0.633965999994,5,Yes,12.9,-1,False Alarm,0.734224500018,False,True,stimulusTOSY08_2IFCnew_2019_Jun_18_1224_119,stimulusTOSY08_2IFCnew_2019_Jun_18_1224_120,False,2019_Jun_18_1224,2IFCnew,2,TOSY08,
2IFCnew,60,0,60,0,0.467524999985,2,Yes,12.9,-1,Correct Rejection,0.533875499968,False,True,stimulusTOSY08_2IFCnew_2019_Jun_18_1224_121,stimulusTOSY08_2IFCnew_2019_Jun_18_1224_122,False,2019_Jun_18_1224,2IFCnew,2,TOSY08,
2IFCnew,61,0,61,0,0.467431300029,1,No,12.9,-1,Hit,0.601221700024,True,False,stimulusTOSY08_2IFCnew_2019_Jun_18_1224_123,stimulusTOSY08_2IFCnew_2019_Jun_18_1224_124,False,2019_Jun_18_1224,2IFCnew,2,TOSY08,
2IFCnew,62,0,62,0,0.46691930003,2,Yes,12.9,-1,Correct Rejection,0.733900699997,False,True,stimulusTOSY08_2IFCnew_2019_Jun_18_1224_125,stimulusTOSY08_2IFCnew_2019_Jun_18_1224_126,False,2019_Jun_18_1224,2IFCnew,2,TOSY08,
2IFCnew,63,0,63,0,0.667715200048,4,Yes,12.9,-1,Miss,0.767143300036,True,False,stimulusTOSY08_2IFCnew_2019_Jun_18_1224_127,stimulusTOSY08_2IFCnew_2019_Jun_18_1224_128,False,2019_Jun_18_1224,2IFCnew,2,TOSY08,
2IFCnew,64,0,64,0,0.533998000028,1,No,12.9,-1,Hit,0.735727599997,True,False,stimulusTOSY08_2IFCnew_2019_Jun_18_1224_129,stimulusTOSY08_2IFCnew_2019_Jun_18_1224_130,False,2019_Jun_18_1224,2IFCnew,2,TOSY08,
2IFCnew,65,0,65,0,0.433791499992,2,Yes,12.9,-1,Correct Rejection,0.56854529999,False,True,stimulusTOSY08_2IFCnew_2019_Jun_18_1224_131,stimulusTOSY08_2IFCnew_2019_Jun_18_1224_132,False,2019_Jun_18_1224,2IFCnew,2,TOSY08,
2IFCnew,66,0,66,0,0.467181899992,1,No,12.9,-1,Hit,0.769130300032,True,False,stimulusTOSY08_2IFCnew_2019_Jun_18_1224_133,stimulusTOSY08_2IFCnew_2019_Jun_18_1224_134,False,2019_Jun_18_1224,2IFCnew,2,TOSY08,
2IFCnew,67,0,67,0,-1,0,No,12.9,-1,No Answer,-1,False,True,stimulusTOSY08_2IFCnew_2019_Jun_18_1224_135,stimulusTOSY08_2IFCnew_2019_Jun_18_1224_136,False,2019_Jun_18_1224,2IFCnew,2,TOSY08,
2IFCnew,68,0,68,0,0.333752400009,4,Yes,12.9,-1,Miss,0.567250399967,True,False,stimulusTOSY08_2IFCnew_2019_Jun_18_1224_137,stimulusTOSY08_2IFCnew_2019_Jun_18_1224_138,False,2019_Jun_18_1224,2IFCnew,2,TOSY08,
2IFCnew,69,0,69,0,0.370277300011,2,Yes,12.9,-1,Correct Rejection,0.669755499985,False,True,stimulusTOSY08_2IFCnew_2019_Jun_18_1224_139,stimulusTOSY08_2IFCnew_2019_Jun_18_1224_140,False,2019_Jun_18_1224,2IFCnew,2,TOSY08,
2IFCnew,70,0,70,0,0.366698500002,1,No,12.9,-1,Hit,0.499817499949,True,False,stimulusTOSY08_2IFCnew_2019_Jun_18_1224_141,stimulusTOSY08_2IFCnew_2019_Jun_18_1224_142,False,2019_Jun_18_1224,2IFCnew,2,TOSY08,
2IFCnew,71,0,71,0,0.333940600045,2,Yes,12.9,-1,Correct Rejection,0.500806100026,False,True,stimulusTOSY08_2IFCnew_2019_Jun_18_1224_143,stimulusTOSY08_2IFCnew_2019_Jun_18_1224_144,False,2019_Jun_18_1224,2IFCnew,2,TOSY08,
2IFCnew,72,0,72,0,0.367260499974,2,Yes,12.9,-1,Correct Rejection,0.501453100005,False,True,stimulusTOSY08_2IFCnew_2019_Jun_18_1224_145,stimulusTOSY08_2IFCnew_2019_Jun_18_1224_146,False,2019_Jun_18_1224,2IFCnew,2,TOSY08,
2IFCnew,73,0,73,0,0.333821800014,1,No,12.9,-1,Hit,0.733749200008,True,False,stimulusTOSY08_2IFCnew_2019_Jun_18_1224_147,stimulusTOSY08_2IFCnew_2019_Jun_18_1224_148,False,2019_Jun_18_1224,2IFCnew,2,TOSY08,
2IFCnew,74,0,74,0,0.365695999993,2,Yes,12.9,-1,Correct Rejection,0.600949499989,False,True,stimulusTOSY08_2IFCnew_2019_Jun_18_1224_149,stimulusTOSY08_2IFCnew_2019_Jun_18_1224_150,False,2019_Jun_18_1224,2IFCnew,2,TOSY08,
2IFCnew,0,0,0,0,0.701399400015,1,No,11.7,-1,Hit,0.66759180004,True,False,stimulusTOSY08_2IFCnew_2019_Jun_18_1224_151,stimulusTOSY08_2IFCnew_2019_Jun_18_1224_152,False,2019_Jun_18_1224,2IFCnew,2,TOSY08,
2IFCnew,1,0,1,0,0.333929300017,2,Yes,11.7,-1,Correct Rejection,0.533607400022,False,True,stimulusTOSY08_2IFCnew_2019_Jun_18_1224_153,stimulusTOSY08_2IFCnew_2019_Jun_18_1224_154,False,2019_Jun_18_1224,2IFCnew,2,TOSY08,
2IFCnew,2,0,2,0,0.368390799966,2,Yes,11.7,-1,Correct Rejection,0.534385400009,False,True,stimulusTOSY08_2IFCnew_2019_Jun_18_1224_155,stimulusTOSY08_2IFCnew_2019_Jun_18_1224_156,False,2019_Jun_18_1224,2IFCnew,2,TOSY08,
2IFCnew,3,0,3,0,0.233768600039,1,No,11.7,-1,Hit,0.566754699976,True,False,stimulusTOSY08_2IFCnew_2019_Jun_18_1224_157,stimulusTOSY08_2IFCnew_2019_Jun_18_1224_158,False,2019_Jun_18_1224,2IFCnew,2,TOSY08,
2IFCnew,4,0,4,0,0.300602400035,2,Yes,11.7,-1,Correct Rejection,0.566988000006,False,True,stimulusTOSY08_2IFCnew_2019_Jun_18_1224_159,stimulusTOSY08_2IFCnew_2019_Jun_18_1224_160,False,2019_Jun_18_1224,2IFCnew,2,TOSY08,
2IFCnew,5,0,5,0,0.333864400047,1,No,11.7,-1,Hit,0.533973300015,True,False,stimulusTOSY08_2IFCnew_2019_Jun_18_1224_161,stimulusTOSY08_2IFCnew_2019_Jun_18_1224_162,False,2019_Jun_18_1224,2IFCnew,2,TOSY08,
2IFCnew,6,0,6,0,0.333281299972,2,Yes,11.7,-1,Correct Rejection,0.467020499986,False,True,stimulusTOSY08_2IFCnew_2019_Jun_18_1224_163,stimulusTOSY08_2IFCnew_2019_Jun_18_1224_164,False,2019_Jun_18_1224,2IFCnew,2,TOSY08,
2IFCnew,7,0,7,0,0.233642699954,1,No,11.7,-1,Hit,0.50049820001,True,False,stimulusTOSY08_2IFCnew_2019_Jun_18_1224_165,stimulusTOSY08_2IFCnew_2019_Jun_18_1224_166,False,2019_Jun_18_1224,2IFCnew,2,TOSY08,
2IFCnew,8,0,8,0,0.700709900004,2,Yes,11.7,-1,Correct Rejection,0.567267999984,False,True,stimulusTOSY08_2IFCnew_2019_Jun_18_1224_167,stimulusTOSY08_2IFCnew_2019_Jun_18_1224_168,False,2019_Jun_18_1224,2IFCnew,2,TOSY08,
2IFCnew,9,0,9,0,0.36709049996,2,Yes,11.7,-1,Correct Rejection,0.600761600013,False,True,stimulusTOSY08_2IFCnew_2019_Jun_18_1224_169,stimulusTOSY08_2IFCnew_2019_Jun_18_1224_170,False,2019_Jun_18_1224,2IFCnew,2,TOSY08,
2IFCnew,10,0,10,0,0.336546099978,2,Yes,11.7,-1,Correct Rejection,0.533995900012,False,True,stimulusTOSY08_2IFCnew_2019_Jun_18_1224_171,stimulusTOSY08_2IFCnew_2019_Jun_18_1224_172,False,2019_Jun_18_1224,2IFCnew,2,TOSY08,
2IFCnew,11,0,11,0,0.366932699981,2,Yes,11.7,-1,Correct Rejection,0.466255099978,False,True,stimulusTOSY08_2IFCnew_2019_Jun_18_1224_173,stimulusTOSY08_2IFCnew_2019_Jun_18_1224_174,False,2019_Jun_18_1224,2IFCnew,2,TOSY08,
2IFCnew,12,0,12,0,0.433352100023,2,Yes,11.7,-1,Correct Rejection,0.467569299974,False,True,stimulusTOSY08_2IFCnew_2019_Jun_18_1224_175,stimulusTOSY08_2IFCnew_2019_Jun_18_1224_176,False,2019_Jun_18_1224,2IFCnew,2,TOSY08,
2IFCnew,13,0,13,0,0.300778899982,2,Yes,11.7,-1,Correct Rejection,0.534727799997,False,True,stimulusTOSY08_2IFCnew_2019_Jun_18_1224_177,stimulusTOSY08_2IFCnew_2019_Jun_18_1224_178,False,2019_Jun_18_1224,2IFCnew,2,TOSY08,
2IFCnew,14,0,14,0,0.466403599945,2,Yes,11.7,-1,Correct Rejection,0.534001499997,False,True,stimulusTOSY08_2IFCnew_2019_Jun_18_1224_179,stimulusTOSY08_2IFCnew_2019_Jun_18_1224_180,False,2019_Jun_18_1224,2IFCnew,2,TOSY08,
2IFCnew,15,0,15,0,0.567287800019,3,No,11.7,-1,False Alarm,0.602449800004,False,True,stimulusTOSY08_2IFCnew_2019_Jun_18_1224_181,stimulusTOSY08_2IFCnew_2019_Jun_18_1224_182,False,2019_Jun_18_1224,2IFCnew,2,TOSY08,
2IFCnew,16,0,16,0,0.43385869998,2,Yes,11.7,-1,Correct Rejection,0.566883599968,False,True,stimulusTOSY08_2IFCnew_2019_Jun_18_1224_183,stimulusTOSY08_2IFCnew_2019_Jun_18_1224_184,False,2019_Jun_18_1224,2IFCnew,2,TOSY08,
2IFCnew,17,0,17,0,0.501328599988,2,Yes,11.7,-1,Correct Rejection,0.733829799981,False,True,stimulusTOSY08_2IFCnew_2019_Jun_18_1224_185,stimulusTOSY08_2IFCnew_2019_Jun_18_1224_186,False,2019_Jun_18_1224,2IFCnew,2,TOSY08,
2IFCnew,18,0,18,0,0.500621300016,1,No,11.7,-1,Hit,0.798109500029,True,False,stimulusTOSY08_2IFCnew_2019_Jun_18_1224_187,stimulusTOSY08_2IFCnew_2019_Jun_18_1224_188,False,2019_Jun_18_1224,2IFCnew,2,TOSY08,
2IFCnew,19,0,19,0,0.40028479998,2,Yes,11.7,-1,Correct Rejection,0.666251899966,False,True,stimulusTOSY08_2IFCnew_2019_Jun_18_1224_189,stimulusTOSY08_2IFCnew_2019_Jun_18_1224_190,False,2019_Jun_18_1224,2IFCnew,2,TOSY08,
2IFCnew,20,0,20,0,0.333675600006,1,No,11.7,-1,Hit,0.66753939999,True,False,stimulusTOSY08_2IFCnew_2019_Jun_18_1224_191,stimulusTOSY08_2IFCnew_2019_Jun_18_1224_192,False,2019_Jun_18_1224,2IFCnew,2,TOSY08,
2IFCnew,21,0,21,0,0.567127300019,2,Yes,11.7,-1,Correct Rejection,0.767645200016,False,True,stimulusTOSY08_2IFCnew_2019_Jun_18_1224_193,stimulusTOSY08_2IFCnew_2019_Jun_18_1224_194,False,2019_Jun_18_1224,2IFCnew,2,TOSY08,
2IFCnew,22,0,22,0,0.404437999998,1,No,11.7,-1,Hit,0.668635400012,True,False,stimulusTOSY08_2IFCnew_2019_Jun_18_1224_195,stimulusTOSY08_2IFCnew_2019_Jun_18_1224_196,False,2019_Jun_18_1224,2IFCnew,2,TOSY08,
2IFCnew,23,0,23,0,0.433740199951,1,No,11.7,-1,Hit,0.599369200005,True,False,stimulusTOSY08_2IFCnew_2019_Jun_18_1224_197,stimulusTOSY08_2IFCnew_2019_Jun_18_1224_198,False,2019_Jun_18_1224,2IFCnew,2,TOSY08,
2IFCnew,24,0,24,0,0.300370699959,1,No,11.7,-1,Hit,0.56912890001,True,False,stimulusTOSY08_2IFCnew_2019_Jun_18_1224_199,stimulusTOSY08_2IFCnew_2019_Jun_18_1224_200,False,2019_Jun_18_1224,2IFCnew,2,TOSY08,
2IFCnew,25,0,25,0,0.33364680002,2,Yes,11.7,-1,Correct Rejection,0.565998299979,False,True,stimulusTOSY08_2IFCnew_2019_Jun_18_1224_201,stimulusTOSY08_2IFCnew_2019_Jun_18_1224_202,False,2019_Jun_18_1224,2IFCnew,2,TOSY08,
2IFCnew,26,0,26,0,0.467960899987,2,Yes,11.7,-1,Correct Rejection,0.801270600001,False,True,stimulusTOSY08_2IFCnew_2019_Jun_18_1224_203,stimulusTOSY08_2IFCnew_2019_Jun_18_1224_204,False,2019_Jun_18_1224,2IFCnew,2,TOSY08,
2IFCnew,27,0,27,0,0.366837400012,1,No,11.7,-1,Hit,0.500185800018,True,False,stimulusTOSY08_2IFCnew_2019_Jun_18_1224_205,stimulusTOSY08_2IFCnew_2019_Jun_18_1224_206,False,2019_Jun_18_1224,2IFCnew,2,TOSY08,
2IFCnew,28,0,28,0,0.46697780001,3,No,11.7,-1,False Alarm,0.500661900034,False,True,stimulusTOSY08_2IFCnew_2019_Jun_18_1224_207,stimulusTOSY08_2IFCnew_2019_Jun_18_1224_208,False,2019_Jun_18_1224,2IFCnew,2,TOSY08,
2IFCnew,29,0,29,0,0.433854399947,1,No,11.7,-1,Hit,0.700707999989,True,False,stimulusTOSY08_2IFCnew_2019_Jun_18_1224_209,stimulusTOSY08_2IFCnew_2019_Jun_18_1224_210,False,2019_Jun_18_1224,2IFCnew,2,TOSY08,
2IFCnew,30,0,30,0,0.434002400027,1,No,11.7,-1,Hit,0.600482799986,True,False,stimulusTOSY08_2IFCnew_2019_Jun_18_1224_211,stimulusTOSY08_2IFCnew_2019_Jun_18_1224_212,False,2019_Jun_18_1224,2IFCnew,2,TOSY08,
2IFCnew,31,0,31,0,0.298305700009,2,Yes,11.7,-1,Correct Rejection,0.6334241,False,True,stimulusTOSY08_2IFCnew_2019_Jun_18_1224_213,stimulusTOSY08_2IFCnew_2019_Jun_18_1224_214,False,2019_Jun_18_1224,2IFCnew,2,TOSY08,
2IFCnew,32,0,32,0,0.267048500013,1,No,11.7,-1,Hit,0.533692099969,True,False,stimulusTOSY08_2IFCnew_2019_Jun_18_1224_215,stimulusTOSY08_2IFCnew_2019_Jun_18_1224_216,False,2019_Jun_18_1224,2IFCnew,2,TOSY08,
2IFCnew,33,0,33,0,0.334270300053,1,No,11.7,-1,Hit,0.50064719998,True,False,stimulusTOSY08_2IFCnew_2019_Jun_18_1224_217,stimulusTOSY08_2IFCnew_2019_Jun_18_1224_218,False,2019_Jun_18_1224,2IFCnew,2,TOSY08,
2IFCnew,34,0,34,0,0.533818800002,5,Yes,11.7,-1,False Alarm,0.600872200041,False,True,stimulusTOSY08_2IFCnew_2019_Jun_18_1224_219,stimulusTOSY08_2IFCnew_2019_Jun_18_1224_220,False,2019_Jun_18_1224,2IFCnew,2,TOSY08,
2IFCnew,35,0,35,0,0.36723600002,1,No,11.7,-1,Hit,0.467806500033,True,False,stimulusTOSY08_2IFCnew_2019_Jun_18_1224_221,stimulusTOSY08_2IFCnew_2019_Jun_18_1224_222,False,2019_Jun_18_1224,2IFCnew,2,TOSY08,
2IFCnew,36,0,36,0,0.301044099964,1,No,11.7,-1,Hit,0.467182399996,True,False,stimulusTOSY08_2IFCnew_2019_Jun_18_1224_223,stimulusTOSY08_2IFCnew_2019_Jun_18_1224_224,False,2019_Jun_18_1224,2IFCnew,2,TOSY08,
2IFCnew,37,0,37,0,0.367147799989,5,Yes,11.7,-1,False Alarm,0.700326299993,False,True,stimulusTOSY08_2IFCnew_2019_Jun_18_1224_225,stimulusTOSY08_2IFCnew_2019_Jun_18_1224_226,False,2019_Jun_18_1224,2IFCnew,2,TOSY08,
2IFCnew,38,0,38,0,0.400373199955,1,No,11.7,-1,Hit,0.501205099979,True,False,stimulusTOSY08_2IFCnew_2019_Jun_18_1224_227,stimulusTOSY08_2IFCnew_2019_Jun_18_1224_228,False,2019_Jun_18_1224,2IFCnew,2,TOSY08,
2IFCnew,39,0,39,0,0.333780099987,1,No,11.7,-1,Hit,0.433836499986,True,False,stimulusTOSY08_2IFCnew_2019_Jun_18_1224_229,stimulusTOSY08_2IFCnew_2019_Jun_18_1224_230,False,2019_Jun_18_1224,2IFCnew,2,TOSY08,
2IFCnew,40,0,40,0,0.400885400013,1,No,11.7,-1,Hit,0.500722099969,True,False,stimulusTOSY08_2IFCnew_2019_Jun_18_1224_231,stimulusTOSY08_2IFCnew_2019_Jun_18_1224_232,False,2019_Jun_18_1224,2IFCnew,2,TOSY08,
2IFCnew,41,0,41,0,0.333140900009,5,Yes,11.7,-1,False Alarm,0.400387800008,False,True,stimulusTOSY08_2IFCnew_2019_Jun_18_1224_233,stimulusTOSY08_2IFCnew_2019_Jun_18_1224_234,False,2019_Jun_18_1224,2IFCnew,2,TOSY08,
2IFCnew,42,0,42,0,0.300554300018,2,Yes,11.7,-1,Correct Rejection,0.634258400009,False,True,stimulusTOSY08_2IFCnew_2019_Jun_18_1224_235,stimulusTOSY08_2IFCnew_2019_Jun_18_1224_236,False,2019_Jun_18_1224,2IFCnew,2,TOSY08,
2IFCnew,43,0,43,0,0.400171999994,1,No,11.7,-1,Hit,0.567899000016,True,False,stimulusTOSY08_2IFCnew_2019_Jun_18_1224_237,stimulusTOSY08_2IFCnew_2019_Jun_18_1224_238,False,2019_Jun_18_1224,2IFCnew,2,TOSY08,
2IFCnew,44,0,44,0,0.532850600022,2,Yes,11.7,-1,Correct Rejection,0.700895300019,False,True,stimulusTOSY08_2IFCnew_2019_Jun_18_1224_239,stimulusTOSY08_2IFCnew_2019_Jun_18_1224_240,False,2019_Jun_18_1224,2IFCnew,2,TOSY08,
2IFCnew,45,0,45,0,0.367138400034,2,Yes,11.7,-1,Correct Rejection,0.731657499971,False,True,stimulusTOSY08_2IFCnew_2019_Jun_18_1224_241,stimulusTOSY08_2IFCnew_2019_Jun_18_1224_242,False,2019_Jun_18_1224,2IFCnew,2,TOSY08,
2IFCnew,46,0,46,0,0.43374529999,2,Yes,11.7,-1,Correct Rejection,0.666803399974,False,True,stimulusTOSY08_2IFCnew_2019_Jun_18_1224_243,stimulusTOSY08_2IFCnew_2019_Jun_18_1224_244,False,2019_Jun_18_1224,2IFCnew,2,TOSY08,
2IFCnew,47,0,47,0,0.735074799974,6,No,11.7,-1,Miss,0.603147900023,True,False,stimulusTOSY08_2IFCnew_2019_Jun_18_1224_245,stimulusTOSY08_2IFCnew_2019_Jun_18_1224_246,False,2019_Jun_18_1224,2IFCnew,2,TOSY08,
2IFCnew,48,0,48,0,-1,0,No,11.7,-1,No Answer,-1,False,True,stimulusTOSY08_2IFCnew_2019_Jun_18_1224_247,stimulusTOSY08_2IFCnew_2019_Jun_18_1224_248,False,2019_Jun_18_1224,2IFCnew,2,TOSY08,
2IFCnew,49,0,49,0,0.400761999947,6,No,11.7,-1,Miss,0.433992399951,True,False,stimulusTOSY08_2IFCnew_2019_Jun_18_1224_249,stimulusTOSY08_2IFCnew_2019_Jun_18_1224_250,False,2019_Jun_18_1224,2IFCnew,2,TOSY08,
2IFCnew,50,0,50,0,0.199989500048,2,Yes,11.7,-1,Correct Rejection,0.434542700008,False,True,stimulusTOSY08_2IFCnew_2019_Jun_18_1224_251,stimulusTOSY08_2IFCnew_2019_Jun_18_1224_252,False,2019_Jun_18_1224,2IFCnew,2,TOSY08,
2IFCnew,51,0,51,0,0.465683399991,2,Yes,11.7,-1,Correct Rejection,0.602255300037,False,True,stimulusTOSY08_2IFCnew_2019_Jun_18_1224_253,stimulusTOSY08_2IFCnew_2019_Jun_18_1224_254,False,2019_Jun_18_1224,2IFCnew,2,TOSY08,
2IFCnew,52,0,52,0,0.567404200032,2,Yes,11.7,-1,Correct Rejection,0.500638600031,False,True,stimulusTOSY08_2IFCnew_2019_Jun_18_1224_255,stimulusTOSY08_2IFCnew_2019_Jun_18_1224_256,False,2019_Jun_18_1224,2IFCnew,2,TOSY08,
2IFCnew,53,0,53,0,0.300382400048,2,Yes,11.7,-1,Correct Rejection,0.500685400038,False,True,stimulusTOSY08_2IFCnew_2019_Jun_18_1224_257,stimulusTOSY08_2IFCnew_2019_Jun_18_1224_258,False,2019_Jun_18_1224,2IFCnew,2,TOSY08,
2IFCnew,54,0,54,0,0.400740800018,4,Yes,11.7,-1,Miss,0.53352690005,True,False,stimulusTOSY08_2IFCnew_2019_Jun_18_1224_259,stimulusTOSY08_2IFCnew_2019_Jun_18_1224_260,False,2019_Jun_18_1224,2IFCnew,2,TOSY08,
2IFCnew,55,0,55,0,0.433604600024,1,No,11.7,-1,Hit,0.600661000004,True,False,stimulusTOSY08_2IFCnew_2019_Jun_18_1224_261,stimulusTOSY08_2IFCnew_2019_Jun_18_1224_262,False,2019_Jun_18_1224,2IFCnew,2,TOSY08,
2IFCnew,56,0,56,0,0.500445400015,2,Yes,11.7,-1,Correct Rejection,0.533875600027,False,True,stimulusTOSY08_2IFCnew_2019_Jun_18_1224_263,stimulusTOSY08_2IFCnew_2019_Jun_18_1224_264,False,2019_Jun_18_1224,2IFCnew,2,TOSY08,
2IFCnew,57,0,57,0,0.468493099965,1,No,11.7,-1,Hit,0.66888979997,True,False,stimulusTOSY08_2IFCnew_2019_Jun_18_1224_265,stimulusTOSY08_2IFCnew_2019_Jun_18_1224_266,False,2019_Jun_18_1224,2IFCnew,2,TOSY08,
2IFCnew,58,0,58,0,0.300190299982,1,No,11.7,-1,Hit,0.703121499973,True,False,stimulusTOSY08_2IFCnew_2019_Jun_18_1224_267,stimulusTOSY08_2IFCnew_2019_Jun_18_1224_268,False,2019_Jun_18_1224,2IFCnew,2,TOSY08,
2IFCnew,59,0,59,0,0.334005000012,1,No,11.7,-1,Hit,0.633941999986,True,False,stimulusTOSY08_2IFCnew_2019_Jun_18_1224_269,stimulusTOSY08_2IFCnew_2019_Jun_18_1224_270,False,2019_Jun_18_1224,2IFCnew,2,TOSY08,
2IFCnew,60,0,60,0,0.668053300004,5,Yes,11.7,-1,False Alarm,0.433772900025,False,True,stimulusTOSY08_2IFCnew_2019_Jun_18_1224_271,stimulusTOSY08_2IFCnew_2019_Jun_18_1224_272,False,2019_Jun_18_1224,2IFCnew,2,TOSY08,
2IFCnew,61,0,61,0,0.634074000001,2,Yes,11.7,-1,Correct Rejection,0.666750599979,False,True,stimulusTOSY08_2IFCnew_2019_Jun_18_1224_273,stimulusTOSY08_2IFCnew_2019_Jun_18_1224_274,False,2019_Jun_18_1224,2IFCnew,2,TOSY08,
2IFCnew,62,0,62,0,0.600950000051,2,Yes,11.7,-1,Correct Rejection,0.533796400006,False,True,stimulusTOSY08_2IFCnew_2019_Jun_18_1224_275,stimulusTOSY08_2IFCnew_2019_Jun_18_1224_276,False,2019_Jun_18_1224,2IFCnew,2,TOSY08,
2IFCnew,63,0,63,0,0.300394500024,2,Yes,11.7,-1,Correct Rejection,0.700707799988,False,True,stimulusTOSY08_2IFCnew_2019_Jun_18_1224_277,stimulusTOSY08_2IFCnew_2019_Jun_18_1224_278,False,2019_Jun_18_1224,2IFCnew,2,TOSY08,
2IFCnew,64,0,64,0,0.299387699983,1,No,11.7,-1,Hit,0.533291200001,True,False,stimulusTOSY08_2IFCnew_2019_Jun_18_1224_279,stimulusTOSY08_2IFCnew_2019_Jun_18_1224_280,False,2019_Jun_18_1224,2IFCnew,2,TOSY08,
2IFCnew,65,0,65,0,0.267015299993,1,No,11.7,-1,Hit,0.433673699968,True,False,stimulusTOSY08_2IFCnew_2019_Jun_18_1224_281,stimulusTOSY08_2IFCnew_2019_Jun_18_1224_282,False,2019_Jun_18_1224,2IFCnew,2,TOSY08,
2IFCnew,66,0,66,0,0.200398900022,1,No,11.7,-1,Hit,0.400427199958,True,False,stimulusTOSY08_2IFCnew_2019_Jun_18_1224_283,stimulusTOSY08_2IFCnew_2019_Jun_18_1224_284,False,2019_Jun_18_1224,2IFCnew,2,TOSY08,
2IFCnew,67,0,67,0,0.366501000011,1,No,11.7,-1,Hit,0.467208599963,True,False,stimulusTOSY08_2IFCnew_2019_Jun_18_1224_285,stimulusTOSY08_2IFCnew_2019_Jun_18_1224_286,False,2019_Jun_18_1224,2IFCnew,2,TOSY08,
2IFCnew,68,0,68,0,0.333647700027,2,Yes,11.7,-1,Correct Rejection,0.667919499974,False,True,stimulusTOSY08_2IFCnew_2019_Jun_18_1224_287,stimulusTOSY08_2IFCnew_2019_Jun_18_1224_288,False,2019_Jun_18_1224,2IFCnew,2,TOSY08,
2IFCnew,69,0,69,0,0.367110399995,1,No,11.7,-1,Hit,0.500401600031,True,False,stimulusTOSY08_2IFCnew_2019_Jun_18_1224_289,stimulusTOSY08_2IFCnew_2019_Jun_18_1224_290,False,2019_Jun_18_1224,2IFCnew,2,TOSY08,
2IFCnew,70,0,70,0,0.467046500009,1,No,11.7,-1,Hit,0.633934799989,True,False,stimulusTOSY08_2IFCnew_2019_Jun_18_1224_291,stimulusTOSY08_2IFCnew_2019_Jun_18_1224_292,False,2019_Jun_18_1224,2IFCnew,2,TOSY08,
2IFCnew,71,0,71,0,0.298686599999,1,No,11.7,-1,Hit,0.53387069999,True,False,stimulusTOSY08_2IFCnew_2019_Jun_18_1224_293,stimulusTOSY08_2IFCnew_2019_Jun_18_1224_294,False,2019_Jun_18_1224,2IFCnew,2,TOSY08,
2IFCnew,72,0,72,0,0.30048700003,1,No,11.7,-1,Hit,0.433985500014,True,False,stimulusTOSY08_2IFCnew_2019_Jun_18_1224_295,stimulusTOSY08_2IFCnew_2019_Jun_18_1224_296,False,2019_Jun_18_1224,2IFCnew,2,TOSY08,
2IFCnew,73,0,73,0,0.666950099985,5,Yes,11.7,-1,False Alarm,0.500178499962,False,True,stimulusTOSY08_2IFCnew_2019_Jun_18_1224_297,stimulusTOSY08_2IFCnew_2019_Jun_18_1224_298,False,2019_Jun_18_1224,2IFCnew,2,TOSY08,
2IFCnew,74,0,74,0,0.366917100037,1,No,11.7,-1,Hit,0.533788700006,True,False,stimulusTOSY08_2IFCnew_2019_Jun_18_1224_299,stimulusTOSY08_2IFCnew_2019_Jun_18_1224_300,False,2019_Jun_18_1224,2IFCnew,2,TOSY08,
2IFCnew,0,0,0,0,-1,0,No,6.5,-1,No Answer,-1,True,False,stimulusTOSY08_2IFCnew_2019_Jun_18_1224_301,stimulusTOSY08_2IFCnew_2019_Jun_18_1224_302,False,2019_Jun_18_1224,2IFCnew,2,TOSY08,
2IFCnew,1,0,1,0,0.567516100011,8,No,6.5,-1,Correct Rejection,0.533987800009,False,True,stimulusTOSY08_2IFCnew_2019_Jun_18_1224_303,stimulusTOSY08_2IFCnew_2019_Jun_18_1224_304,False,2019_Jun_18_1224,2IFCnew,2,TOSY08,
2IFCnew,2,0,2,0,0.333461100003,2,Yes,6.5,-1,Correct Rejection,0.600463799958,False,True,stimulusTOSY08_2IFCnew_2019_Jun_18_1224_305,stimulusTOSY08_2IFCnew_2019_Jun_18_1224_306,False,2019_Jun_18_1224,2IFCnew,2,TOSY08,
2IFCnew,3,0,3,0,0.46720210003,8,No,6.5,-1,Correct Rejection,0.567258400028,False,True,stimulusTOSY08_2IFCnew_2019_Jun_18_1224_307,stimulusTOSY08_2IFCnew_2019_Jun_18_1224_308,False,2019_Jun_18_1224,2IFCnew,2,TOSY08,
2IFCnew,4,0,4,0,0.400107300025,4,Yes,6.5,-1,Miss,0.56673250004,True,False,stimulusTOSY08_2IFCnew_2019_Jun_18_1224_309,stimulusTOSY08_2IFCnew_2019_Jun_18_1224_310,False,2019_Jun_18_1224,2IFCnew,2,TOSY08,
2IFCnew,5,0,5,0,0.300548000028,3,No,6.5,-1,False Alarm,0.601224599988,False,True,stimulusTOSY08_2IFCnew_2019_Jun_18_1224_311,stimulusTOSY08_2IFCnew_2019_Jun_18_1224_312,False,2019_Jun_18_1224,2IFCnew,2,TOSY08,
2IFCnew,6,0,6,0,0.367313100025,4,Yes,6.5,-1,Miss,0.600582599989,True,False,stimulusTOSY08_2IFCnew_2019_Jun_18_1224_313,stimulusTOSY08_2IFCnew_2019_Jun_18_1224_314,False,2019_Jun_18_1224,2IFCnew,2,TOSY08,
2IFCnew,7,0,7,0,-1,0,Yes,6.5,-1,No Answer,-1,False,True,stimulusTOSY08_2IFCnew_2019_Jun_18_1224_315,stimulusTOSY08_2IFCnew_2019_Jun_18_1224_316,False,2019_Jun_18_1224,2IFCnew,2,TOSY08,
2IFCnew,8,0,8,0,0.367063400045,2,Yes,6.5,-1,Correct Rejection,0.400485699996,False,True,stimulusTOSY08_2IFCnew_2019_Jun_18_1224_317,stimulusTOSY08_2IFCnew_2019_Jun_18_1224_318,False,2019_Jun_18_1224,2IFCnew,2,TOSY08,
2IFCnew,9,0,9,0,0.5334668,2,Yes,6.5,-1,Correct Rejection,0.467176400009,False,True,stimulusTOSY08_2IFCnew_2019_Jun_18_1224_319,stimulusTOSY08_2IFCnew_2019_Jun_18_1224_320,False,2019_Jun_18_1224,2IFCnew,2,TOSY08,
2IFCnew,10,0,10,0,0.433565099956,2,Yes,6.5,-1,Correct Rejection,0.534965300001,False,True,stimulusTOSY08_2IFCnew_2019_Jun_18_1224_321,stimulusTOSY08_2IFCnew_2019_Jun_18_1224_322,False,2019_Jun_18_1224,2IFCnew,2,TOSY08,
2IFCnew,11,0,11,0,0.333111600019,4,Yes,6.5,-1,Miss,0.46702109999,True,False,stimulusTOSY08_2IFCnew_2019_Jun_18_1224_323,stimulusTOSY08_2IFCnew_2019_Jun_18_1224_324,False,2019_Jun_18_1224,2IFCnew,2,TOSY08,
2IFCnew,12,0,12,0,0.400418100005,2,Yes,6.5,-1,Correct Rejection,0.70060000004,False,True,stimulusTOSY08_2IFCnew_2019_Jun_18_1224_325,stimulusTOSY08_2IFCnew_2019_Jun_18_1224_326,False,2019_Jun_18_1224,2IFCnew,2,TOSY08,
2IFCnew,13,0,13,0,0.467052599997,2,Yes,6.5,-1,Correct Rejection,0.667766399973,False,True,stimulusTOSY08_2IFCnew_2019_Jun_18_1224_327,stimulusTOSY08_2IFCnew_2019_Jun_18_1224_328,False,2019_Jun_18_1224,2IFCnew,2,TOSY08,
2IFCnew,14,0,14,0,0.467135899991,2,Yes,6.5,-1,Correct Rejection,0.532692800043,False,True,stimulusTOSY08_2IFCnew_2019_Jun_18_1224_329,stimulusTOSY08_2IFCnew_2019_Jun_18_1224_330,False,2019_Jun_18_1224,2IFCnew,2,TOSY08,
2IFCnew,15,0,15,0,0.533811100002,3,No,6.5,-1,False Alarm,0.900947800023,False,True,stimulusTOSY08_2IFCnew_2019_Jun_18_1224_331,stimulusTOSY08_2IFCnew_2019_Jun_18_1224_332,False,2019_Jun_18_1224,2IFCnew,2,TOSY08,
2IFCnew,16,0,16,0,0.300557599985,4,Yes,6.5,-1,Miss,0.50076570001,True,False,stimulusTOSY08_2IFCnew_2019_Jun_18_1224_333,stimulusTOSY08_2IFCnew_2019_Jun_18_1224_334,False,2019_Jun_18_1224,2IFCnew,2,TOSY08,
2IFCnew,17,0,17,0,0.533539199969,5,Yes,6.5,-1,False Alarm,0.600807999959,False,True,stimulusTOSY08_2IFCnew_2019_Jun_18_1224_335,stimulusTOSY08_2IFCnew_2019_Jun_18_1224_336,False,2019_Jun_18_1224,2IFCnew,2,TOSY08,
2IFCnew,18,0,18,0,0.400564600015,2,Yes,6.5,-1,Correct Rejection,0.5341931,False,True,stimulusTOSY08_2IFCnew_2019_Jun_18_1224_337,stimulusTOSY08_2IFCnew_2019_Jun_18_1224_338,False,2019_Jun_18_1224,2IFCnew,2,TOSY08,
2IFCnew,19,0,19,0,0.333880999999,2,Yes,6.5,-1,Correct Rejection,0.533957899956,False,True,stimulusTOSY08_2IFCnew_2019_Jun_18_1224_339,stimulusTOSY08_2IFCnew_2019_Jun_18_1224_340,False,2019_Jun_18_1224,2IFCnew,2,TOSY08,
2IFCnew,20,0,20,0,0.366447200009,2,Yes,6.5,-1,Correct Rejection,0.533287599974,False,True,stimulusTOSY08_2IFCnew_2019_Jun_18_1224_341,stimulusTOSY08_2IFCnew_2019_Jun_18_1224_342,False,2019_Jun_18_1224,2IFCnew,2,TOSY08,
2IFCnew,21,0,21,0,0.833915100025,4,Yes,6.5,-1,Miss,0.567457699974,True,False,stimulusTOSY08_2IFCnew_2019_Jun_18_1224_343,stimulusTOSY08_2IFCnew_2019_Jun_18_1224_344,False,2019_Jun_18_1224,2IFCnew,2,TOSY08,
2IFCnew,22,0,22,0,0.40063769999,1,No,6.5,-1,Hit,0.568123799982,True,False,stimulusTOSY08_2IFCnew_2019_Jun_18_1224_345,stimulusTOSY08_2IFCnew_2019_Jun_18_1224_346,False,2019_Jun_18_1224,2IFCnew,2,TOSY08,
2IFCnew,23,0,23,0,0.39981209999,1,No,6.5,-1,Hit,0.766917100002,True,False,stimulusTOSY08_2IFCnew_2019_Jun_18_1224_347,stimulusTOSY08_2IFCnew_2019_Jun_18_1224_348,False,2019_Jun_18_1224,2IFCnew,2,TOSY08,
2IFCnew,24,0,24,0,0.533841500001,1,No,6.5,-1,Hit,0.600042300008,True,False,stimulusTOSY08_2IFCnew_2019_Jun_18_1224_349,stimulusTOSY08_2IFCnew_2019_Jun_18_1224_350,False,2019_Jun_18_1224,2IFCnew,2,TOSY08,
2IFCnew,25,0,25,0,0.434014400002,3,No,6.5,-1,False Alarm,0.667511800013,False,True,stimulusTOSY08_2IFCnew_2019_Jun_18_1224_351,stimulusTOSY08_2IFCnew_2019_Jun_18_1224_352,False,2019_Jun_18_1224,2IFCnew,2,TOSY08,
2IFCnew,26,0,26,0,0.333737000008,4,Yes,6.5,-1,Miss,0.566982100019,True,False,stimulusTOSY08_2IFCnew_2019_Jun_18_1224_353,stimulusTOSY08_2IFCnew_2019_Jun_18_1224_354,False,2019_Jun_18_1224,2IFCnew,2,TOSY08,
2IFCnew,27,0,27,0,0.567138400045,1,No,6.5,-1,Hit,0.634374500019,True,False,stimulusTOSY08_2IFCnew_2019_Jun_18_1224_355,stimulusTOSY08_2IFCnew_2019_Jun_18_1224_356,False,2019_Jun_18_1224,2IFCnew,2,TOSY08,
2IFCnew,28,0,28,0,0.600648300024,2,Yes,6.5,-1,Correct Rejection,0.800960400025,False,True,stimulusTOSY08_2IFCnew_2019_Jun_18_1224_357,stimulusTOSY08_2IFCnew_2019_Jun_18_1224_358,False,2019_Jun_18_1224,2IFCnew,2,TOSY08,
2IFCnew,29,0,29,0,0.467942400021,2,Yes,6.5,-1,Correct Rejection,0.667094399978,False,True,stimulusTOSY08_2IFCnew_2019_Jun_18_1224_359,stimulusTOSY08_2IFCnew_2019_Jun_18_1224_360,False,2019_Jun_18_1224,2IFCnew,2,TOSY08,
2IFCnew,30,0,30,0,0.466754900001,2,Yes,6.5,-1,Correct Rejection,0.635044499999,False,True,stimulusTOSY08_2IFCnew_2019_Jun_18_1224_361,stimulusTOSY08_2IFCnew_2019_Jun_18_1224_362,False,2019_Jun_18_1224,2IFCnew,2,TOSY08,
2IFCnew,31,0,31,0,0.500489900005,2,Yes,6.5,-1,Correct Rejection,0.601820899989,False,True,stimulusTOSY08_2IFCnew_2019_Jun_18_1224_363,stimulusTOSY08_2IFCnew_2019_Jun_18_1224_364,False,2019_Jun_18_1224,2IFCnew,2,TOSY08,
2IFCnew,32,0,32,0,0.700738300045,6,No,6.5,-1,Miss,0.56738610001,True,False,stimulusTOSY08_2IFCnew_2019_Jun_18_1224_365,stimulusTOSY08_2IFCnew_2019_Jun_18_1224_366,False,2019_Jun_18_1224,2IFCnew,2,TOSY08,
2IFCnew,33,0,33,0,0.46720189997,1,No,6.5,-1,Hit,0.767568700016,True,False,stimulusTOSY08_2IFCnew_2019_Jun_18_1224_367,stimulusTOSY08_2IFCnew_2019_Jun_18_1224_368,False,2019_Jun_18_1224,2IFCnew,2,TOSY08,
2IFCnew,34,0,34,0,0.500549100048,3,No,6.5,-1,False Alarm,0.734271000023,False,True,stimulusTOSY08_2IFCnew_2019_Jun_18_1224_369,stimulusTOSY08_2IFCnew_2019_Jun_18_1224_370,False,2019_Jun_18_1224,2IFCnew,2,TOSY08,
2IFCnew,35,0,35,0,0.533973500016,4,Yes,6.5,-1,Miss,0.634231999982,True,False,stimulusTOSY08_2IFCnew_2019_Jun_18_1224_371,stimulusTOSY08_2IFCnew_2019_Jun_18_1224_372,False,2019_Jun_18_1224,2IFCnew,2,TOSY08,
2IFCnew,36,0,36,0,0.635053999955,2,Yes,6.5,-1,Correct Rejection,0.60067449999,False,True,stimulusTOSY08_2IFCnew_2019_Jun_18_1224_373,stimulusTOSY08_2IFCnew_2019_Jun_18_1224_374,False,2019_Jun_18_1224,2IFCnew,2,TOSY08,
2IFCnew,37,0,37,0,0.633948999981,2,Yes,6.5,-1,Correct Rejection,0.6000336,False,True,stimulusTOSY08_2IFCnew_2019_Jun_18_1224_375,stimulusTOSY08_2IFCnew_2019_Jun_18_1224_376,False,2019_Jun_18_1224,2IFCnew,2,TOSY08,
2IFCnew,38,0,38,0,0.367189500015,1,No,6.5,-1,Hit,0.534048299945,True,False,stimulusTOSY08_2IFCnew_2019_Jun_18_1224_377,stimulusTOSY08_2IFCnew_2019_Jun_18_1224_378,False,2019_Jun_18_1224,2IFCnew,2,TOSY08,
2IFCnew,39,0,39,0,0.333800500026,2,Yes,6.5,-1,Correct Rejection,0.60058530001,False,True,stimulusTOSY08_2IFCnew_2019_Jun_18_1224_379,stimulusTOSY08_2IFCnew_2019_Jun_18_1224_380,False,2019_Jun_18_1224,2IFCnew,2,TOSY08,
2IFCnew,40,0,40,0,0.333977500035,1,No,6.5,-1,Hit,0.634316299984,True,False,stimulusTOSY08_2IFCnew_2019_Jun_18_1224_381,stimulusTOSY08_2IFCnew_2019_Jun_18_1224_382,False,2019_Jun_18_1224,2IFCnew,2,TOSY08,
2IFCnew,41,0,41,0,0.366305999982,1,No,6.5,-1,Hit,0.500868999981,True,False,stimulusTOSY08_2IFCnew_2019_Jun_18_1224_383,stimulusTOSY08_2IFCnew_2019_Jun_18_1224_384,False,2019_Jun_18_1224,2IFCnew,2,TOSY08,
2IFCnew,42,0,42,0,0.26731570001,2,Yes,6.5,-1,Correct Rejection,0.600636599993,False,True,stimulusTOSY08_2IFCnew_2019_Jun_18_1224_385,stimulusTOSY08_2IFCnew_2019_Jun_18_1224_386,False,2019_Jun_18_1224,2IFCnew,2,TOSY08,
2IFCnew,43,0,43,0,0.334172200004,1,No,6.5,-1,Hit,0.500539099972,True,False,stimulusTOSY08_2IFCnew_2019_Jun_18_1224_387,stimulusTOSY08_2IFCnew_2019_Jun_18_1224_388,False,2019_Jun_18_1224,2IFCnew,2,TOSY08,
2IFCnew,44,0,44,0,0.367114200024,1,No,6.5,-1,Hit,0.567944500013,True,False,stimulusTOSY08_2IFCnew_2019_Jun_18_1224_389,stimulusTOSY08_2IFCnew_2019_Jun_18_1224_390,False,2019_Jun_18_1224,2IFCnew,2,TOSY08,
2IFCnew,45,0,45,0,0.533885399986,3,No,6.5,-1,False Alarm,0.46692669997,False,True,stimulusTOSY08_2IFCnew_2019_Jun_18_1224_391,stimulusTOSY08_2IFCnew_2019_Jun_18_1224_392,False,2019_Jun_18_1224,2IFCnew,2,TOSY08,
2IFCnew,46,0,46,0,0.433908000006,2,Yes,6.5,-1,Correct Rejection,0.700545999978,False,True,stimulusTOSY08_2IFCnew_2019_Jun_18_1224_393,stimulusTOSY08_2IFCnew_2019_Jun_18_1224_394,False,2019_Jun_18_1224,2IFCnew,2,TOSY08,
2IFCnew,47,0,47,0,0.300671700039,1,No,6.5,-1,Hit,0.46799590002,True,False,stimulusTOSY08_2IFCnew_2019_Jun_18_1224_395,stimulusTOSY08_2IFCnew_2019_Jun_18_1224_396,False,2019_Jun_18_1224,2IFCnew,2,TOSY08,
2IFCnew,48,0,48,0,0.300973899954,3,No,6.5,-1,False Alarm,0.434115200012,False,True,stimulusTOSY08_2IFCnew_2019_Jun_18_1224_397,stimulusTOSY08_2IFCnew_2019_Jun_18_1224_398,False,2019_Jun_18_1224,2IFCnew,2,TOSY08,
2IFCnew,49,0,49,0,0.267274599988,4,Yes,6.5,-1,Miss,0.367301299993,True,False,stimulusTOSY08_2IFCnew_2019_Jun_18_1224_399,stimulusTOSY08_2IFCnew_2019_Jun_18_1224_400,False,2019_Jun_18_1224,2IFCnew,2,TOSY08,
2IFCnew,50,0,50,0,0.534151399974,1,No,6.5,-1,Hit,0.735292900004,True,False,stimulusTOSY08_2IFCnew_2019_Jun_18_1224_401,stimulusTOSY08_2IFCnew_2019_Jun_18_1224_402,False,2019_Jun_18_1224,2IFCnew,2,TOSY08,
2IFCnew,51,0,51,0,0.200372199994,1,No,6.5,-1,Hit,0.534299299994,True,False,stimulusTOSY08_2IFCnew_2019_Jun_18_1224_403,stimulusTOSY08_2IFCnew_2019_Jun_18_1224_404,False,2019_Jun_18_1224,2IFCnew,2,TOSY08,
2IFCnew,52,0,52,0,0.400389300019,1,No,6.5,-1,Hit,0.700126599986,True,False,stimulusTOSY08_2IFCnew_2019_Jun_18_1224_405,stimulusTOSY08_2IFCnew_2019_Jun_18_1224_406,False,2019_Jun_18_1224,2IFCnew,2,TOSY08,
2IFCnew,53,0,53,0,0.300486100023,4,Yes,6.5,-1,Miss,0.701534099993,True,False,stimulusTOSY08_2IFCnew_2019_Jun_18_1224_407,stimulusTOSY08_2IFCnew_2019_Jun_18_1224_408,False,2019_Jun_18_1224,2IFCnew,2,TOSY08,
2IFCnew,54,0,54,0,0.300411199976,3,No,6.5,-1,False Alarm,0.567468900001,False,True,stimulusTOSY08_2IFCnew_2019_Jun_18_1224_409,stimulusTOSY08_2IFCnew_2019_Jun_18_1224_410,False,2019_Jun_18_1224,2IFCnew,2,TOSY08,
2IFCnew,55,0,55,0,0.333638400014,1,No,6.5,-1,Hit,0.533183399995,True,False,stimulusTOSY08_2IFCnew_2019_Jun_18_1224_411,stimulusTOSY08_2IFCnew_2019_Jun_18_1224_412,False,2019_Jun_18_1224,2IFCnew,2,TOSY08,
2IFCnew,56,0,56,0,0.333750400052,2,Yes,6.5,-1,Correct Rejection,0.567216299998,False,True,stimulusTOSY08_2IFCnew_2019_Jun_18_1224_413,stimulusTOSY08_2IFCnew_2019_Jun_18_1224_414,False,2019_Jun_18_1224,2IFCnew,2,TOSY08,
2IFCnew,57,0,57,0,0.599364800029,3,No,6.5,-1,False Alarm,0.600870100025,False,True,stimulusTOSY08_2IFCnew_2019_Jun_18_1224_415,stimulusTOSY08_2IFCnew_2019_Jun_18_1224_416,False,2019_Jun_18_1224,2IFCnew,2,TOSY08,
2IFCnew,58,0,58,0,0.333716599969,1,No,6.5,-1,Hit,0.6007828,True,False,stimulusTOSY08_2IFCnew_2019_Jun_18_1224_417,stimulusTOSY08_2IFCnew_2019_Jun_18_1224_418,False,2019_Jun_18_1224,2IFCnew,2,TOSY08,
2IFCnew,59,0,59,0,0.333850499999,1,No,6.5,-1,Hit,0.601266299956,True,False,stimulusTOSY08_2IFCnew_2019_Jun_18_1224_419,stimulusTOSY08_2IFCnew_2019_Jun_18_1224_420,False,2019_Jun_18_1224,2IFCnew,2,TOSY08,
2IFCnew,60,0,60,0,0.433638499992,7,Yes,6.5,-1,Hit,0.500599699968,True,False,stimulusTOSY08_2IFCnew_2019_Jun_18_1224_421,stimulusTOSY08_2IFCnew_2019_Jun_18_1224_422,False,2019_Jun_18_1224,2IFCnew,2,TOSY08,
2IFCnew,61,0,61,0,0.333644300001,1,No,6.5,-1,Hit,0.533852199966,True,False,stimulusTOSY08_2IFCnew_2019_Jun_18_1224_423,stimulusTOSY08_2IFCnew_2019_Jun_18_1224_424,False,2019_Jun_18_1224,2IFCnew,2,TOSY08,
2IFCnew,62,0,62,0,0.233744100027,1,No,6.5,-1,Hit,0.500454799971,True,False,stimulusTOSY08_2IFCnew_2019_Jun_18_1224_425,stimulusTOSY08_2IFCnew_2019_Jun_18_1224_426,False,2019_Jun_18_1224,2IFCnew,2,TOSY08,
2IFCnew,63,0,63,0,0.434061300009,3,No,6.5,-1,False Alarm,0.467763299996,False,True,stimulusTOSY08_2IFCnew_2019_Jun_18_1224_427,stimulusTOSY08_2IFCnew_2019_Jun_18_1224_428,False,2019_Jun_18_1224,2IFCnew,2,TOSY08,
2IFCnew,64,0,64,0,0.333159800037,4,Yes,6.5,-1,Miss,0.402266999998,True,False,stimulusTOSY08_2IFCnew_2019_Jun_18_1224_429,stimulusTOSY08_2IFCnew_2019_Jun_18_1224_430,False,2019_Jun_18_1224,2IFCnew,2,TOSY08,
2IFCnew,65,0,65,0,0.433925199963,3,No,6.5,-1,False Alarm,0.600906999956,False,True,stimulusTOSY08_2IFCnew_2019_Jun_18_1224_431,stimulusTOSY08_2IFCnew_2019_Jun_18_1224_432,False,2019_Jun_18_1224,2IFCnew,2,TOSY08,
2IFCnew,66,0,66,0,0.800785499974,1,No,6.5,-1,Hit,0.668514300021,True,False,stimulusTOSY08_2IFCnew_2019_Jun_18_1224_433,stimulusTOSY08_2IFCnew_2019_Jun_18_1224_434,False,2019_Jun_18_1224,2IFCnew,2,TOSY08,
2IFCnew,67,0,67,0,0.333981500007,4,Yes,6.5,-1,Miss,0.501712500001,True,False,stimulusTOSY08_2IFCnew_2019_Jun_18_1224_435,stimulusTOSY08_2IFCnew_2019_Jun_18_1224_436,False,2019_Jun_18_1224,2IFCnew,2,TOSY08,
2IFCnew,68,0,68,0,0.299842799956,1,No,6.5,-1,Hit,0.534575500002,True,False,stimulusTOSY08_2IFCnew_2019_Jun_18_1224_437,stimulusTOSY08_2IFCnew_2019_Jun_18_1224_438,False,2019_Jun_18_1224,2IFCnew,2,TOSY08,
2IFCnew,69,0,69,0,0.165962699975,4,Yes,6.5,-1,Miss,0.400613199978,True,False,stimulusTOSY08_2IFCnew_2019_Jun_18_1224_439,stimulusTOSY08_2IFCnew_2019_Jun_18_1224_440,False,2019_Jun_18_1224,2IFCnew,2,TOSY08,
2IFCnew,70,0,70,0,0.300544500002,3,No,6.5,-1,False Alarm,0.534040500002,False,True,stimulusTOSY08_2IFCnew_2019_Jun_18_1224_441,stimulusTOSY08_2IFCnew_2019_Jun_18_1224_442,False,2019_Jun_18_1224,2IFCnew,2,TOSY08,
2IFCnew,71,0,71,0,0.300423100009,2,Yes,6.5,-1,Correct Rejection,0.53398800001,False,True,stimulusTOSY08_2IFCnew_2019_Jun_18_1224_443,stimulusTOSY08_2IFCnew_2019_Jun_18_1224_444,False,2019_Jun_18_1224,2IFCnew,2,TOSY08,
2IFCnew,72,0,72,0,0.300264400023,1,No,6.5,-1,Hit,0.568543500034,True,False,stimulusTOSY08_2IFCnew_2019_Jun_18_1224_445,stimulusTOSY08_2IFCnew_2019_Jun_18_1224_446,False,2019_Jun_18_1224,2IFCnew,2,TOSY08,
2IFCnew,73,0,73,0,0.300753999967,4,Yes,6.5,-1,Miss,0.66730999999,True,False,stimulusTOSY08_2IFCnew_2019_Jun_18_1224_447,stimulusTOSY08_2IFCnew_2019_Jun_18_1224_448,False,2019_Jun_18_1224,2IFCnew,2,TOSY08,
2IFCnew,74,0,74,0,0.366801400029,3,No,6.5,-1,False Alarm,0.633873100043,False,True,stimulusTOSY08_2IFCnew_2019_Jun_18_1224_449,stimulusTOSY08_2IFCnew_2019_Jun_18_1224_450,False,2019_Jun_18_1224,2IFCnew,2,TOSY08,
2IFCnew,0,0,0,0,0.366319099965,3,No,9.7,-1,False Alarm,0.800759900012,False,True,stimulusTOSY08_2IFCnew_2019_Jun_18_1224_451,stimulusTOSY08_2IFCnew_2019_Jun_18_1224_452,False,2019_Jun_18_1224,2IFCnew,2,TOSY08,
2IFCnew,1,0,1,0,0.233569800039,1,No,9.7,-1,Hit,0.500858300016,True,False,stimulusTOSY08_2IFCnew_2019_Jun_18_1224_453,stimulusTOSY08_2IFCnew_2019_Jun_18_1224_454,False,2019_Jun_18_1224,2IFCnew,2,TOSY08,
2IFCnew,2,0,2,0,0.39966429997,2,Yes,9.7,-1,Correct Rejection,0.534109300002,False,True,stimulusTOSY08_2IFCnew_2019_Jun_18_1224_455,stimulusTOSY08_2IFCnew_2019_Jun_18_1224_456,False,2019_Jun_18_1224,2IFCnew,2,TOSY08,
2IFCnew,3,0,3,0,0.500342499989,4,Yes,9.7,-1,Miss,0.73434309999,True,False,stimulusTOSY08_2IFCnew_2019_Jun_18_1224_457,stimulusTOSY08_2IFCnew_2019_Jun_18_1224_458,False,2019_Jun_18_1224,2IFCnew,2,TOSY08,
2IFCnew,4,0,4,0,0.200203399989,1,No,9.7,-1,Hit,0.400548300007,True,False,stimulusTOSY08_2IFCnew_2019_Jun_18_1224_459,stimulusTOSY08_2IFCnew_2019_Jun_18_1224_460,False,2019_Jun_18_1224,2IFCnew,2,TOSY08,
2IFCnew,5,0,5,0,0.500344100001,1,No,9.7,-1,Hit,0.800974099955,True,False,stimulusTOSY08_2IFCnew_2019_Jun_18_1224_461,stimulusTOSY08_2IFCnew_2019_Jun_18_1224_462,False,2019_Jun_18_1224,2IFCnew,2,TOSY08,
2IFCnew,6,0,6,0,0.467576399969,2,Yes,9.7,-1,Correct Rejection,0.567069799989,False,True,stimulusTOSY08_2IFCnew_2019_Jun_18_1224_463,stimulusTOSY08_2IFCnew_2019_Jun_18_1224_464,False,2019_Jun_18_1224,2IFCnew,2,TOSY08,
2IFCnew,7,0,7,0,0.366336100036,2,Yes,9.7,-1,Correct Rejection,0.667501899996,False,True,stimulusTOSY08_2IFCnew_2019_Jun_18_1224_465,stimulusTOSY08_2IFCnew_2019_Jun_18_1224_466,False,2019_Jun_18_1224,2IFCnew,2,TOSY08,
2IFCnew,8,0,8,0,0.300585000019,3,No,9.7,-1,False Alarm,0.700915099995,False,True,stimulusTOSY08_2IFCnew_2019_Jun_18_1224_467,stimulusTOSY08_2IFCnew_2019_Jun_18_1224_468,False,2019_Jun_18_1224,2IFCnew,2,TOSY08,
2IFCnew,9,0,9,0,0.367100400035,2,Yes,9.7,-1,Correct Rejection,0.567914000014,False,True,stimulusTOSY08_2IFCnew_2019_Jun_18_1224_469,stimulusTOSY08_2IFCnew_2019_Jun_18_1224_470,False,2019_Jun_18_1224,2IFCnew,2,TOSY08,
2IFCnew,10,0,10,0,0.433410400001,1,No,9.7,-1,Hit,0.734446600021,True,False,stimulusTOSY08_2IFCnew_2019_Jun_18_1224_471,stimulusTOSY08_2IFCnew_2019_Jun_18_1224_472,False,2019_Jun_18_1224,2IFCnew,2,TOSY08,
2IFCnew,11,0,11,0,0.30121190002,1,No,9.7,-1,Hit,0.500605800014,True,False,stimulusTOSY08_2IFCnew_2019_Jun_18_1224_473,stimulusTOSY08_2IFCnew_2019_Jun_18_1224_474,False,2019_Jun_18_1224,2IFCnew,2,TOSY08,
2IFCnew,12,0,12,0,0.433580299956,3,No,9.7,-1,False Alarm,0.601038100023,False,True,stimulusTOSY08_2IFCnew_2019_Jun_18_1224_475,stimulusTOSY08_2IFCnew_2019_Jun_18_1224_476,False,2019_Jun_18_1224,2IFCnew,2,TOSY08,
2IFCnew,13,0,13,0,0.333858700003,1,No,9.7,-1,Hit,0.599748100038,True,False,stimulusTOSY08_2IFCnew_2019_Jun_18_1224_477,stimulusTOSY08_2IFCnew_2019_Jun_18_1224_478,False,2019_Jun_18_1224,2IFCnew,2,TOSY08,
2IFCnew,14,0,14,0,0.400800100004,1,No,9.7,-1,Hit,0.733987899963,True,False,stimulusTOSY08_2IFCnew_2019_Jun_18_1224_479,stimulusTOSY08_2IFCnew_2019_Jun_18_1224_480,False,2019_Jun_18_1224,2IFCnew,2,TOSY08,
2IFCnew,15,0,15,0,0.300605199998,1,No,9.7,-1,Hit,0.501350999984,True,False,stimulusTOSY08_2IFCnew_2019_Jun_18_1224_481,stimulusTOSY08_2IFCnew_2019_Jun_18_1224_482,False,2019_Jun_18_1224,2IFCnew,2,TOSY08,
2IFCnew,16,0,16,0,0.300427400041,4,Yes,9.7,-1,Miss,0.668080499978,True,False,stimulusTOSY08_2IFCnew_2019_Jun_18_1224_483,stimulusTOSY08_2IFCnew_2019_Jun_18_1224_484,False,2019_Jun_18_1224,2IFCnew,2,TOSY08,
2IFCnew,17,0,17,0,0.333833199984,2,Yes,9.7,-1,Correct Rejection,0.698067000019,False,True,stimulusTOSY08_2IFCnew_2019_Jun_18_1224_485,stimulusTOSY08_2IFCnew_2019_Jun_18_1224_486,False,2019_Jun_18_1224,2IFCnew,2,TOSY08,
2IFCnew,18,0,18,0,0.400009600038,2,Yes,9.7,-1,Correct Rejection,0.667122500017,False,True,stimulusTOSY08_2IFCnew_2019_Jun_18_1224_487,stimulusTOSY08_2IFCnew_2019_Jun_18_1224_488,False,2019_Jun_18_1224,2IFCnew,2,TOSY08,
2IFCnew,19,0,19,0,0.367207399977,1,No,9.7,-1,Hit,0.734401000023,True,False,stimulusTOSY08_2IFCnew_2019_Jun_18_1224_489,stimulusTOSY08_2IFCnew_2019_Jun_18_1224_490,False,2019_Jun_18_1224,2IFCnew,2,TOSY08,
2IFCnew,20,0,20,0,0.299894299998,1,No,9.7,-1,Hit,0.767232400016,True,False,stimulusTOSY08_2IFCnew_2019_Jun_18_1224_491,stimulusTOSY08_2IFCnew_2019_Jun_18_1224_492,False,2019_Jun_18_1224,2IFCnew,2,TOSY08,
2IFCnew,21,0,21,0,0.367483599985,2,Yes,9.7,-1,Correct Rejection,0.767585500027,False,True,stimulusTOSY08_2IFCnew_2019_Jun_18_1224_493,stimulusTOSY08_2IFCnew_2019_Jun_18_1224_494,False,2019_Jun_18_1224,2IFCnew,2,TOSY08,
2IFCnew,22,0,22,0,0.333290599985,4,Yes,9.7,-1,Miss,0.667372600001,True,False,stimulusTOSY08_2IFCnew_2019_Jun_18_1224_495,stimulusTOSY08_2IFCnew_2019_Jun_18_1224_496,False,2019_Jun_18_1224,2IFCnew,2,TOSY08,
2IFCnew,23,0,23,0,-1,0,Yes,9.7,-1,No Answer,-1,False,True,stimulusTOSY08_2IFCnew_2019_Jun_18_1224_497,stimulusTOSY08_2IFCnew_2019_Jun_18_1224_498,False,2019_Jun_18_1224,2IFCnew,2,TOSY08,
2IFCnew,24,0,24,0,0.266958199965,3,No,9.7,-1,False Alarm,0.467815599986,False,True,stimulusTOSY08_2IFCnew_2019_Jun_18_1224_499,stimulusTOSY08_2IFCnew_2019_Jun_18_1224_500,False,2019_Jun_18_1224,2IFCnew,2,TOSY08,
2IFCnew,25,0,25,0,0.233960500045,2,Yes,9.7,-1,Correct Rejection,0.466731799999,False,True,stimulusTOSY08_2IFCnew_2019_Jun_18_1224_501,stimulusTOSY08_2IFCnew_2019_Jun_18_1224_502,False,2019_Jun_18_1224,2IFCnew,2,TOSY08,
2IFCnew,26,0,26,0,0.30205519998,4,Yes,9.7,-1,Miss,0.601391999982,True,False,stimulusTOSY08_2IFCnew_2019_Jun_18_1224_503,stimulusTOSY08_2IFCnew_2019_Jun_18_1224_504,False,2019_Jun_18_1224,2IFCnew,2,TOSY08,
2IFCnew,27,0,27,0,0.200248699985,1,No,9.7,-1,Hit,0.400802100019,True,False,stimulusTOSY08_2IFCnew_2019_Jun_18_1224_505,stimulusTOSY08_2IFCnew_2019_Jun_18_1224_506,False,2019_Jun_18_1224,2IFCnew,2,TOSY08,
2IFCnew,28,0,28,0,0.333354600007,2,Yes,9.7,-1,Correct Rejection,0.567224600003,False,True,stimulusTOSY08_2IFCnew_2019_Jun_18_1224_507,stimulusTOSY08_2IFCnew_2019_Jun_18_1224_508,False,2019_Jun_18_1224,2IFCnew,2,TOSY08,
2IFCnew,29,0,29,0,0.266746900044,1,No,9.7,-1,Hit,0.533954500046,True,False,stimulusTOSY08_2IFCnew_2019_Jun_18_1224_509,stimulusTOSY08_2IFCnew_2019_Jun_18_1224_510,False,2019_Jun_18_1224,2IFCnew,2,TOSY08,
2IFCnew,30,0,30,0,0.33364550001,4,Yes,9.7,-1,Miss,0.534182599979,True,False,stimulusTOSY08_2IFCnew_2019_Jun_18_1224_511,stimulusTOSY08_2IFCnew_2019_Jun_18_1224_512,False,2019_Jun_18_1224,2IFCnew,2,TOSY08,
2IFCnew,31,0,31,0,0.367539300001,1,No,9.7,-1,Hit,0.533737200021,True,False,stimulusTOSY08_2IFCnew_2019_Jun_18_1224_513,stimulusTOSY08_2IFCnew_2019_Jun_18_1224_514,False,2019_Jun_18_1224,2IFCnew,2,TOSY08,
2IFCnew,32,0,32,0,0.567273999972,3,No,9.7,-1,False Alarm,0.566325400025,False,True,stimulusTOSY08_2IFCnew_2019_Jun_18_1224_515,stimulusTOSY08_2IFCnew_2019_Jun_18_1224_516,False,2019_Jun_18_1224,2IFCnew,2,TOSY08,
2IFCnew,33,0,33,0,0.401127199992,1,No,9.7,-1,Hit,0.635179500037,True,False,stimulusTOSY08_2IFCnew_2019_Jun_18_1224_517,stimulusTOSY08_2IFCnew_2019_Jun_18_1224_518,False,2019_Jun_18_1224,2IFCnew,2,TOSY08,
2IFCnew,34,0,34,0,0.433532800002,2,Yes,9.7,-1,Correct Rejection,0.667675100034,False,True,stimulusTOSY08_2IFCnew_2019_Jun_18_1224_519,stimulusTOSY08_2IFCnew_2019_Jun_18_1224_520,False,2019_Jun_18_1224,2IFCnew,2,TOSY08,
2IFCnew,35,0,35,0,0.300696399994,1,No,9.7,-1,Hit,0.466872599965,True,False,stimulusTOSY08_2IFCnew_2019_Jun_18_1224_521,stimulusTOSY08_2IFCnew_2019_Jun_18_1224_522,False,2019_Jun_18_1224,2IFCnew,2,TOSY08,
2IFCnew,36,0,36,0,0.367252300028,2,Yes,9.7,-1,Correct Rejection,0.533757900004,False,True,stimulusTOSY08_2IFCnew_2019_Jun_18_1224_523,stimulusTOSY08_2IFCnew_2019_Jun_18_1224_524,False,2019_Jun_18_1224,2IFCnew,2,TOSY08,
2IFCnew,37,0,37,0,0.46725039999,2,Yes,9.7,-1,Correct Rejection,0.733878200001,False,True,stimulusTOSY08_2IFCnew_2019_Jun_18_1224_525,stimulusTOSY08_2IFCnew_2019_Jun_18_1224_526,False,2019_Jun_18_1224,2IFCnew,2,TOSY08,
2IFCnew,38,0,38,0,0.433359999966,3,No,9.7,-1,False Alarm,0.700565000006,False,True,stimulusTOSY08_2IFCnew_2019_Jun_18_1224_527,stimulusTOSY08_2IFCnew_2019_Jun_18_1224_528,False,2019_Jun_18_1224,2IFCnew,2,TOSY08,
2IFCnew,39,0,39,0,0.534788699995,1,No,9.7,-1,Hit,0.50023559999,True,False,stimulusTOSY08_2IFCnew_2019_Jun_18_1224_529,stimulusTOSY08_2IFCnew_2019_Jun_18_1224_530,False,2019_Jun_18_1224,2IFCnew,2,TOSY08,
2IFCnew,40,0,40,0,0.300459400052,2,Yes,9.7,-1,Correct Rejection,0.667361700034,False,True,stimulusTOSY08_2IFCnew_2019_Jun_18_1224_531,stimulusTOSY08_2IFCnew_2019_Jun_18_1224_532,False,2019_Jun_18_1224,2IFCnew,2,TOSY08,
2IFCnew,41,0,41,0,0.3336365,2,Yes,9.7,-1,Correct Rejection,0.535452200042,False,True,stimulusTOSY08_2IFCnew_2019_Jun_18_1224_533,stimulusTOSY08_2IFCnew_2019_Jun_18_1224_534,False,2019_Jun_18_1224,2IFCnew,2,TOSY08,
2IFCnew,42,0,42,0,0.300467399997,1,No,9.7,-1,Hit,0.567479399964,True,False,stimulusTOSY08_2IFCnew_2019_Jun_18_1224_535,stimulusTOSY08_2IFCnew_2019_Jun_18_1224_536,False,2019_Jun_18_1224,2IFCnew,2,TOSY08,
2IFCnew,43,0,43,0,0.466333599994,2,Yes,9.7,-1,Correct Rejection,0.600954299967,False,True,stimulusTOSY08_2IFCnew_2019_Jun_18_1224_537,stimulusTOSY08_2IFCnew_2019_Jun_18_1224_538,False,2019_Jun_18_1224,2IFCnew,2,TOSY08,
2IFCnew,44,0,44,0,0.367460200039,2,Yes,9.7,-1,Correct Rejection,0.601907100005,False,True,stimulusTOSY08_2IFCnew_2019_Jun_18_1224_539,stimulusTOSY08_2IFCnew_2019_Jun_18_1224_540,False,2019_Jun_18_1224,2IFCnew,2,TOSY08,
2IFCnew,45,0,45,0,0.433409599995,2,Yes,9.7,-1,Correct Rejection,0.533282299992,False,True,stimulusTOSY08_2IFCnew_2019_Jun_18_1224_541,stimulusTOSY08_2IFCnew_2019_Jun_18_1224_542,False,2019_Jun_18_1224,2IFCnew,2,TOSY08,
2IFCnew,46,0,46,0,0.367321999976,2,Yes,9.7,-1,Correct Rejection,0.500316700025,False,True,stimulusTOSY08_2IFCnew_2019_Jun_18_1224_543,stimulusTOSY08_2IFCnew_2019_Jun_18_1224_544,False,2019_Jun_18_1224,2IFCnew,2,TOSY08,
2IFCnew,47,0,47,0,0.566780699999,6,No,9.7,-1,Miss,0.566962199984,True,False,stimulusTOSY08_2IFCnew_2019_Jun_18_1224_545,stimulusTOSY08_2IFCnew_2019_Jun_18_1224_546,False,2019_Jun_18_1224,2IFCnew,2,TOSY08,
2IFCnew,48,0,48,0,0.434591200028,1,No,9.7,-1,Hit,0.667154599971,True,False,stimulusTOSY08_2IFCnew_2019_Jun_18_1224_547,stimulusTOSY08_2IFCnew_2019_Jun_18_1224_548,False,2019_Jun_18_1224,2IFCnew,2,TOSY08,
2IFCnew,49,0,49,0,0.433565899963,1,No,9.7,-1,Hit,0.500695399998,True,False,stimulusTOSY08_2IFCnew_2019_Jun_18_1224_549,stimulusTOSY08_2IFCnew_2019_Jun_18_1224_550,False,2019_Jun_18_1224,2IFCnew,2,TOSY08,
2IFCnew,50,0,50,0,0.333922499965,2,Yes,9.7,-1,Correct Rejection,0.568253899983,False,True,stimulusTOSY08_2IFCnew_2019_Jun_18_1224_551,stimulusTOSY08_2IFCnew_2019_Jun_18_1224_552,False,2019_Jun_18_1224,2IFCnew,2,TOSY08,
2IFCnew,51,0,51,0,0.2665117,2,Yes,9.7,-1,Correct Rejection,0.501227900037,False,True,stimulusTOSY08_2IFCnew_2019_Jun_18_1224_553,stimulusTOSY08_2IFCnew_2019_Jun_18_1224_554,False,2019_Jun_18_1224,2IFCnew,2,TOSY08,
2IFCnew,52,0,52,0,0.567222500045,6,No,9.7,-1,Miss,0.600670400017,True,False,stimulusTOSY08_2IFCnew_2019_Jun_18_1224_555,stimulusTOSY08_2IFCnew_2019_Jun_18_1224_556,False,2019_Jun_18_1224,2IFCnew,2,TOSY08,
2IFCnew,53,0,53,0,0.366628799995,2,Yes,9.7,-1,Correct Rejection,0.767871499993,False,True,stimulusTOSY08_2IFCnew_2019_Jun_18_1224_557,stimulusTOSY08_2IFCnew_2019_Jun_18_1224_558,False,2019_Jun_18_1224,2IFCnew,2,TOSY08,
2IFCnew,54,0,54,0,0.33328760002,1,No,9.7,-1,Hit,0.4339836,True,False,stimulusTOSY08_2IFCnew_2019_Jun_18_1224_559,stimulusTOSY08_2IFCnew_2019_Jun_18_1224_560,False,2019_Jun_18_1224,2IFCnew,2,TOSY08,
2IFCnew,55,0,55,0,0.366507300001,2,Yes,9.7,-1,Correct Rejection,0.467479599989,False,True,stimulusTOSY08_2IFCnew_2019_Jun_18_1224_561,stimulusTOSY08_2IFCnew_2019_Jun_18_1224_562,False,2019_Jun_18_1224,2IFCnew,2,TOSY08,
2IFCnew,56,0,56,0,0.333944500017,2,Yes,9.7,-1,Correct Rejection,0.500499200018,False,True,stimulusTOSY08_2IFCnew_2019_Jun_18_1224_563,stimulusTOSY08_2IFCnew_2019_Jun_18_1224_564,False,2019_Jun_18_1224,2IFCnew,2,TOSY08,
2IFCnew,57,0,57,0,0.300329099991,2,Yes,9.7,-1,Correct Rejection,0.501473700046,False,True,stimulusTOSY08_2IFCnew_2019_Jun_18_1224_565,stimulusTOSY08_2IFCnew_2019_Jun_18_1224_566,False,2019_Jun_18_1224,2IFCnew,2,TOSY08,
2IFCnew,58,0,58,0,0.300387999974,2,Yes,9.7,-1,Correct Rejection,0.5002905,False,True,stimulusTOSY08_2IFCnew_2019_Jun_18_1224_567,stimulusTOSY08_2IFCnew_2019_Jun_18_1224_568,False,2019_Jun_18_1224,2IFCnew,2,TOSY08,
2IFCnew,59,0,59,0,0.301350099966,2,Yes,9.7,-1,Correct Rejection,0.532735100016,False,True,stimulusTOSY08_2IFCnew_2019_Jun_18_1224_569,stimulusTOSY08_2IFCnew_2019_Jun_18_1224_570,False,2019_Jun_18_1224,2IFCnew,2,TOSY08,
2IFCnew,60,0,60,0,0.466707299987,8,No,9.7,-1,Correct Rejection,0.533623899973,False,True,stimulusTOSY08_2IFCnew_2019_Jun_18_1224_571,stimulusTOSY08_2IFCnew_2019_Jun_18_1224_572,False,2019_Jun_18_1224,2IFCnew,2,TOSY08,
2IFCnew,61,0,61,0,0.367280200007,6,No,9.7,-1,Miss,0.435003799968,True,False,stimulusTOSY08_2IFCnew_2019_Jun_18_1224_573,stimulusTOSY08_2IFCnew_2019_Jun_18_1224_574,False,2019_Jun_18_1224,2IFCnew,2,TOSY08,
2IFCnew,62,0,62,0,0.367014700023,6,No,9.7,-1,Miss,0.534190899984,True,False,stimulusTOSY08_2IFCnew_2019_Jun_18_1224_575,stimulusTOSY08_2IFCnew_2019_Jun_18_1224_576,False,2019_Jun_18_1224,2IFCnew,2,TOSY08,
2IFCnew,63,0,63,0,0.566711199994,1,No,9.7,-1,Hit,0.767469399958,True,False,stimulusTOSY08_2IFCnew_2019_Jun_18_1224_577,stimulusTOSY08_2IFCnew_2019_Jun_18_1224_578,False,2019_Jun_18_1224,2IFCnew,2,TOSY08,
2IFCnew,64,0,64,0,0.367362099991,1,No,9.7,-1,Hit,0.633987499983,True,False,stimulusTOSY08_2IFCnew_2019_Jun_18_1224_579,stimulusTOSY08_2IFCnew_2019_Jun_18_1224_580,False,2019_Jun_18_1224,2IFCnew,2,TOSY08,
2IFCnew,65,0,65,0,0.567169899994,2,Yes,9.7,-1,Correct Rejection,0.733440599986,False,True,stimulusTOSY08_2IFCnew_2019_Jun_18_1224_581,stimulusTOSY08_2IFCnew_2019_Jun_18_1224_582,False,2019_Jun_18_1224,2IFCnew,2,TOSY08,
2IFCnew,66,0,66,0,0.536572100013,8,No,9.7,-1,Correct Rejection,0.766796400014,False,True,stimulusTOSY08_2IFCnew_2019_Jun_18_1224_583,stimulusTOSY08_2IFCnew_2019_Jun_18_1224_584,False,2019_Jun_18_1224,2IFCnew,2,TOSY08,
2IFCnew,67,0,67,0,0.498248100048,1,No,9.7,-1,Hit,0.703697199991,True,False,stimulusTOSY08_2IFCnew_2019_Jun_18_1224_585,stimulusTOSY08_2IFCnew_2019_Jun_18_1224_586,False,2019_Jun_18_1224,2IFCnew,2,TOSY08,
2IFCnew,68,0,68,0,0.367290799972,2,Yes,9.7,-1,Correct Rejection,0.634148499987,False,True,stimulusTOSY08_2IFCnew_2019_Jun_18_1224_587,stimulusTOSY08_2IFCnew_2019_Jun_18_1224_588,False,2019_Jun_18_1224,2IFCnew,2,TOSY08,
2IFCnew,69,0,69,0,0.266855099995,4,Yes,9.7,-1,Miss,0.667842500028,True,False,stimulusTOSY08_2IFCnew_2019_Jun_18_1224_589,stimulusTOSY08_2IFCnew_2019_Jun_18_1224_590,False,2019_Jun_18_1224,2IFCnew,2,TOSY08,
2IFCnew,70,0,70,0,0.233704799961,1,No,9.7,-1,Hit,0.400458299962,True,False,stimulusTOSY08_2IFCnew_2019_Jun_18_1224_591,stimulusTOSY08_2IFCnew_2019_Jun_18_1224_592,False,2019_Jun_18_1224,2IFCnew,2,TOSY08,
2IFCnew,71,0,71,0,0.300621100003,1,No,9.7,-1,Hit,0.56711059995,True,False,stimulusTOSY08_2IFCnew_2019_Jun_18_1224_593,stimulusTOSY08_2IFCnew_2019_Jun_18_1224_594,False,2019_Jun_18_1224,2IFCnew,2,TOSY08,
2IFCnew,72,0,72,0,0.300566099992,1,No,9.7,-1,Hit,0.467261800019,True,False,stimulusTOSY08_2IFCnew_2019_Jun_18_1224_595,stimulusTOSY08_2IFCnew_2019_Jun_18_1224_596,False,2019_Jun_18_1224,2IFCnew,2,TOSY08,
2IFCnew,73,0,73,0,0.267507200013,1,No,9.7,-1,Hit,0.367082800018,True,False,stimulusTOSY08_2IFCnew_2019_Jun_18_1224_597,stimulusTOSY08_2IFCnew_2019_Jun_18_1224_598,False,2019_Jun_18_1224,2IFCnew,2,TOSY08,
2IFCnew,74,0,74,0,0.334321999981,1,No,9.7,-1,Hit,0.432412600028,True,False,stimulusTOSY08_2IFCnew_2019_Jun_18_1224_599,stimulusTOSY08_2IFCnew_2019_Jun_18_1224_600,False,2019_Jun_18_1224,2IFCnew,2,TOSY08,
2IFCnew,0,0,0,0,0.53403119999,1,No,8.7,-1,Hit,0.46753329999,True,False,stimulusTOSY08_2IFCnew_2019_Jun_18_1224_601,stimulusTOSY08_2IFCnew_2019_Jun_18_1224_602,False,2019_Jun_18_1224,2IFCnew,2,TOSY08,
2IFCnew,1,0,1,0,0.333991599968,2,Yes,8.7,-1,Correct Rejection,0.500905399967,False,True,stimulusTOSY08_2IFCnew_2019_Jun_18_1224_603,stimulusTOSY08_2IFCnew_2019_Jun_18_1224_604,False,2019_Jun_18_1224,2IFCnew,2,TOSY08,
2IFCnew,2,0,2,0,0.166996399988,1,No,8.7,-1,Hit,0.53305540001,True,False,stimulusTOSY08_2IFCnew_2019_Jun_18_1224_605,stimulusTOSY08_2IFCnew_2019_Jun_18_1224_606,False,2019_Jun_18_1224,2IFCnew,2,TOSY08,
2IFCnew,3,0,3,0,0.400635599974,1,No,8.7,-1,Hit,0.46813579998,True,False,stimulusTOSY08_2IFCnew_2019_Jun_18_1224_607,stimulusTOSY08_2IFCnew_2019_Jun_18_1224_608,False,2019_Jun_18_1224,2IFCnew,2,TOSY08,
2IFCnew,4,0,4,0,0.333974900015,2,Yes,8.7,-1,Correct Rejection,0.600495699968,False,True,stimulusTOSY08_2IFCnew_2019_Jun_18_1224_609,stimulusTOSY08_2IFCnew_2019_Jun_18_1224_610,False,2019_Jun_18_1224,2IFCnew,2,TOSY08,
2IFCnew,5,0,5,0,0.366346800001,2,Yes,8.7,-1,Correct Rejection,0.466731299995,False,True,stimulusTOSY08_2IFCnew_2019_Jun_18_1224_611,stimulusTOSY08_2IFCnew_2019_Jun_18_1224_612,False,2019_Jun_18_1224,2IFCnew,2,TOSY08,
2IFCnew,6,0,6,0,0.370743800013,1,No,8.7,-1,Hit,0.604280799977,True,False,stimulusTOSY08_2IFCnew_2019_Jun_18_1224_613,stimulusTOSY08_2IFCnew_2019_Jun_18_1224_614,False,2019_Jun_18_1224,2IFCnew,2,TOSY08,
2IFCnew,7,0,7,0,0.569518600008,2,Yes,8.7,-1,Correct Rejection,0.63014699996,False,True,stimulusTOSY08_2IFCnew_2019_Jun_18_1224_615,stimulusTOSY08_2IFCnew_2019_Jun_18_1224_616,False,2019_Jun_18_1224,2IFCnew,2,TOSY08,
2IFCnew,8,0,8,0,0.333765899995,1,No,8.7,-1,Hit,0.567364900024,True,False,stimulusTOSY08_2IFCnew_2019_Jun_18_1224_617,stimulusTOSY08_2IFCnew_2019_Jun_18_1224_618,False,2019_Jun_18_1224,2IFCnew,2,TOSY08,
2IFCnew,9,0,9,0,0.233868999989,3,No,8.7,-1,False Alarm,0.533466399997,False,True,stimulusTOSY08_2IFCnew_2019_Jun_18_1224_619,stimulusTOSY08_2IFCnew_2019_Jun_18_1224_620,False,2019_Jun_18_1224,2IFCnew,2,TOSY08,
2IFCnew,10,0,10,0,0.267594600038,2,Yes,8.7,-1,Correct Rejection,0.400570199999,False,True,stimulusTOSY08_2IFCnew_2019_Jun_18_1224_621,stimulusTOSY08_2IFCnew_2019_Jun_18_1224_622,False,2019_Jun_18_1224,2IFCnew,2,TOSY08,
2IFCnew,11,0,11,0,0.433618599956,6,No,8.7,-1,Miss,0.533747599984,True,False,stimulusTOSY08_2IFCnew_2019_Jun_18_1224_623,stimulusTOSY08_2IFCnew_2019_Jun_18_1224_624,False,2019_Jun_18_1224,2IFCnew,2,TOSY08,
2IFCnew,12,0,12,0,0.767420799995,6,No,8.7,-1,Miss,0.603794800001,True,False,stimulusTOSY08_2IFCnew_2019_Jun_18_1224_625,stimulusTOSY08_2IFCnew_2019_Jun_18_1224_626,False,2019_Jun_18_1224,2IFCnew,2,TOSY08,
2IFCnew,13,0,13,0,0.300139800005,2,Yes,8.7,-1,Correct Rejection,0.701052199991,False,True,stimulusTOSY08_2IFCnew_2019_Jun_18_1224_627,stimulusTOSY08_2IFCnew_2019_Jun_18_1224_628,False,2019_Jun_18_1224,2IFCnew,2,TOSY08,
2IFCnew,14,0,14,0,0.567044400028,2,Yes,8.7,-1,Correct Rejection,0.800823000027,False,True,stimulusTOSY08_2IFCnew_2019_Jun_18_1224_629,stimulusTOSY08_2IFCnew_2019_Jun_18_1224_630,False,2019_Jun_18_1224,2IFCnew,2,TOSY08,
2IFCnew,15,0,15,0,0.300655699975,2,Yes,8.7,-1,Correct Rejection,0.568978799973,False,True,stimulusTOSY08_2IFCnew_2019_Jun_18_1224_631,stimulusTOSY08_2IFCnew_2019_Jun_18_1224_632,False,2019_Jun_18_1224,2IFCnew,2,TOSY08,
2IFCnew,16,0,16,0,0.332713599957,1,No,8.7,-1,Hit,0.66776869999,True,False,stimulusTOSY08_2IFCnew_2019_Jun_18_1224_633,stimulusTOSY08_2IFCnew_2019_Jun_18_1224_634,False,2019_Jun_18_1224,2IFCnew,2,TOSY08,
2IFCnew,17,0,17,0,0.200342800003,1,No,8.7,-1,Hit,0.467504900007,True,False,stimulusTOSY08_2IFCnew_2019_Jun_18_1224_635,stimulusTOSY08_2IFCnew_2019_Jun_18_1224_636,False,2019_Jun_18_1224,2IFCnew,2,TOSY08,
2IFCnew,18,0,18,0,0.199129599961,3,No,8.7,-1,False Alarm,0.567899599962,False,True,stimulusTOSY08_2IFCnew_2019_Jun_18_1224_637,stimulusTOSY08_2IFCnew_2019_Jun_18_1224_638,False,2019_Jun_18_1224,2IFCnew,2,TOSY08,
2IFCnew,19,0,19,0,0.300626099983,2,Yes,8.7,-1,Correct Rejection,0.566776400025,False,True,stimulusTOSY08_2IFCnew_2019_Jun_18_1224_639,stimulusTOSY08_2IFCnew_2019_Jun_18_1224_640,False,2019_Jun_18_1224,2IFCnew,2,TOSY08,
2IFCnew,20,0,20,0,0.167591100035,1,No,8.7,-1,Hit,0.566579000035,True,False,stimulusTOSY08_2IFCnew_2019_Jun_18_1224_641,stimulusTOSY08_2IFCnew_2019_Jun_18_1224_642,False,2019_Jun_18_1224,2IFCnew,2,TOSY08,
2IFCnew,21,0,21,0,0.233895400015,1,No,8.7,-1,Hit,0.500609999988,True,False,stimulusTOSY08_2IFCnew_2019_Jun_18_1224_643,stimulusTOSY08_2IFCnew_2019_Jun_18_1224_644,False,2019_Jun_18_1224,2IFCnew,2,TOSY08,
2IFCnew,22,0,22,0,0.233415899973,2,Yes,8.7,-1,Correct Rejection,0.534273900033,False,True,stimulusTOSY08_2IFCnew_2019_Jun_18_1224_645,stimulusTOSY08_2IFCnew_2019_Jun_18_1224_646,False,2019_Jun_18_1224,2IFCnew,2,TOSY08,
2IFCnew,23,0,23,0,0.300338500005,2,Yes,8.7,-1,Correct Rejection,0.667057099985,False,True,stimulusTOSY08_2IFCnew_2019_Jun_18_1224_647,stimulusTOSY08_2IFCnew_2019_Jun_18_1224_648,False,2019_Jun_18_1224,2IFCnew,2,TOSY08,
2IFCnew,24,0,24,0,-1,0,Yes,8.7,-1,No Answer,-1,False,True,stimulusTOSY08_2IFCnew_2019_Jun_18_1224_649,stimulusTOSY08_2IFCnew_2019_Jun_18_1224_650,False,2019_Jun_18_1224,2IFCnew,2,TOSY08,
2IFCnew,25,0,25,0,0.233919499966,2,Yes,8.7,-1,Correct Rejection,0.567465600034,False,True,stimulusTOSY08_2IFCnew_2019_Jun_18_1224_651,stimulusTOSY08_2IFCnew_2019_Jun_18_1224_652,False,2019_Jun_18_1224,2IFCnew,2,TOSY08,
2IFCnew,26,0,26,0,0.467212999996,6,No,8.7,-1,Miss,0.566778999986,True,False,stimulusTOSY08_2IFCnew_2019_Jun_18_1224_653,stimulusTOSY08_2IFCnew_2019_Jun_18_1224_654,False,2019_Jun_18_1224,2IFCnew,2,TOSY08,
2IFCnew,27,0,27,0,0.267376499949,1,No,8.7,-1,Hit,0.600669200008,True,False,stimulusTOSY08_2IFCnew_2019_Jun_18_1224_655,stimulusTOSY08_2IFCnew_2019_Jun_18_1224_656,False,2019_Jun_18_1224,2IFCnew,2,TOSY08,
2IFCnew,28,0,28,0,0.300263299956,2,Yes,8.7,-1,Correct Rejection,0.667365200003,False,True,stimulusTOSY08_2IFCnew_2019_Jun_18_1224_657,stimulusTOSY08_2IFCnew_2019_Jun_18_1224_658,False,2019_Jun_18_1224,2IFCnew,2,TOSY08,
2IFCnew,29,0,29,0,0.20034479996,1,No,8.7,-1,Hit,0.501004599966,True,False,stimulusTOSY08_2IFCnew_2019_Jun_18_1224_659,stimulusTOSY08_2IFCnew_2019_Jun_18_1224_660,False,2019_Jun_18_1224,2IFCnew,2,TOSY08,
2IFCnew,30,0,30,0,0.533774499956,8,No,8.7,-1,Correct Rejection,0.600732000021,False,True,stimulusTOSY08_2IFCnew_2019_Jun_18_1224_661,stimulusTOSY08_2IFCnew_2019_Jun_18_1224_662,False,2019_Jun_18_1224,2IFCnew,2,TOSY08,
2IFCnew,31,0,31,0,0.300369900011,2,Yes,8.7,-1,Correct Rejection,0.534337499994,False,True,stimulusTOSY08_2IFCnew_2019_Jun_18_1224_663,stimulusTOSY08_2IFCnew_2019_Jun_18_1224_664,False,2019_Jun_18_1224,2IFCnew,2,TOSY08,
2IFCnew,32,0,32,0,0.266356899985,2,Yes,8.7,-1,Correct Rejection,0.533854599984,False,True,stimulusTOSY08_2IFCnew_2019_Jun_18_1224_665,stimulusTOSY08_2IFCnew_2019_Jun_18_1224_666,False,2019_Jun_18_1224,2IFCnew,2,TOSY08,
2IFCnew,33,0,33,0,0.533993400051,6,No,8.7,-1,Miss,0.635749000008,True,False,stimulusTOSY08_2IFCnew_2019_Jun_18_1224_667,stimulusTOSY08_2IFCnew_2019_Jun_18_1224_668,False,2019_Jun_18_1224,2IFCnew,2,TOSY08,
2IFCnew,34,0,34,0,0.166583400045,1,No,8.7,-1,Hit,0.532534600003,True,False,stimulusTOSY08_2IFCnew_2019_Jun_18_1224_669,stimulusTOSY08_2IFCnew_2019_Jun_18_1224_670,False,2019_Jun_18_1224,2IFCnew,2,TOSY08,
2IFCnew,35,0,35,0,0.867533400015,5,Yes,8.7,-1,False Alarm,0.564589600021,False,True,stimulusTOSY08_2IFCnew_2019_Jun_18_1224_671,stimulusTOSY08_2IFCnew_2019_Jun_18_1224_672,False,2019_Jun_18_1224,2IFCnew,2,TOSY08,
2IFCnew,36,0,36,0,0.299510599987,2,Yes,8.7,-1,Correct Rejection,0.53545830003,False,True,stimulusTOSY08_2IFCnew_2019_Jun_18_1224_673,stimulusTOSY08_2IFCnew_2019_Jun_18_1224_674,False,2019_Jun_18_1224,2IFCnew,2,TOSY08,
2IFCnew,37,0,37,0,0.234198199993,2,Yes,8.7,-1,Correct Rejection,0.566731399973,False,True,stimulusTOSY08_2IFCnew_2019_Jun_18_1224_675,stimulusTOSY08_2IFCnew_2019_Jun_18_1224_676,False,2019_Jun_18_1224,2IFCnew,2,TOSY08,
2IFCnew,38,0,38,0,0.267457699985,2,Yes,8.7,-1,Correct Rejection,0.467170599964,False,True,stimulusTOSY08_2IFCnew_2019_Jun_18_1224_677,stimulusTOSY08_2IFCnew_2019_Jun_18_1224_678,False,2019_Jun_18_1224,2IFCnew,2,TOSY08,
2IFCnew,39,0,39,0,0.233439499978,1,No,8.7,-1,Hit,0.500201600022,True,False,stimulusTOSY08_2IFCnew_2019_Jun_18_1224_679,stimulusTOSY08_2IFCnew_2019_Jun_18_1224_680,False,2019_Jun_18_1224,2IFCnew,2,TOSY08,
2IFCnew,40,0,40,0,0.300347700017,1,No,8.7,-1,Hit,0.534117200004,True,False,stimulusTOSY08_2IFCnew_2019_Jun_18_1224_681,stimulusTOSY08_2IFCnew_2019_Jun_18_1224_682,False,2019_Jun_18_1224,2IFCnew,2,TOSY08,
2IFCnew,41,0,41,0,0.199901300017,1,No,8.7,-1,Hit,0.433791899995,True,False,stimulusTOSY08_2IFCnew_2019_Jun_18_1224_683,stimulusTOSY08_2IFCnew_2019_Jun_18_1224_684,False,2019_Jun_18_1224,2IFCnew,2,TOSY08,
2IFCnew,42,0,42,0,0.266666399955,2,Yes,8.7,-1,Correct Rejection,0.634138500027,False,True,stimulusTOSY08_2IFCnew_2019_Jun_18_1224_685,stimulusTOSY08_2IFCnew_2019_Jun_18_1224_686,False,2019_Jun_18_1224,2IFCnew,2,TOSY08,
2IFCnew,43,0,43,0,0.100336200034,1,No,8.7,-1,Hit,0.36754040001,True,False,stimulusTOSY08_2IFCnew_2019_Jun_18_1224_687,stimulusTOSY08_2IFCnew_2019_Jun_18_1224_688,False,2019_Jun_18_1224,2IFCnew,2,TOSY08,
2IFCnew,44,0,44,0,0.667205200007,5,Yes,8.7,-1,False Alarm,0.433687500015,False,True,stimulusTOSY08_2IFCnew_2019_Jun_18_1224_689,stimulusTOSY08_2IFCnew_2019_Jun_18_1224_690,False,2019_Jun_18_1224,2IFCnew,2,TOSY08,
2IFCnew,45,0,45,0,0.334090999968,2,Yes,8.7,-1,Correct Rejection,0.566874500015,False,True,stimulusTOSY08_2IFCnew_2019_Jun_18_1224_691,stimulusTOSY08_2IFCnew_2019_Jun_18_1224_692,False,2019_Jun_18_1224,2IFCnew,2,TOSY08,
2IFCnew,46,0,46,0,0.366362000001,2,Yes,8.7,-1,Correct Rejection,0.6676018,False,True,stimulusTOSY08_2IFCnew_2019_Jun_18_1224_693,stimulusTOSY08_2IFCnew_2019_Jun_18_1224_694,False,2019_Jun_18_1224,2IFCnew,2,TOSY08,
2IFCnew,47,0,47,0,0.268465899979,1,No,8.7,-1,Hit,0.533360300004,True,False,stimulusTOSY08_2IFCnew_2019_Jun_18_1224_695,stimulusTOSY08_2IFCnew_2019_Jun_18_1224_696,False,2019_Jun_18_1224,2IFCnew,2,TOSY08,
2IFCnew,48,0,48,0,0.300222800055,2,Yes,8.7,-1,Correct Rejection,0.500492199964,False,True,stimulusTOSY08_2IFCnew_2019_Jun_18_1224_697,stimulusTOSY08_2IFCnew_2019_Jun_18_1224_698,False,2019_Jun_18_1224,2IFCnew,2,TOSY08,
2IFCnew,49,0,49,0,0.300462400017,1,No,8.7,-1,Hit,0.6022505,True,False,stimulusTOSY08_2IFCnew_2019_Jun_18_1224_699,stimulusTOSY08_2IFCnew_2019_Jun_18_1224_700,False,2019_Jun_18_1224,2IFCnew,2,TOSY08,
2IFCnew,50,0,50,0,0.133934799989,2,Yes,8.7,-1,Correct Rejection,0.468571700039,False,True,stimulusTOSY08_2IFCnew_2019_Jun_18_1224_701,stimulusTOSY08_2IFCnew_2019_Jun_18_1224_702,False,2019_Jun_18_1224,2IFCnew,2,TOSY08,
2IFCnew,51,0,51,0,0.433689299971,5,Yes,8.7,-1,False Alarm,0.699721399986,False,True,stimulusTOSY08_2IFCnew_2019_Jun_18_1224_703,stimulusTOSY08_2IFCnew_2019_Jun_18_1224_704,False,2019_Jun_18_1224,2IFCnew,2,TOSY08,
2IFCnew,52,0,52,0,0.367056699994,4,Yes,8.7,-1,Miss,0.400457400014,True,False,stimulusTOSY08_2IFCnew_2019_Jun_18_1224_705,stimulusTOSY08_2IFCnew_2019_Jun_18_1224_706,False,2019_Jun_18_1224,2IFCnew,2,TOSY08,
2IFCnew,53,0,53,0,0.400210399996,2,Yes,8.7,-1,Correct Rejection,0.599829200015,False,True,stimulusTOSY08_2IFCnew_2019_Jun_18_1224_707,stimulusTOSY08_2IFCnew_2019_Jun_18_1224_708,False,2019_Jun_18_1224,2IFCnew,2,TOSY08,
2IFCnew,54,0,54,0,0.433601500001,2,Yes,8.7,-1,Correct Rejection,0.53346050001,False,True,stimulusTOSY08_2IFCnew_2019_Jun_18_1224_709,stimulusTOSY08_2IFCnew_2019_Jun_18_1224_710,False,2019_Jun_18_1224,2IFCnew,2,TOSY08,
2IFCnew,55,0,55,0,0.600656000024,6,No,8.7,-1,Miss,0.63365730003,True,False,stimulusTOSY08_2IFCnew_2019_Jun_18_1224_711,stimulusTOSY08_2IFCnew_2019_Jun_18_1224_712,False,2019_Jun_18_1224,2IFCnew,2,TOSY08,
2IFCnew,56,0,56,0,0.433849300025,1,No,8.7,-1,Hit,0.767586699978,True,False,stimulusTOSY08_2IFCnew_2019_Jun_18_1224_713,stimulusTOSY08_2IFCnew_2019_Jun_18_1224_714,False,2019_Jun_18_1224,2IFCnew,2,TOSY08,
2IFCnew,57,0,57,0,0.534176699992,7,Yes,8.7,-1,Hit,0.434072899981,True,False,stimulusTOSY08_2IFCnew_2019_Jun_18_1224_715,stimulusTOSY08_2IFCnew_2019_Jun_18_1224_716,False,2019_Jun_18_1224,2IFCnew,2,TOSY08,
2IFCnew,58,0,58,0,0.267766600009,5,Yes,8.7,-1,False Alarm,0.467033300025,False,True,stimulusTOSY08_2IFCnew_2019_Jun_18_1224_717,stimulusTOSY08_2IFCnew_2019_Jun_18_1224_718,False,2019_Jun_18_1224,2IFCnew,2,TOSY08,
2IFCnew,59,0,59,0,0.133143399958,1,No,8.7,-1,Hit,0.367149600002,True,False,stimulusTOSY08_2IFCnew_2019_Jun_18_1224_719,stimulusTOSY08_2IFCnew_2019_Jun_18_1224_720,False,2019_Jun_18_1224,2IFCnew,2,TOSY08,
2IFCnew,60,0,60,0,0.267013299977,1,No,8.7,-1,Hit,0.533390800003,True,False,stimulusTOSY08_2IFCnew_2019_Jun_18_1224_721,stimulusTOSY08_2IFCnew_2019_Jun_18_1224_722,False,2019_Jun_18_1224,2IFCnew,2,TOSY08,
2IFCnew,61,0,61,0,0.300496199983,1,No,8.7,-1,Hit,0.40037540003,True,False,stimulusTOSY08_2IFCnew_2019_Jun_18_1224_723,stimulusTOSY08_2IFCnew_2019_Jun_18_1224_724,False,2019_Jun_18_1224,2IFCnew,2,TOSY08,
2IFCnew,62,0,62,0,0.233754199988,2,Yes,8.7,-1,Correct Rejection,0.567419500032,False,True,stimulusTOSY08_2IFCnew_2019_Jun_18_1224_725,stimulusTOSY08_2IFCnew_2019_Jun_18_1224_726,False,2019_Jun_18_1224,2IFCnew,2,TOSY08,
2IFCnew,63,0,63,0,0.366820700001,2,Yes,8.7,-1,Correct Rejection,0.735002400004,False,True,stimulusTOSY08_2IFCnew_2019_Jun_18_1224_727,stimulusTOSY08_2IFCnew_2019_Jun_18_1224_728,False,2019_Jun_18_1224,2IFCnew,2,TOSY08,
2IFCnew,64,0,64,0,0.633870600024,6,No,8.7,-1,Miss,0.567515599949,True,False,stimulusTOSY08_2IFCnew_2019_Jun_18_1224_729,stimulusTOSY08_2IFCnew_2019_Jun_18_1224_730,False,2019_Jun_18_1224,2IFCnew,2,TOSY08,
2IFCnew,65,0,65,0,0.233803500014,2,Yes,8.7,-1,Correct Rejection,0.533888400008,False,True,stimulusTOSY08_2IFCnew_2019_Jun_18_1224_731,stimulusTOSY08_2IFCnew_2019_Jun_18_1224_732,False,2019_Jun_18_1224,2IFCnew,2,TOSY08,
2IFCnew,66,0,66,0,0.267551299999,2,Yes,8.7,-1,Correct Rejection,0.534119999968,False,True,stimulusTOSY08_2IFCnew_2019_Jun_18_1224_733,stimulusTOSY08_2IFCnew_2019_Jun_18_1224_734,False,2019_Jun_18_1224,2IFCnew,2,TOSY08,
2IFCnew,67,0,67,0,0.336959699984,2,Yes,8.7,-1,Correct Rejection,0.568660799996,False,True,stimulusTOSY08_2IFCnew_2019_Jun_18_1224_735,stimulusTOSY08_2IFCnew_2019_Jun_18_1224_736,False,2019_Jun_18_1224,2IFCnew,2,TOSY08,
2IFCnew,68,0,68,0,0.399949399987,1,No,8.7,-1,Hit,0.400416499993,True,False,stimulusTOSY08_2IFCnew_2019_Jun_18_1224_737,stimulusTOSY08_2IFCnew_2019_Jun_18_1224_738,False,2019_Jun_18_1224,2IFCnew,2,TOSY08,
2IFCnew,69,0,69,0,0.367434199958,2,Yes,8.7,-1,Correct Rejection,0.701522200019,False,True,stimulusTOSY08_2IFCnew_2019_Jun_18_1224_739,stimulusTOSY08_2IFCnew_2019_Jun_18_1224_740,False,2019_Jun_18_1224,2IFCnew,2,TOSY08,
2IFCnew,70,0,70,0,0.500250399986,1,No,8.7,-1,Hit,0.500088800036,True,False,stimulusTOSY08_2IFCnew_2019_Jun_18_1224_741,stimulusTOSY08_2IFCnew_2019_Jun_18_1224_742,False,2019_Jun_18_1224,2IFCnew,2,TOSY08,
2IFCnew,71,0,71,0,0.400638599996,4,Yes,8.7,-1,Miss,0.701603199996,True,False,stimulusTOSY08_2IFCnew_2019_Jun_18_1224_743,stimulusTOSY08_2IFCnew_2019_Jun_18_1224_744,False,2019_Jun_18_1224,2IFCnew,2,TOSY08,
2IFCnew,72,0,72,0,0.366662600019,2,Yes,8.7,-1,Correct Rejection,0.700466400012,False,True,stimulusTOSY08_2IFCnew_2019_Jun_18_1224_745,stimulusTOSY08_2IFCnew_2019_Jun_18_1224_746,False,2019_Jun_18_1224,2IFCnew,2,TOSY08,
2IFCnew,73,0,73,0,0.368041299982,1,No,8.7,-1,Hit,0.700974699983,True,False,stimulusTOSY08_2IFCnew_2019_Jun_18_1224_747,stimulusTOSY08_2IFCnew_2019_Jun_18_1224_748,False,2019_Jun_18_1224,2IFCnew,2,TOSY08,
2IFCnew,74,0,74,0,0.467221400002,2,Yes,8.7,-1,Correct Rejection,0.566347600019,False,True,stimulusTOSY08_2IFCnew_2019_Jun_18_1224_749,stimulusTOSY08_2IFCnew_2019_Jun_18_1224_750,False,2019_Jun_18_1224,2IFCnew,2,TOSY08,
2IFCnew,0,0,0,0,0.433749299962,5,Yes,7.7,-1,False Alarm,0.600631500012,False,True,stimulusTOSY08_2IFCnew_2019_Jun_18_1224_751,stimulusTOSY08_2IFCnew_2019_Jun_18_1224_752,False,2019_Jun_18_1224,2IFCnew,2,TOSY08,
2IFCnew,1,0,1,0,0.466948800022,1,No,7.7,-1,Hit,0.433599199983,True,False,stimulusTOSY08_2IFCnew_2019_Jun_18_1224_753,stimulusTOSY08_2IFCnew_2019_Jun_18_1224_754,False,2019_Jun_18_1224,2IFCnew,2,TOSY08,
2IFCnew,2,0,2,0,0.269282000023,2,Yes,7.7,-1,Correct Rejection,0.500846799987,False,True,stimulusTOSY08_2IFCnew_2019_Jun_18_1224_755,stimulusTOSY08_2IFCnew_2019_Jun_18_1224_756,False,2019_Jun_18_1224,2IFCnew,2,TOSY08,
2IFCnew,3,0,3,0,0.300543199992,6,No,7.7,-1,Miss,0.501879999996,True,False,stimulusTOSY08_2IFCnew_2019_Jun_18_1224_757,stimulusTOSY08_2IFCnew_2019_Jun_18_1224_758,False,2019_Jun_18_1224,2IFCnew,2,TOSY08,
2IFCnew,4,0,4,0,0.300009700004,2,Yes,7.7,-1,Correct Rejection,0.567537099996,False,True,stimulusTOSY08_2IFCnew_2019_Jun_18_1224_759,stimulusTOSY08_2IFCnew_2019_Jun_18_1224_760,False,2019_Jun_18_1224,2IFCnew,2,TOSY08,
2IFCnew,5,0,5,0,0.267067700042,4,Yes,7.7,-1,Miss,0.466968799999,True,False,stimulusTOSY08_2IFCnew_2019_Jun_18_1224_761,stimulusTOSY08_2IFCnew_2019_Jun_18_1224_762,False,2019_Jun_18_1224,2IFCnew,2,TOSY08,
2IFCnew,6,0,6,0,0.500657299999,5,Yes,7.7,-1,False Alarm,0.501116700005,False,True,stimulusTOSY08_2IFCnew_2019_Jun_18_1224_763,stimulusTOSY08_2IFCnew_2019_Jun_18_1224_764,False,2019_Jun_18_1224,2IFCnew,2,TOSY08,
2IFCnew,7,0,7,0,0.567602699972,2,Yes,7.7,-1,Correct Rejection,0.767310500029,False,True,stimulusTOSY08_2IFCnew_2019_Jun_18_1224_765,stimulusTOSY08_2IFCnew_2019_Jun_18_1224_766,False,2019_Jun_18_1224,2IFCnew,2,TOSY08,
2IFCnew,8,0,8,0,0.399738000007,1,No,7.7,-1,Hit,0.567270800006,True,False,stimulusTOSY08_2IFCnew_2019_Jun_18_1224_767,stimulusTOSY08_2IFCnew_2019_Jun_18_1224_768,False,2019_Jun_18_1224,2IFCnew,2,TOSY08,
2IFCnew,9,0,9,0,0.366992199968,2,Yes,7.7,-1,Correct Rejection,0.568670100009,False,True,stimulusTOSY08_2IFCnew_2019_Jun_18_1224_769,stimulusTOSY08_2IFCnew_2019_Jun_18_1224_770,False,2019_Jun_18_1224,2IFCnew,2,TOSY08,
2IFCnew,10,0,10,0,0.40102660004,2,Yes,7.7,-1,Correct Rejection,0.433745399991,False,True,stimulusTOSY08_2IFCnew_2019_Jun_18_1224_771,stimulusTOSY08_2IFCnew_2019_Jun_18_1224_772,False,2019_Jun_18_1224,2IFCnew,2,TOSY08,
2IFCnew,11,0,11,0,0.467237300007,1,No,7.7,-1,Hit,0.734648599988,True,False,stimulusTOSY08_2IFCnew_2019_Jun_18_1224_773,stimulusTOSY08_2IFCnew_2019_Jun_18_1224_774,False,2019_Jun_18_1224,2IFCnew,2,TOSY08,
2IFCnew,12,0,12,0,0.334047799988,1,No,7.7,-1,Hit,0.6688325,True,False,stimulusTOSY08_2IFCnew_2019_Jun_18_1224_775,stimulusTOSY08_2IFCnew_2019_Jun_18_1224_776,False,2019_Jun_18_1224,2IFCnew,2,TOSY08,
2IFCnew,13,0,13,0,0.400622599991,2,Yes,7.7,-1,Correct Rejection,0.633955999976,False,True,stimulusTOSY08_2IFCnew_2019_Jun_18_1224_777,stimulusTOSY08_2IFCnew_2019_Jun_18_1224_778,False,2019_Jun_18_1224,2IFCnew,2,TOSY08,
2IFCnew,14,0,14,0,0.433671300008,4,Yes,7.7,-1,Miss,0.568020200008,True,False,stimulusTOSY08_2IFCnew_2019_Jun_18_1224_779,stimulusTOSY08_2IFCnew_2019_Jun_18_1224_780,False,2019_Jun_18_1224,2IFCnew,2,TOSY08,
2IFCnew,15,0,15,0,0.598489199998,1,No,7.7,-1,Hit,0.432859599998,True,False,stimulusTOSY08_2IFCnew_2019_Jun_18_1224_781,stimulusTOSY08_2IFCnew_2019_Jun_18_1224_782,False,2019_Jun_18_1224,2IFCnew,2,TOSY08,
2IFCnew,16,0,16,0,0.631723999977,4,Yes,7.7,-1,Miss,0.667912400037,True,False,stimulusTOSY08_2IFCnew_2019_Jun_18_1224_783,stimulusTOSY08_2IFCnew_2019_Jun_18_1224_784,False,2019_Jun_18_1224,2IFCnew,2,TOSY08,
2IFCnew,17,0,17,0,0.47041759995,2,Yes,7.7,-1,Correct Rejection,0.700187000039,False,True,stimulusTOSY08_2IFCnew_2019_Jun_18_1224_785,stimulusTOSY08_2IFCnew_2019_Jun_18_1224_786,False,2019_Jun_18_1224,2IFCnew,2,TOSY08,
2IFCnew,18,0,18,0,0.333676799957,1,No,7.7,-1,Hit,0.600967000006,True,False,stimulusTOSY08_2IFCnew_2019_Jun_18_1224_787,stimulusTOSY08_2IFCnew_2019_Jun_18_1224_788,False,2019_Jun_18_1224,2IFCnew,2,TOSY08,
2IFCnew,19,0,19,0,0.834086899995,4,Yes,7.7,-1,Miss,0.699949900038,True,False,stimulusTOSY08_2IFCnew_2019_Jun_18_1224_789,stimulusTOSY08_2IFCnew_2019_Jun_18_1224_790,False,2019_Jun_18_1224,2IFCnew,2,TOSY08,
2IFCnew,20,0,20,0,0.533957200008,1,No,7.7,-1,Hit,0.467622300028,True,False,stimulusTOSY08_2IFCnew_2019_Jun_18_1224_791,stimulusTOSY08_2IFCnew_2019_Jun_18_1224_792,False,2019_Jun_18_1224,2IFCnew,2,TOSY08,
2IFCnew,21,0,21,0,0.634166300006,5,Yes,7.7,-1,False Alarm,0.533880500006,False,True,stimulusTOSY08_2IFCnew_2019_Jun_18_1224_793,stimulusTOSY08_2IFCnew_2019_Jun_18_1224_794,False,2019_Jun_18_1224,2IFCnew,2,TOSY08,
2IFCnew,22,0,22,0,0.400352199969,4,Yes,7.7,-1,Miss,0.604368500004,True,False,stimulusTOSY08_2IFCnew_2019_Jun_18_1224_795,stimulusTOSY08_2IFCnew_2019_Jun_18_1224_796,False,2019_Jun_18_1224,2IFCnew,2,TOSY08,
2IFCnew,23,0,23,0,0.200367300014,1,No,7.7,-1,Hit,0.534084799991,True,False,stimulusTOSY08_2IFCnew_2019_Jun_18_1224_797,stimulusTOSY08_2IFCnew_2019_Jun_18_1224_798,False,2019_Jun_18_1224,2IFCnew,2,TOSY08,
2IFCnew,24,0,24,0,0.434788600018,1,No,7.7,-1,Hit,0.700731000048,True,False,stimulusTOSY08_2IFCnew_2019_Jun_18_1224_799,stimulusTOSY08_2IFCnew_2019_Jun_18_1224_800,False,2019_Jun_18_1224,2IFCnew,2,TOSY08,
2IFCnew,25,0,25,0,0.233450500004,1,No,7.7,-1,Hit,0.5667426,True,False,stimulusTOSY08_2IFCnew_2019_Jun_18_1224_801,stimulusTOSY08_2IFCnew_2019_Jun_18_1224_802,False,2019_Jun_18_1224,2IFCnew,2,TOSY08,
2IFCnew,26,0,26,0,0.267547599971,1,No,7.7,-1,Hit,0.501369200007,True,False,stimulusTOSY08_2IFCnew_2019_Jun_18_1224_803,stimulusTOSY08_2IFCnew_2019_Jun_18_1224_804,False,2019_Jun_18_1224,2IFCnew,2,TOSY08,
2IFCnew,27,0,27,0,0.267343799991,1,No,7.7,-1,Hit,0.633452899987,True,False,stimulusTOSY08_2IFCnew_2019_Jun_18_1224_805,stimulusTOSY08_2IFCnew_2019_Jun_18_1224_806,False,2019_Jun_18_1224,2IFCnew,2,TOSY08,
2IFCnew,28,0,28,0,0.534306300047,1,No,7.7,-1,Hit,0.53427189996,True,False,stimulusTOSY08_2IFCnew_2019_Jun_18_1224_807,stimulusTOSY08_2IFCnew_2019_Jun_18_1224_808,False,2019_Jun_18_1224,2IFCnew,2,TOSY08,
2IFCnew,29,0,29,0,0.466416299983,2,Yes,7.7,-1,Correct Rejection,0.868769399996,False,True,stimulusTOSY08_2IFCnew_2019_Jun_18_1224_809,stimulusTOSY08_2IFCnew_2019_Jun_18_1224_810,False,2019_Jun_18_1224,2IFCnew,2,TOSY08,
2IFCnew,30,0,30,0,0.333914800023,4,Yes,7.7,-1,Miss,0.700462299981,True,False,stimulusTOSY08_2IFCnew_2019_Jun_18_1224_811,stimulusTOSY08_2IFCnew_2019_Jun_18_1224_812,False,2019_Jun_18_1224,2IFCnew,2,TOSY08,
2IFCnew,31,0,31,0,0.333376399998,2,Yes,7.7,-1,Correct Rejection,0.733856900013,False,True,stimulusTOSY08_2IFCnew_2019_Jun_18_1224_813,stimulusTOSY08_2IFCnew_2019_Jun_18_1224_814,False,2019_Jun_18_1224,2IFCnew,2,TOSY08,
2IFCnew,32,0,32,0,0.533707300026,1,No,7.7,-1,Hit,0.866890300007,True,False,stimulusTOSY08_2IFCnew_2019_Jun_18_1224_815,stimulusTOSY08_2IFCnew_2019_Jun_18_1224_816,False,2019_Jun_18_1224,2IFCnew,2,TOSY08,
2IFCnew,33,0,33,0,0.200397399953,1,No,7.7,-1,Hit,0.635692799988,True,False,stimulusTOSY08_2IFCnew_2019_Jun_18_1224_817,stimulusTOSY08_2IFCnew_2019_Jun_18_1224_818,False,2019_Jun_18_1224,2IFCnew,2,TOSY08,
2IFCnew,34,0,34,0,0.267156900023,1,No,7.7,-1,Hit,0.535192300042,True,False,stimulusTOSY08_2IFCnew_2019_Jun_18_1224_819,stimulusTOSY08_2IFCnew_2019_Jun_18_1224_820,False,2019_Jun_18_1224,2IFCnew,2,TOSY08,
2IFCnew,35,0,35,0,0.367113300017,5,Yes,7.7,-1,False Alarm,0.467499700026,False,True,stimulusTOSY08_2IFCnew_2019_Jun_18_1224_821,stimulusTOSY08_2IFCnew_2019_Jun_18_1224_822,False,2019_Jun_18_1224,2IFCnew,2,TOSY08,
2IFCnew,36,0,36,0,0.368786700012,2,Yes,7.7,-1,Correct Rejection,0.500521300011,False,True,stimulusTOSY08_2IFCnew_2019_Jun_18_1224_823,stimulusTOSY08_2IFCnew_2019_Jun_18_1224_824,False,2019_Jun_18_1224,2IFCnew,2,TOSY08,
2IFCnew,37,0,37,0,0.300393900019,4,Yes,7.7,-1,Miss,0.63420609996,True,False,stimulusTOSY08_2IFCnew_2019_Jun_18_1224_825,stimulusTOSY08_2IFCnew_2019_Jun_18_1224_826,False,2019_Jun_18_1224,2IFCnew,2,TOSY08,
2IFCnew,38,0,38,0,0.133850999991,1,No,7.7,-1,Hit,0.368180700054,True,False,stimulusTOSY08_2IFCnew_2019_Jun_18_1224_827,stimulusTOSY08_2IFCnew_2019_Jun_18_1224_828,False,2019_Jun_18_1224,2IFCnew,2,TOSY08,
2IFCnew,39,0,39,0,0.335129400017,4,Yes,7.7,-1,Miss,0.598948800005,True,False,stimulusTOSY08_2IFCnew_2019_Jun_18_1224_829,stimulusTOSY08_2IFCnew_2019_Jun_18_1224_830,False,2019_Jun_18_1224,2IFCnew,2,TOSY08,
2IFCnew,40,0,40,0,0.167741899961,1,No,7.7,-1,Hit,0.367252599972,True,False,stimulusTOSY08_2IFCnew_2019_Jun_18_1224_831,stimulusTOSY08_2IFCnew_2019_Jun_18_1224_832,False,2019_Jun_18_1224,2IFCnew,2,TOSY08,
2IFCnew,41,0,41,0,0.300282899989,2,Yes,7.7,-1,Correct Rejection,0.534429799998,False,True,stimulusTOSY08_2IFCnew_2019_Jun_18_1224_833,stimulusTOSY08_2IFCnew_2019_Jun_18_1224_834,False,2019_Jun_18_1224,2IFCnew,2,TOSY08,
2IFCnew,42,0,42,0,0.333949099993,4,Yes,7.7,-1,Miss,0.500376799959,True,False,stimulusTOSY08_2IFCnew_2019_Jun_18_1224_835,stimulusTOSY08_2IFCnew_2019_Jun_18_1224_836,False,2019_Jun_18_1224,2IFCnew,2,TOSY08,
2IFCnew,43,0,43,0,0.0984001000179,1,No,7.7,-1,Hit,0.336427800008,True,False,stimulusTOSY08_2IFCnew_2019_Jun_18_1224_837,stimulusTOSY08_2IFCnew_2019_Jun_18_1224_838,False,2019_Jun_18_1224,2IFCnew,2,TOSY08,
2IFCnew,44,0,44,0,0.333515100006,5,Yes,7.7,-1,False Alarm,0.499707899988,False,True,stimulusTOSY08_2IFCnew_2019_Jun_18_1224_839,stimulusTOSY08_2IFCnew_2019_Jun_18_1224_840,False,2019_Jun_18_1224,2IFCnew,2,TOSY08,
2IFCnew,45,0,45,0,0.165940599982,4,Yes,7.7,-1,Miss,0.36715950002,True,False,stimulusTOSY08_2IFCnew_2019_Jun_18_1224_841,stimulusTOSY08_2IFCnew_2019_Jun_18_1224_842,False,2019_Jun_18_1224,2IFCnew,2,TOSY08,
2IFCnew,46,0,46,0,0.500808199984,1,No,7.7,-1,Hit,0.733937900048,True,False,stimulusTOSY08_2IFCnew_2019_Jun_18_1224_843,stimulusTOSY08_2IFCnew_2019_Jun_18_1224_844,False,2019_Jun_18_1224,2IFCnew,2,TOSY08,
2IFCnew,47,0,47,0,0.400772800029,6,No,7.7,-1,Miss,0.603547900042,True,False,stimulusTOSY08_2IFCnew_2019_Jun_18_1224_845,stimulusTOSY08_2IFCnew_2019_Jun_18_1224_846,False,2019_Jun_18_1224,2IFCnew,2,TOSY08,
2IFCnew,48,0,48,0,0.300498299999,4,Yes,7.7,-1,Miss,0.500247800024,True,False,stimulusTOSY08_2IFCnew_2019_Jun_18_1224_847,stimulusTOSY08_2IFCnew_2019_Jun_18_1224_848,False,2019_Jun_18_1224,2IFCnew,2,TOSY08,
2IFCnew,49,0,49,0,0.333506499999,1,No,7.7,-1,Hit,0.535260999983,True,False,stimulusTOSY08_2IFCnew_2019_Jun_18_1224_849,stimulusTOSY08_2IFCnew_2019_Jun_18_1224_850,False,2019_Jun_18_1224,2IFCnew,2,TOSY08,
2IFCnew,50,0,50,0,0.466922299995,6,No,7.7,-1,Miss,0.534172000014,True,False,stimulusTOSY08_2IFCnew_2019_Jun_18_1224_851,stimulusTOSY08_2IFCnew_2019_Jun_18_1224_852,False,2019_Jun_18_1224,2IFCnew,2,TOSY08,
2IFCnew,51,0,51,0,0.234339000017,2,Yes,7.7,-1,Correct Rejection,0.533603999997,False,True,stimulusTOSY08_2IFCnew_2019_Jun_18_1224_853,stimulusTOSY08_2IFCnew_2019_Jun_18_1224_854,False,2019_Jun_18_1224,2IFCnew,2,TOSY08,
2IFCnew,52,0,52,0,0.268025500001,2,Yes,7.7,-1,Correct Rejection,0.600728899997,False,True,stimulusTOSY08_2IFCnew_2019_Jun_18_1224_855,stimulusTOSY08_2IFCnew_2019_Jun_18_1224_856,False,2019_Jun_18_1224,2IFCnew,2,TOSY08,
2IFCnew,53,0,53,0,0.334549500025,3,No,7.7,-1,False Alarm,0.667896399973,False,True,stimulusTOSY08_2IFCnew_2019_Jun_18_1224_857,stimulusTOSY08_2IFCnew_2019_Jun_18_1224_858,False,2019_Jun_18_1224,2IFCnew,2,TOSY08,
2IFCnew,54,0,54,0,0.300322199997,4,Yes,7.7,-1,Miss,0.467003000027,True,False,stimulusTOSY08_2IFCnew_2019_Jun_18_1224_859,stimulusTOSY08_2IFCnew_2019_Jun_18_1224_860,False,2019_Jun_18_1224,2IFCnew,2,TOSY08,
2IFCnew,55,0,55,0,0.166890799999,1,No,7.7,-1,Hit,0.534839399974,True,False,stimulusTOSY08_2IFCnew_2019_Jun_18_1224_861,stimulusTOSY08_2IFCnew_2019_Jun_18_1224_862,False,2019_Jun_18_1224,2IFCnew,2,TOSY08,
2IFCnew,56,0,56,0,0.266583300021,6,No,7.7,-1,Miss,0.400839300011,True,False,stimulusTOSY08_2IFCnew_2019_Jun_18_1224_863,stimulusTOSY08_2IFCnew_2019_Jun_18_1224_864,False,2019_Jun_18_1224,2IFCnew,2,TOSY08,
2IFCnew,57,0,57,0,0.23338759999,2,Yes,7.7,-1,Correct Rejection,0.434599600034,False,True,stimulusTOSY08_2IFCnew_2019_Jun_18_1224_865,stimulusTOSY08_2IFCnew_2019_Jun_18_1224_866,False,2019_Jun_18_1224,2IFCnew,2,TOSY08,
2IFCnew,58,0,58,0,0.30058510002,1,No,7.7,-1,Hit,0.467203299981,True,False,stimulusTOSY08_2IFCnew_2019_Jun_18_1224_867,stimulusTOSY08_2IFCnew_2019_Jun_18_1224_868,False,2019_Jun_18_1224,2IFCnew,2,TOSY08,
2IFCnew,59,0,59,0,0.266403999995,6,No,7.7,-1,Miss,0.46723530005,True,False,stimulusTOSY08_2IFCnew_2019_Jun_18_1224_869,stimulusTOSY08_2IFCnew_2019_Jun_18_1224_870,False,2019_Jun_18_1224,2IFCnew,2,TOSY08,
2IFCnew,60,0,60,0,0.36694529996,1,No,7.7,-1,Hit,0.733027899987,True,False,stimulusTOSY08_2IFCnew_2019_Jun_18_1224_871,stimulusTOSY08_2IFCnew_2019_Jun_18_1224_872,False,2019_Jun_18_1224,2IFCnew,2,TOSY08,
2IFCnew,61,0,61,0,0.400501099997,2,Yes,7.7,-1,Correct Rejection,0.799938099983,False,True,stimulusTOSY08_2IFCnew_2019_Jun_18_1224_873,stimulusTOSY08_2IFCnew_2019_Jun_18_1224_874,False,2019_Jun_18_1224,2IFCnew,2,TOSY08,
2IFCnew,62,0,62,0,0.600354800001,5,Yes,7.7,-1,False Alarm,0.767175999994,False,True,stimulusTOSY08_2IFCnew_2019_Jun_18_1224_875,stimulusTOSY08_2IFCnew_2019_Jun_18_1224_876,False,2019_Jun_18_1224,2IFCnew,2,TOSY08,
2IFCnew,63,0,63,0,0.467052399996,5,Yes,7.7,-1,False Alarm,0.668981299968,False,True,stimulusTOSY08_2IFCnew_2019_Jun_18_1224_877,stimulusTOSY08_2IFCnew_2019_Jun_18_1224_878,False,2019_Jun_18_1224,2IFCnew,2,TOSY08,
2IFCnew,64,0,64,0,0.368357500003,5,Yes,7.7,-1,False Alarm,0.367251700023,False,True,stimulusTOSY08_2IFCnew_2019_Jun_18_1224_879,stimulusTOSY08_2IFCnew_2019_Jun_18_1224_880,False,2019_Jun_18_1224,2IFCnew,2,TOSY08,
2IFCnew,65,0,65,0,0.300292200001,1,No,7.7,-1,Hit,0.433964100026,True,False,stimulusTOSY08_2IFCnew_2019_Jun_18_1224_881,stimulusTOSY08_2IFCnew_2019_Jun_18_1224_882,False,2019_Jun_18_1224,2IFCnew,2,TOSY08,
2IFCnew,66,0,66,0,0.300274399982,7,Yes,7.7,-1,Hit,0.534071899951,True,False,stimulusTOSY08_2IFCnew_2019_Jun_18_1224_883,stimulusTOSY08_2IFCnew_2019_Jun_18_1224_884,False,2019_Jun_18_1224,2IFCnew,2,TOSY08,
2IFCnew,67,0,67,0,0.400368099974,1,No,7.7,-1,Hit,0.400629099982,True,False,stimulusTOSY08_2IFCnew_2019_Jun_18_1224_885,stimulusTOSY08_2IFCnew_2019_Jun_18_1224_886,False,2019_Jun_18_1224,2IFCnew,2,TOSY08,
2IFCnew,68,0,68,0,0.333674599999,1,No,7.7,-1,Hit,0.535305300029,True,False,stimulusTOSY08_2IFCnew_2019_Jun_18_1224_887,stimulusTOSY08_2IFCnew_2019_Jun_18_1224_888,False,2019_Jun_18_1224,2IFCnew,2,TOSY08,
2IFCnew,69,0,69,0,0.534800200025,7,Yes,7.7,-1,Hit,0.56792880001,True,False,stimulusTOSY08_2IFCnew_2019_Jun_18_1224_889,stimulusTOSY08_2IFCnew_2019_Jun_18_1224_890,False,2019_Jun_18_1224,2IFCnew,2,TOSY08,
2IFCnew,70,0,70,0,0.467158400046,7,Yes,7.7,-1,Hit,0.333769999968,True,False,stimulusTOSY08_2IFCnew_2019_Jun_18_1224_891,stimulusTOSY08_2IFCnew_2019_Jun_18_1224_892,False,2019_Jun_18_1224,2IFCnew,2,TOSY08,
2IFCnew,71,0,71,0,0.166936199996,1,No,7.7,-1,Hit,0.335417599999,True,False,stimulusTOSY08_2IFCnew_2019_Jun_18_1224_893,stimulusTOSY08_2IFCnew_2019_Jun_18_1224_894,False,2019_Jun_18_1224,2IFCnew,2,TOSY08,
2IFCnew,72,0,72,0,0.233655999997,2,Yes,7.7,-1,Correct Rejection,0.467483600019,False,True,stimulusTOSY08_2IFCnew_2019_Jun_18_1224_895,stimulusTOSY08_2IFCnew_2019_Jun_18_1224_896,False,2019_Jun_18_1224,2IFCnew,2,TOSY08,
2IFCnew,73,0,73,0,0.367093900044,4,Yes,7.7,-1,Miss,0.600388700026,True,False,stimulusTOSY08_2IFCnew_2019_Jun_18_1224_897,stimulusTOSY08_2IFCnew_2019_Jun_18_1224_898,False,2019_Jun_18_1224,2IFCnew,2,TOSY08,
2IFCnew,74,0,74,0,0.23308570002,1,No,7.7,-1,Hit,0.400751799985,True,False,stimulusTOSY08_2IFCnew_2019_Jun_18_1224_899,stimulusTOSY08_2IFCnew_2019_Jun_18_1224_900,False,2019_Jun_18_1224,2IFCnew,2,TOSY08,
2IFCnew,0,0,0,0,0.468484200013,5,Yes,10.7,-1,False Alarm,0.400554700056,False,True,stimulusTOSY08_2IFCnew_2019_Jun_18_1224_901,stimulusTOSY08_2IFCnew_2019_Jun_18_1224_902,False,2019_Jun_18_1224,2IFCnew,2,TOSY08,
2IFCnew,1,0,1,0,0.333765299991,2,Yes,10.7,-1,Correct Rejection,0.468440800032,False,True,stimulusTOSY08_2IFCnew_2019_Jun_18_1224_903,stimulusTOSY08_2IFCnew_2019_Jun_18_1224_904,False,2019_Jun_18_1224,2IFCnew,2,TOSY08,
2IFCnew,2,0,2,0,0.233547699987,1,No,10.7,-1,Hit,0.503053200024,True,False,stimulusTOSY08_2IFCnew_2019_Jun_18_1224_905,stimulusTOSY08_2IFCnew_2019_Jun_18_1224_906,False,2019_Jun_18_1224,2IFCnew,2,TOSY08,
2IFCnew,3,0,3,0,0.300585200021,1,No,10.7,-1,Hit,0.467548600049,True,False,stimulusTOSY08_2IFCnew_2019_Jun_18_1224_907,stimulusTOSY08_2IFCnew_2019_Jun_18_1224_908,False,2019_Jun_18_1224,2IFCnew,2,TOSY08,
2IFCnew,4,0,4,0,0.434155299969,5,Yes,10.7,-1,False Alarm,0.56684590003,False,True,stimulusTOSY08_2IFCnew_2019_Jun_18_1224_909,stimulusTOSY08_2IFCnew_2019_Jun_18_1224_910,False,2019_Jun_18_1224,2IFCnew,2,TOSY08,
2IFCnew,5,0,5,0,0.300457899983,5,Yes,10.7,-1,False Alarm,0.365723199968,False,True,stimulusTOSY08_2IFCnew_2019_Jun_18_1224_911,stimulusTOSY08_2IFCnew_2019_Jun_18_1224_912,False,2019_Jun_18_1224,2IFCnew,2,TOSY08,
2IFCnew,6,0,6,0,0.333819099993,5,Yes,10.7,-1,False Alarm,0.367250500014,False,True,stimulusTOSY08_2IFCnew_2019_Jun_18_1224_913,stimulusTOSY08_2IFCnew_2019_Jun_18_1224_914,False,2019_Jun_18_1224,2IFCnew,2,TOSY08,
2IFCnew,7,0,7,0,0.467925799952,1,No,10.7,-1,Hit,0.367075700022,True,False,stimulusTOSY08_2IFCnew_2019_Jun_18_1224_915,stimulusTOSY08_2IFCnew_2019_Jun_18_1224_916,False,2019_Jun_18_1224,2IFCnew,2,TOSY08,
2IFCnew,8,0,8,0,0.300240900018,2,Yes,10.7,-1,Correct Rejection,0.533602299984,False,True,stimulusTOSY08_2IFCnew_2019_Jun_18_1224_917,stimulusTOSY08_2IFCnew_2019_Jun_18_1224_918,False,2019_Jun_18_1224,2IFCnew,2,TOSY08,
2IFCnew,9,0,9,0,0.366730099951,5,Yes,10.7,-1,False Alarm,0.533932699997,False,True,stimulusTOSY08_2IFCnew_2019_Jun_18_1224_919,stimulusTOSY08_2IFCnew_2019_Jun_18_1224_920,False,2019_Jun_18_1224,2IFCnew,2,TOSY08,
2IFCnew,10,0,10,0,0.266856000002,1,No,10.7,-1,Hit,0.466638299986,True,False,stimulusTOSY08_2IFCnew_2019_Jun_18_1224_921,stimulusTOSY08_2IFCnew_2019_Jun_18_1224_922,False,2019_Jun_18_1224,2IFCnew,2,TOSY08,
2IFCnew,11,0,11,0,0.266859699972,1,No,10.7,-1,Hit,0.50078100001,True,False,stimulusTOSY08_2IFCnew_2019_Jun_18_1224_923,stimulusTOSY08_2IFCnew_2019_Jun_18_1224_924,False,2019_Jun_18_1224,2IFCnew,2,TOSY08,
2IFCnew,12,0,12,0,0.267127499974,3,No,10.7,-1,False Alarm,0.500560200016,False,True,stimulusTOSY08_2IFCnew_2019_Jun_18_1224_925,stimulusTOSY08_2IFCnew_2019_Jun_18_1224_926,False,2019_Jun_18_1224,2IFCnew,2,TOSY08,
2IFCnew,13,0,13,0,0.500944399973,7,Yes,10.7,-1,Hit,0.50036799995,True,False,stimulusTOSY08_2IFCnew_2019_Jun_18_1224_927,stimulusTOSY08_2IFCnew_2019_Jun_18_1224_928,False,2019_Jun_18_1224,2IFCnew,2,TOSY08,
2IFCnew,14,0,14,0,0.134027499997,1,No,10.7,-1,Hit,0.433086899982,True,False,stimulusTOSY08_2IFCnew_2019_Jun_18_1224_929,stimulusTOSY08_2IFCnew_2019_Jun_18_1224_930,False,2019_Jun_18_1224,2IFCnew,2,TOSY08,
2IFCnew,15,0,15,0,0.567319100024,5,Yes,10.7,-1,False Alarm,0.500749800005,False,True,stimulusTOSY08_2IFCnew_2019_Jun_18_1224_931,stimulusTOSY08_2IFCnew_2019_Jun_18_1224_932,False,2019_Jun_18_1224,2IFCnew,2,TOSY08,
2IFCnew,16,0,16,0,0.334132199991,5,Yes,10.7,-1,False Alarm,0.400841899973,False,True,stimulusTOSY08_2IFCnew_2019_Jun_18_1224_933,stimulusTOSY08_2IFCnew_2019_Jun_18_1224_934,False,2019_Jun_18_1224,2IFCnew,2,TOSY08,
2IFCnew,17,0,17,0,0.433994100022,3,No,10.7,-1,False Alarm,0.367613999988,False,True,stimulusTOSY08_2IFCnew_2019_Jun_18_1224_935,stimulusTOSY08_2IFCnew_2019_Jun_18_1224_936,False,2019_Jun_18_1224,2IFCnew,2,TOSY08,
2IFCnew,18,0,18,0,0.399928600003,5,Yes,10.7,-1,False Alarm,0.467127399985,False,True,stimulusTOSY08_2IFCnew_2019_Jun_18_1224_937,stimulusTOSY08_2IFCnew_2019_Jun_18_1224_938,False,2019_Jun_18_1224,2IFCnew,2,TOSY08,
2IFCnew,19,0,19,0,0.433589900029,5,Yes,10.7,-1,False Alarm,0.633950000047,False,True,stimulusTOSY08_2IFCnew_2019_Jun_18_1224_939,stimulusTOSY08_2IFCnew_2019_Jun_18_1224_940,False,2019_Jun_18_1224,2IFCnew,2,TOSY08,
2IFCnew,20,0,20,0,0.235255200008,6,No,10.7,-1,Miss,0.36719010002,True,False,stimulusTOSY08_2IFCnew_2019_Jun_18_1224_941,stimulusTOSY08_2IFCnew_2019_Jun_18_1224_942,False,2019_Jun_18_1224,2IFCnew,2,TOSY08,
2IFCnew,21,0,21,0,0.300893499982,2,Yes,10.7,-1,Correct Rejection,0.599760399957,False,True,stimulusTOSY08_2IFCnew_2019_Jun_18_1224_943,stimulusTOSY08_2IFCnew_2019_Jun_18_1224_944,False,2019_Jun_18_1224,2IFCnew,2,TOSY08,
2IFCnew,22,0,22,0,0.333897399949,1,No,10.7,-1,Hit,0.633952999953,True,False,stimulusTOSY08_2IFCnew_2019_Jun_18_1224_945,stimulusTOSY08_2IFCnew_2019_Jun_18_1224_946,False,2019_Jun_18_1224,2IFCnew,2,TOSY08,
2IFCnew,23,0,23,0,0.201177400013,1,No,10.7,-1,Hit,0.467270800029,True,False,stimulusTOSY08_2IFCnew_2019_Jun_18_1224_947,stimulusTOSY08_2IFCnew_2019_Jun_18_1224_948,False,2019_Jun_18_1224,2IFCnew,2,TOSY08,
2IFCnew,24,0,24,0,0.133574399981,1,No,10.7,-1,Hit,0.366441400023,True,False,stimulusTOSY08_2IFCnew_2019_Jun_18_1224_949,stimulusTOSY08_2IFCnew_2019_Jun_18_1224_950,False,2019_Jun_18_1224,2IFCnew,2,TOSY08,
