Task,trials.thisRepN,trials.thisTrialN,trials.thisN,trials.thisIndex,signal_intensity,constant Value,response,time_response,signal_on_stimuluspos1,signal_on_stimuluspos2,stimulus_name_pos1,stimulus_name_pos2,random_intensity,date,expName,session,participant,
Yes-No Task,0,0,0,0,7.7,-1,Hit,0.700604999904,True,-1,stimulus_TOSY08_Yes-No Task_2019_Jul_02_1300_1,-1,True,2019_Jul_02_1300,Yes-No Task,3,TOSY08,
Yes-No Task,1,0,1,0,7.7,-1,Hit,0.667574800085,True,-1,stimulus_TOSY08_Yes-No Task_2019_Jul_02_1300_2,-1,True,2019_Jul_02_1300,Yes-No Task,3,TOSY08,
Yes-No Task,2,0,2,0,12.9,-1,Correct Rejection,0.534402099904,False,-1,stimulus_TOSY08_Yes-No Task_2019_Jul_02_1300_3,-1,True,2019_Jul_02_1300,Yes-No Task,3,TOSY08,
Yes-No Task,3,0,3,0,9.7,-1,False Alarm,0.600876899902,False,-1,stimulus_TOSY08_Yes-No Task_2019_Jul_02_1300_4,-1,True,2019_Jul_02_1300,Yes-No Task,3,TOSY08,
Yes-No Task,4,0,4,0,7.7,-1,False Alarm,0.700425999938,False,-1,stimulus_TOSY08_Yes-No Task_2019_Jul_02_1300_5,-1,True,2019_Jul_02_1300,Yes-No Task,3,TOSY08,
Yes-No Task,5,0,5,0,8.7,-1,Correct Rejection,0.603462599916,False,-1,stimulus_TOSY08_Yes-No Task_2019_Jul_02_1300_6,-1,True,2019_Jul_02_1300,Yes-No Task,3,TOSY08,
Yes-No Task,6,0,6,0,6.5,-1,False Alarm,0.735992799979,False,-1,stimulus_TOSY08_Yes-No Task_2019_Jul_02_1300_7,-1,True,2019_Jul_02_1300,Yes-No Task,3,TOSY08,
Yes-No Task,7,0,7,0,8.7,-1,Hit,0.533897700021,True,-1,stimulus_TOSY08_Yes-No Task_2019_Jul_02_1300_8,-1,True,2019_Jul_02_1300,Yes-No Task,3,TOSY08,
Yes-No Task,8,0,8,0,12.9,-1,Correct Rejection,0.628327400191,False,-1,stimulus_TOSY08_Yes-No Task_2019_Jul_02_1300_9,-1,True,2019_Jul_02_1300,Yes-No Task,3,TOSY08,
Yes-No Task,9,0,9,0,8.7,-1,Correct Rejection,0.70064960001,False,-1,stimulus_TOSY08_Yes-No Task_2019_Jul_02_1300_10,-1,True,2019_Jul_02_1300,Yes-No Task,3,TOSY08,
Yes-No Task,10,0,10,0,12.9,-1,False Alarm,0.76769810007,False,-1,stimulus_TOSY08_Yes-No Task_2019_Jul_02_1300_11,-1,True,2019_Jul_02_1300,Yes-No Task,3,TOSY08,
Yes-No Task,11,0,11,0,6.5,-1,Hit,0.601615299936,True,-1,stimulus_TOSY08_Yes-No Task_2019_Jul_02_1300_12,-1,True,2019_Jul_02_1300,Yes-No Task,3,TOSY08,
Yes-No Task,12,0,12,0,4.9,-1,Hit,0.667979200138,True,-1,stimulus_TOSY08_Yes-No Task_2019_Jul_02_1300_13,-1,True,2019_Jul_02_1300,Yes-No Task,3,TOSY08,
Yes-No Task,13,0,13,0,12.9,-1,Hit,0.567189799855,True,-1,stimulus_TOSY08_Yes-No Task_2019_Jul_02_1300_14,-1,True,2019_Jul_02_1300,Yes-No Task,3,TOSY08,
Yes-No Task,14,0,14,0,9.7,-1,Hit,0.533826699946,True,-1,stimulus_TOSY08_Yes-No Task_2019_Jul_02_1300_15,-1,True,2019_Jul_02_1300,Yes-No Task,3,TOSY08,
Yes-No Task,15,0,15,0,10.7,-1,Hit,0.502026699949,True,-1,stimulus_TOSY08_Yes-No Task_2019_Jul_02_1300_16,-1,True,2019_Jul_02_1300,Yes-No Task,3,TOSY08,
Yes-No Task,16,0,16,0,9.7,-1,False Alarm,0.633825399913,False,-1,stimulus_TOSY08_Yes-No Task_2019_Jul_02_1300_17,-1,True,2019_Jul_02_1300,Yes-No Task,3,TOSY08,
Yes-No Task,17,0,17,0,8.7,-1,Correct Rejection,0.568628299981,False,-1,stimulus_TOSY08_Yes-No Task_2019_Jul_02_1300_18,-1,True,2019_Jul_02_1300,Yes-No Task,3,TOSY08,
Yes-No Task,18,0,18,0,9.7,-1,Correct Rejection,0.599924400216,False,-1,stimulus_TOSY08_Yes-No Task_2019_Jul_02_1300_19,-1,True,2019_Jul_02_1300,Yes-No Task,3,TOSY08,
Yes-No Task,19,0,19,0,12.9,-1,Correct Rejection,0.667468500091,False,-1,stimulus_TOSY08_Yes-No Task_2019_Jul_02_1300_20,-1,True,2019_Jul_02_1300,Yes-No Task,3,TOSY08,
Yes-No Task,20,0,20,0,12.9,-1,False Alarm,0.66746919998,False,-1,stimulus_TOSY08_Yes-No Task_2019_Jul_02_1300_21,-1,True,2019_Jul_02_1300,Yes-No Task,3,TOSY08,
Yes-No Task,21,0,21,0,9.7,-1,Hit,0.533891899977,True,-1,stimulus_TOSY08_Yes-No Task_2019_Jul_02_1300_22,-1,True,2019_Jul_02_1300,Yes-No Task,3,TOSY08,
Yes-No Task,22,0,22,0,6.5,-1,Hit,0.567752599949,True,-1,stimulus_TOSY08_Yes-No Task_2019_Jul_02_1300_23,-1,True,2019_Jul_02_1300,Yes-No Task,3,TOSY08,
Yes-No Task,23,0,23,0,4.9,-1,Hit,0.634476700099,True,-1,stimulus_TOSY08_Yes-No Task_2019_Jul_02_1300_24,-1,True,2019_Jul_02_1300,Yes-No Task,3,TOSY08,
Yes-No Task,24,0,24,0,9.7,-1,Hit,0.533563500037,True,-1,stimulus_TOSY08_Yes-No Task_2019_Jul_02_1300_25,-1,True,2019_Jul_02_1300,Yes-No Task,3,TOSY08,
Yes-No Task,25,0,25,0,7.7,-1,Correct Rejection,0.633771700086,False,-1,stimulus_TOSY08_Yes-No Task_2019_Jul_02_1300_26,-1,True,2019_Jul_02_1300,Yes-No Task,3,TOSY08,
Yes-No Task,26,0,26,0,6.5,-1,Hit,0.533137300052,True,-1,stimulus_TOSY08_Yes-No Task_2019_Jul_02_1300_27,-1,True,2019_Jul_02_1300,Yes-No Task,3,TOSY08,
Yes-No Task,27,0,27,0,6.5,-1,Correct Rejection,0.500585000031,False,-1,stimulus_TOSY08_Yes-No Task_2019_Jul_02_1300_28,-1,True,2019_Jul_02_1300,Yes-No Task,3,TOSY08,
Yes-No Task,28,0,28,0,9.7,-1,False Alarm,0.633823800134,False,-1,stimulus_TOSY08_Yes-No Task_2019_Jul_02_1300_29,-1,True,2019_Jul_02_1300,Yes-No Task,3,TOSY08,
Yes-No Task,29,0,29,0,4.9,-1,Miss,0.599303100025,True,-1,stimulus_TOSY08_Yes-No Task_2019_Jul_02_1300_30,-1,True,2019_Jul_02_1300,Yes-No Task,3,TOSY08,
Yes-No Task,30,0,30,0,9.7,-1,Correct Rejection,0.534036600031,False,-1,stimulus_TOSY08_Yes-No Task_2019_Jul_02_1300_31,-1,True,2019_Jul_02_1300,Yes-No Task,3,TOSY08,
Yes-No Task,31,0,31,0,11.7,-1,False Alarm,0.537487599999,False,-1,stimulus_TOSY08_Yes-No Task_2019_Jul_02_1300_32,-1,True,2019_Jul_02_1300,Yes-No Task,3,TOSY08,
Yes-No Task,32,0,32,0,9.7,-1,Correct Rejection,0.566699299961,False,-1,stimulus_TOSY08_Yes-No Task_2019_Jul_02_1300_33,-1,True,2019_Jul_02_1300,Yes-No Task,3,TOSY08,
Yes-No Task,33,0,33,0,4.9,-1,Hit,0.533933100058,True,-1,stimulus_TOSY08_Yes-No Task_2019_Jul_02_1300_34,-1,True,2019_Jul_02_1300,Yes-No Task,3,TOSY08,
Yes-No Task,34,0,34,0,7.7,-1,Hit,0.499571900116,True,-1,stimulus_TOSY08_Yes-No Task_2019_Jul_02_1300_35,-1,True,2019_Jul_02_1300,Yes-No Task,3,TOSY08,
Yes-No Task,35,0,35,0,7.7,-1,Hit,0.567174199969,True,-1,stimulus_TOSY08_Yes-No Task_2019_Jul_02_1300_36,-1,True,2019_Jul_02_1300,Yes-No Task,3,TOSY08,
Yes-No Task,36,0,36,0,6.5,-1,Miss,0.600650400156,True,-1,stimulus_TOSY08_Yes-No Task_2019_Jul_02_1300_37,-1,True,2019_Jul_02_1300,Yes-No Task,3,TOSY08,
Yes-No Task,37,0,37,0,9.7,-1,Hit,0.367831500014,True,-1,stimulus_TOSY08_Yes-No Task_2019_Jul_02_1300_38,-1,True,2019_Jul_02_1300,Yes-No Task,3,TOSY08,
Yes-No Task,38,0,38,0,8.7,-1,Correct Rejection,0.60087929992,False,-1,stimulus_TOSY08_Yes-No Task_2019_Jul_02_1300_39,-1,True,2019_Jul_02_1300,Yes-No Task,3,TOSY08,
Yes-No Task,39,0,39,0,12.9,-1,Correct Rejection,0.535154000157,False,-1,stimulus_TOSY08_Yes-No Task_2019_Jul_02_1300_40,-1,True,2019_Jul_02_1300,Yes-No Task,3,TOSY08,
Yes-No Task,40,0,40,0,8.7,-1,Correct Rejection,0.500898299972,False,-1,stimulus_TOSY08_Yes-No Task_2019_Jul_02_1300_41,-1,True,2019_Jul_02_1300,Yes-No Task,3,TOSY08,
Yes-No Task,41,0,41,0,9.7,-1,Correct Rejection,0.567860400071,False,-1,stimulus_TOSY08_Yes-No Task_2019_Jul_02_1300_42,-1,True,2019_Jul_02_1300,Yes-No Task,3,TOSY08,
Yes-No Task,42,0,42,0,4.9,-1,Hit,0.601003299933,True,-1,stimulus_TOSY08_Yes-No Task_2019_Jul_02_1300_43,-1,True,2019_Jul_02_1300,Yes-No Task,3,TOSY08,
Yes-No Task,43,0,43,0,8.7,-1,Hit,0.497134000063,True,-1,stimulus_TOSY08_Yes-No Task_2019_Jul_02_1300_44,-1,True,2019_Jul_02_1300,Yes-No Task,3,TOSY08,
Yes-No Task,44,0,44,0,6.5,-1,Correct Rejection,0.5006748999,False,-1,stimulus_TOSY08_Yes-No Task_2019_Jul_02_1300_45,-1,True,2019_Jul_02_1300,Yes-No Task,3,TOSY08,
Yes-No Task,45,0,45,0,6.5,-1,Hit,0.466685299994,True,-1,stimulus_TOSY08_Yes-No Task_2019_Jul_02_1300_46,-1,True,2019_Jul_02_1300,Yes-No Task,3,TOSY08,
Yes-No Task,46,0,46,0,7.7,-1,Correct Rejection,0.46782479994,False,-1,stimulus_TOSY08_Yes-No Task_2019_Jul_02_1300_47,-1,True,2019_Jul_02_1300,Yes-No Task,3,TOSY08,
Yes-No Task,47,0,47,0,12.9,-1,Hit,0.534231700003,True,-1,stimulus_TOSY08_Yes-No Task_2019_Jul_02_1300_48,-1,True,2019_Jul_02_1300,Yes-No Task,3,TOSY08,
Yes-No Task,48,0,48,0,8.7,-1,Correct Rejection,0.533538199961,False,-1,stimulus_TOSY08_Yes-No Task_2019_Jul_02_1300_49,-1,True,2019_Jul_02_1300,Yes-No Task,3,TOSY08,
Yes-No Task,49,0,49,0,4.9,-1,Miss,0.499375500018,True,-1,stimulus_TOSY08_Yes-No Task_2019_Jul_02_1300_50,-1,True,2019_Jul_02_1300,Yes-No Task,3,TOSY08,
Yes-No Task,50,0,50,0,6.5,-1,Hit,0.567302200012,True,-1,stimulus_TOSY08_Yes-No Task_2019_Jul_02_1300_51,-1,True,2019_Jul_02_1300,Yes-No Task,3,TOSY08,
Yes-No Task,51,0,51,0,8.7,-1,Correct Rejection,0.46774709993,False,-1,stimulus_TOSY08_Yes-No Task_2019_Jul_02_1300_52,-1,True,2019_Jul_02_1300,Yes-No Task,3,TOSY08,
Yes-No Task,52,0,52,0,11.7,-1,Hit,0.566745199962,True,-1,stimulus_TOSY08_Yes-No Task_2019_Jul_02_1300_53,-1,True,2019_Jul_02_1300,Yes-No Task,3,TOSY08,
Yes-No Task,53,0,53,0,9.7,-1,False Alarm,0.502163999947,False,-1,stimulus_TOSY08_Yes-No Task_2019_Jul_02_1300_54,-1,True,2019_Jul_02_1300,Yes-No Task,3,TOSY08,
Yes-No Task,54,0,54,0,8.7,-1,Correct Rejection,0.400398300029,False,-1,stimulus_TOSY08_Yes-No Task_2019_Jul_02_1300_55,-1,True,2019_Jul_02_1300,Yes-No Task,3,TOSY08,
Yes-No Task,55,0,55,0,12.9,-1,False Alarm,0.500361500075,False,-1,stimulus_TOSY08_Yes-No Task_2019_Jul_02_1300_56,-1,True,2019_Jul_02_1300,Yes-No Task,3,TOSY08,
Yes-No Task,56,0,56,0,9.7,-1,Correct Rejection,0.495700999862,False,-1,stimulus_TOSY08_Yes-No Task_2019_Jul_02_1300_57,-1,True,2019_Jul_02_1300,Yes-No Task,3,TOSY08,
Yes-No Task,57,0,57,0,11.7,-1,Correct Rejection,0.46507939999,False,-1,stimulus_TOSY08_Yes-No Task_2019_Jul_02_1300_58,-1,True,2019_Jul_02_1300,Yes-No Task,3,TOSY08,
Yes-No Task,58,0,58,0,10.7,-1,Hit,0.500471599866,True,-1,stimulus_TOSY08_Yes-No Task_2019_Jul_02_1300_59,-1,True,2019_Jul_02_1300,Yes-No Task,3,TOSY08,
Yes-No Task,59,0,59,0,6.5,-1,Miss,0.534369000001,True,-1,stimulus_TOSY08_Yes-No Task_2019_Jul_02_1300_60,-1,True,2019_Jul_02_1300,Yes-No Task,3,TOSY08,
Yes-No Task,60,0,60,0,9.7,-1,False Alarm,0.601352099795,False,-1,stimulus_TOSY08_Yes-No Task_2019_Jul_02_1300_61,-1,True,2019_Jul_02_1300,Yes-No Task,3,TOSY08,
Yes-No Task,61,0,61,0,11.7,-1,Hit,0.467894800007,True,-1,stimulus_TOSY08_Yes-No Task_2019_Jul_02_1300_62,-1,True,2019_Jul_02_1300,Yes-No Task,3,TOSY08,
Yes-No Task,62,0,62,0,6.5,-1,Correct Rejection,0.50064079999,False,-1,stimulus_TOSY08_Yes-No Task_2019_Jul_02_1300_63,-1,True,2019_Jul_02_1300,Yes-No Task,3,TOSY08,
Yes-No Task,63,0,63,0,12.9,-1,Correct Rejection,0.567414399935,False,-1,stimulus_TOSY08_Yes-No Task_2019_Jul_02_1300_64,-1,True,2019_Jul_02_1300,Yes-No Task,3,TOSY08,
Yes-No Task,64,0,64,0,7.7,-1,Correct Rejection,0.566919000121,False,-1,stimulus_TOSY08_Yes-No Task_2019_Jul_02_1300_65,-1,True,2019_Jul_02_1300,Yes-No Task,3,TOSY08,
Yes-No Task,65,0,65,0,6.5,-1,False Alarm,0.533470399911,False,-1,stimulus_TOSY08_Yes-No Task_2019_Jul_02_1300_66,-1,True,2019_Jul_02_1300,Yes-No Task,3,TOSY08,
Yes-No Task,66,0,66,0,9.7,-1,Correct Rejection,0.46614350006,False,-1,stimulus_TOSY08_Yes-No Task_2019_Jul_02_1300_67,-1,True,2019_Jul_02_1300,Yes-No Task,3,TOSY08,
Yes-No Task,67,0,67,0,6.5,-1,Correct Rejection,0.668434800114,False,-1,stimulus_TOSY08_Yes-No Task_2019_Jul_02_1300_68,-1,True,2019_Jul_02_1300,Yes-No Task,3,TOSY08,
Yes-No Task,68,0,68,0,9.7,-1,Correct Rejection,0.533725700108,False,-1,stimulus_TOSY08_Yes-No Task_2019_Jul_02_1300_69,-1,True,2019_Jul_02_1300,Yes-No Task,3,TOSY08,
Yes-No Task,69,0,69,0,8.7,-1,Hit,0.634149900172,True,-1,stimulus_TOSY08_Yes-No Task_2019_Jul_02_1300_70,-1,True,2019_Jul_02_1300,Yes-No Task,3,TOSY08,
Yes-No Task,70,0,70,0,8.7,-1,Correct Rejection,0.500417100033,False,-1,stimulus_TOSY08_Yes-No Task_2019_Jul_02_1300_71,-1,True,2019_Jul_02_1300,Yes-No Task,3,TOSY08,
Yes-No Task,71,0,71,0,12.9,-1,Hit,0.467581999954,True,-1,stimulus_TOSY08_Yes-No Task_2019_Jul_02_1300_72,-1,True,2019_Jul_02_1300,Yes-No Task,3,TOSY08,
Yes-No Task,72,0,72,0,4.9,-1,False Alarm,0.766832800116,False,-1,stimulus_TOSY08_Yes-No Task_2019_Jul_02_1300_73,-1,True,2019_Jul_02_1300,Yes-No Task,3,TOSY08,
Yes-No Task,73,0,73,0,8.7,-1,Miss,0.567591000115,True,-1,stimulus_TOSY08_Yes-No Task_2019_Jul_02_1300_74,-1,True,2019_Jul_02_1300,Yes-No Task,3,TOSY08,
Yes-No Task,74,0,74,0,8.7,-1,Correct Rejection,0.602583399974,False,-1,stimulus_TOSY08_Yes-No Task_2019_Jul_02_1300_75,-1,True,2019_Jul_02_1300,Yes-No Task,3,TOSY08,
Yes-No Task,0,0,0,0,10.7,-1,Hit,0.600241200067,True,-1,stimulus_TOSY08_Yes-No Task_2019_Jul_02_1300_76,-1,True,2019_Jul_02_1300,Yes-No Task,3,TOSY08,
Yes-No Task,1,0,1,0,4.9,-1,Miss,0.599926899886,True,-1,stimulus_TOSY08_Yes-No Task_2019_Jul_02_1300_77,-1,True,2019_Jul_02_1300,Yes-No Task,3,TOSY08,
Yes-No Task,2,0,2,0,8.7,-1,Hit,0.466284200083,True,-1,stimulus_TOSY08_Yes-No Task_2019_Jul_02_1300_78,-1,True,2019_Jul_02_1300,Yes-No Task,3,TOSY08,
Yes-No Task,3,0,3,0,4.9,-1,Miss,0.634559500031,True,-1,stimulus_TOSY08_Yes-No Task_2019_Jul_02_1300_79,-1,True,2019_Jul_02_1300,Yes-No Task,3,TOSY08,
Yes-No Task,4,0,4,0,8.7,-1,Hit,0.434179099975,True,-1,stimulus_TOSY08_Yes-No Task_2019_Jul_02_1300_80,-1,True,2019_Jul_02_1300,Yes-No Task,3,TOSY08,
Yes-No Task,5,0,5,0,10.7,-1,False Alarm,0.533385899849,False,-1,stimulus_TOSY08_Yes-No Task_2019_Jul_02_1300_81,-1,True,2019_Jul_02_1300,Yes-No Task,3,TOSY08,
Yes-No Task,6,0,6,0,11.7,-1,Hit,0.500627200119,True,-1,stimulus_TOSY08_Yes-No Task_2019_Jul_02_1300_82,-1,True,2019_Jul_02_1300,Yes-No Task,3,TOSY08,
Yes-No Task,7,0,7,0,8.7,-1,Hit,0.667342399945,True,-1,stimulus_TOSY08_Yes-No Task_2019_Jul_02_1300_83,-1,True,2019_Jul_02_1300,Yes-No Task,3,TOSY08,
Yes-No Task,8,0,8,0,7.7,-1,Hit,0.567366800038,True,-1,stimulus_TOSY08_Yes-No Task_2019_Jul_02_1300_84,-1,True,2019_Jul_02_1300,Yes-No Task,3,TOSY08,
Yes-No Task,9,0,9,0,7.7,-1,Hit,0.568171400111,True,-1,stimulus_TOSY08_Yes-No Task_2019_Jul_02_1300_85,-1,True,2019_Jul_02_1300,Yes-No Task,3,TOSY08,
Yes-No Task,10,0,10,0,10.7,-1,Hit,0.566697599832,True,-1,stimulus_TOSY08_Yes-No Task_2019_Jul_02_1300_86,-1,True,2019_Jul_02_1300,Yes-No Task,3,TOSY08,
Yes-No Task,11,0,11,0,10.7,-1,Correct Rejection,0.634171900107,False,-1,stimulus_TOSY08_Yes-No Task_2019_Jul_02_1300_87,-1,True,2019_Jul_02_1300,Yes-No Task,3,TOSY08,
Yes-No Task,12,0,12,0,8.7,-1,Correct Rejection,0.601188099943,False,-1,stimulus_TOSY08_Yes-No Task_2019_Jul_02_1300_88,-1,True,2019_Jul_02_1300,Yes-No Task,3,TOSY08,
Yes-No Task,13,0,13,0,11.7,-1,Correct Rejection,0.598870899994,False,-1,stimulus_TOSY08_Yes-No Task_2019_Jul_02_1300_89,-1,True,2019_Jul_02_1300,Yes-No Task,3,TOSY08,
Yes-No Task,14,0,14,0,11.7,-1,Correct Rejection,0.634374100016,False,-1,stimulus_TOSY08_Yes-No Task_2019_Jul_02_1300_90,-1,True,2019_Jul_02_1300,Yes-No Task,3,TOSY08,
Yes-No Task,15,0,15,0,8.7,-1,Hit,0.567012600135,True,-1,stimulus_TOSY08_Yes-No Task_2019_Jul_02_1300_91,-1,True,2019_Jul_02_1300,Yes-No Task,3,TOSY08,
Yes-No Task,16,0,16,0,6.5,-1,Miss,0.601715099998,True,-1,stimulus_TOSY08_Yes-No Task_2019_Jul_02_1300_92,-1,True,2019_Jul_02_1300,Yes-No Task,3,TOSY08,
Yes-No Task,17,0,17,0,11.7,-1,Correct Rejection,0.600796400104,False,-1,stimulus_TOSY08_Yes-No Task_2019_Jul_02_1300_93,-1,True,2019_Jul_02_1300,Yes-No Task,3,TOSY08,
Yes-No Task,18,0,18,0,6.5,-1,False Alarm,0.667336300015,False,-1,stimulus_TOSY08_Yes-No Task_2019_Jul_02_1300_94,-1,True,2019_Jul_02_1300,Yes-No Task,3,TOSY08,
Yes-No Task,19,0,19,0,4.9,-1,Correct Rejection,0.600480200024,False,-1,stimulus_TOSY08_Yes-No Task_2019_Jul_02_1300_95,-1,True,2019_Jul_02_1300,Yes-No Task,3,TOSY08,
Yes-No Task,20,0,20,0,11.7,-1,Correct Rejection,0.733703200007,False,-1,stimulus_TOSY08_Yes-No Task_2019_Jul_02_1300_96,-1,True,2019_Jul_02_1300,Yes-No Task,3,TOSY08,
Yes-No Task,21,0,21,0,12.9,-1,Correct Rejection,0.633328400087,False,-1,stimulus_TOSY08_Yes-No Task_2019_Jul_02_1300_97,-1,True,2019_Jul_02_1300,Yes-No Task,3,TOSY08,
Yes-No Task,22,0,22,0,4.9,-1,Correct Rejection,0.666634300025,False,-1,stimulus_TOSY08_Yes-No Task_2019_Jul_02_1300_98,-1,True,2019_Jul_02_1300,Yes-No Task,3,TOSY08,
Yes-No Task,23,0,23,0,10.7,-1,Miss,0.801329999929,True,-1,stimulus_TOSY08_Yes-No Task_2019_Jul_02_1300_99,-1,True,2019_Jul_02_1300,Yes-No Task,3,TOSY08,
Yes-No Task,24,0,24,0,8.7,-1,Correct Rejection,0.566048899898,False,-1,stimulus_TOSY08_Yes-No Task_2019_Jul_02_1300_100,-1,True,2019_Jul_02_1300,Yes-No Task,3,TOSY08,
Yes-No Task,25,0,25,0,6.5,-1,Correct Rejection,0.60081809992,False,-1,stimulus_TOSY08_Yes-No Task_2019_Jul_02_1300_101,-1,True,2019_Jul_02_1300,Yes-No Task,3,TOSY08,
Yes-No Task,26,0,26,0,6.5,-1,Correct Rejection,0.600665400038,False,-1,stimulus_TOSY08_Yes-No Task_2019_Jul_02_1300_102,-1,True,2019_Jul_02_1300,Yes-No Task,3,TOSY08,
Yes-No Task,27,0,27,0,11.7,-1,Correct Rejection,0.633508399827,False,-1,stimulus_TOSY08_Yes-No Task_2019_Jul_02_1300_103,-1,True,2019_Jul_02_1300,Yes-No Task,3,TOSY08,
Yes-No Task,28,0,28,0,11.7,-1,Correct Rejection,0.567772699986,False,-1,stimulus_TOSY08_Yes-No Task_2019_Jul_02_1300_104,-1,True,2019_Jul_02_1300,Yes-No Task,3,TOSY08,
Yes-No Task,29,0,29,0,9.7,-1,Hit,0.60252179997,True,-1,stimulus_TOSY08_Yes-No Task_2019_Jul_02_1300_105,-1,True,2019_Jul_02_1300,Yes-No Task,3,TOSY08,
Yes-No Task,30,0,30,0,12.9,-1,Correct Rejection,0.569282699842,False,-1,stimulus_TOSY08_Yes-No Task_2019_Jul_02_1300_106,-1,True,2019_Jul_02_1300,Yes-No Task,3,TOSY08,
Yes-No Task,31,0,31,0,11.7,-1,Hit,0.567802699981,True,-1,stimulus_TOSY08_Yes-No Task_2019_Jul_02_1300_107,-1,True,2019_Jul_02_1300,Yes-No Task,3,TOSY08,
Yes-No Task,32,0,32,0,4.9,-1,Correct Rejection,0.568035000004,False,-1,stimulus_TOSY08_Yes-No Task_2019_Jul_02_1300_108,-1,True,2019_Jul_02_1300,Yes-No Task,3,TOSY08,
Yes-No Task,33,0,33,0,8.7,-1,Hit,0.467254000017,True,-1,stimulus_TOSY08_Yes-No Task_2019_Jul_02_1300_109,-1,True,2019_Jul_02_1300,Yes-No Task,3,TOSY08,
Yes-No Task,34,0,34,0,12.9,-1,Correct Rejection,0.533743200125,False,-1,stimulus_TOSY08_Yes-No Task_2019_Jul_02_1300_110,-1,True,2019_Jul_02_1300,Yes-No Task,3,TOSY08,
Yes-No Task,35,0,35,0,12.9,-1,Hit,0.567978200037,True,-1,stimulus_TOSY08_Yes-No Task_2019_Jul_02_1300_111,-1,True,2019_Jul_02_1300,Yes-No Task,3,TOSY08,
Yes-No Task,36,0,36,0,6.5,-1,Correct Rejection,0.499447599985,False,-1,stimulus_TOSY08_Yes-No Task_2019_Jul_02_1300_112,-1,True,2019_Jul_02_1300,Yes-No Task,3,TOSY08,
Yes-No Task,37,0,37,0,8.7,-1,Correct Rejection,0.601185400039,False,-1,stimulus_TOSY08_Yes-No Task_2019_Jul_02_1300_113,-1,True,2019_Jul_02_1300,Yes-No Task,3,TOSY08,
Yes-No Task,38,0,38,0,6.5,-1,Hit,0.564904599916,True,-1,stimulus_TOSY08_Yes-No Task_2019_Jul_02_1300_114,-1,True,2019_Jul_02_1300,Yes-No Task,3,TOSY08,
Yes-No Task,39,0,39,0,7.7,-1,Hit,0.63393729995,True,-1,stimulus_TOSY08_Yes-No Task_2019_Jul_02_1300_115,-1,True,2019_Jul_02_1300,Yes-No Task,3,TOSY08,
Yes-No Task,40,0,40,0,9.7,-1,Correct Rejection,0.60035949992,False,-1,stimulus_TOSY08_Yes-No Task_2019_Jul_02_1300_116,-1,True,2019_Jul_02_1300,Yes-No Task,3,TOSY08,
Yes-No Task,41,0,41,0,9.7,-1,Correct Rejection,0.600615500007,False,-1,stimulus_TOSY08_Yes-No Task_2019_Jul_02_1300_117,-1,True,2019_Jul_02_1300,Yes-No Task,3,TOSY08,
Yes-No Task,42,0,42,0,9.7,-1,Correct Rejection,0.567275400041,False,-1,stimulus_TOSY08_Yes-No Task_2019_Jul_02_1300_118,-1,True,2019_Jul_02_1300,Yes-No Task,3,TOSY08,
Yes-No Task,43,0,43,0,10.7,-1,Correct Rejection,0.600975800073,False,-1,stimulus_TOSY08_Yes-No Task_2019_Jul_02_1300_119,-1,True,2019_Jul_02_1300,Yes-No Task,3,TOSY08,
Yes-No Task,44,0,44,0,10.7,-1,Correct Rejection,0.700797900092,False,-1,stimulus_TOSY08_Yes-No Task_2019_Jul_02_1300_120,-1,True,2019_Jul_02_1300,Yes-No Task,3,TOSY08,
Yes-No Task,45,0,45,0,11.7,-1,Correct Rejection,0.568404600024,False,-1,stimulus_TOSY08_Yes-No Task_2019_Jul_02_1300_121,-1,True,2019_Jul_02_1300,Yes-No Task,3,TOSY08,
Yes-No Task,46,0,46,0,11.7,-1,Hit,0.600478600012,True,-1,stimulus_TOSY08_Yes-No Task_2019_Jul_02_1300_122,-1,True,2019_Jul_02_1300,Yes-No Task,3,TOSY08,
Yes-No Task,47,0,47,0,8.7,-1,Correct Rejection,0.568485300057,False,-1,stimulus_TOSY08_Yes-No Task_2019_Jul_02_1300_123,-1,True,2019_Jul_02_1300,Yes-No Task,3,TOSY08,
Yes-No Task,48,0,48,0,7.7,-1,Correct Rejection,0.700219900114,False,-1,stimulus_TOSY08_Yes-No Task_2019_Jul_02_1300_124,-1,True,2019_Jul_02_1300,Yes-No Task,3,TOSY08,
Yes-No Task,49,0,49,0,11.7,-1,Correct Rejection,0.534193199826,False,-1,stimulus_TOSY08_Yes-No Task_2019_Jul_02_1300_125,-1,True,2019_Jul_02_1300,Yes-No Task,3,TOSY08,
Yes-No Task,50,0,50,0,11.7,-1,Correct Rejection,0.60241819988,False,-1,stimulus_TOSY08_Yes-No Task_2019_Jul_02_1300_126,-1,True,2019_Jul_02_1300,Yes-No Task,3,TOSY08,
Yes-No Task,51,0,51,0,8.7,-1,Hit,0.700825399952,True,-1,stimulus_TOSY08_Yes-No Task_2019_Jul_02_1300_127,-1,True,2019_Jul_02_1300,Yes-No Task,3,TOSY08,
Yes-No Task,52,0,52,0,10.7,-1,Correct Rejection,0.569280399941,False,-1,stimulus_TOSY08_Yes-No Task_2019_Jul_02_1300_128,-1,True,2019_Jul_02_1300,Yes-No Task,3,TOSY08,
Yes-No Task,53,0,53,0,4.9,-1,Miss,0.735440900084,True,-1,stimulus_TOSY08_Yes-No Task_2019_Jul_02_1300_129,-1,True,2019_Jul_02_1300,Yes-No Task,3,TOSY08,
Yes-No Task,54,0,54,0,8.7,-1,Hit,0.634526200127,True,-1,stimulus_TOSY08_Yes-No Task_2019_Jul_02_1300_130,-1,True,2019_Jul_02_1300,Yes-No Task,3,TOSY08,
Yes-No Task,55,0,55,0,6.5,-1,Miss,0.634761900175,True,-1,stimulus_TOSY08_Yes-No Task_2019_Jul_02_1300_131,-1,True,2019_Jul_02_1300,Yes-No Task,3,TOSY08,
Yes-No Task,56,0,56,0,10.7,-1,Correct Rejection,0.534007099923,False,-1,stimulus_TOSY08_Yes-No Task_2019_Jul_02_1300_132,-1,True,2019_Jul_02_1300,Yes-No Task,3,TOSY08,
Yes-No Task,57,0,57,0,12.9,-1,Correct Rejection,0.568874200108,False,-1,stimulus_TOSY08_Yes-No Task_2019_Jul_02_1300_133,-1,True,2019_Jul_02_1300,Yes-No Task,3,TOSY08,
Yes-No Task,58,0,58,0,12.9,-1,Correct Rejection,0.667675799923,False,-1,stimulus_TOSY08_Yes-No Task_2019_Jul_02_1300_134,-1,True,2019_Jul_02_1300,Yes-No Task,3,TOSY08,
Yes-No Task,59,0,59,0,9.7,-1,Miss,0.801734300097,True,-1,stimulus_TOSY08_Yes-No Task_2019_Jul_02_1300_135,-1,True,2019_Jul_02_1300,Yes-No Task,3,TOSY08,
Yes-No Task,60,0,60,0,8.7,-1,False Alarm,0.700721299974,False,-1,stimulus_TOSY08_Yes-No Task_2019_Jul_02_1300_136,-1,True,2019_Jul_02_1300,Yes-No Task,3,TOSY08,
Yes-No Task,61,0,61,0,10.7,-1,Hit,0.53430950013,True,-1,stimulus_TOSY08_Yes-No Task_2019_Jul_02_1300_137,-1,True,2019_Jul_02_1300,Yes-No Task,3,TOSY08,
Yes-No Task,62,0,62,0,6.5,-1,Hit,0.767271399964,True,-1,stimulus_TOSY08_Yes-No Task_2019_Jul_02_1300_138,-1,True,2019_Jul_02_1300,Yes-No Task,3,TOSY08,
Yes-No Task,63,0,63,0,11.7,-1,Hit,0.600753000006,True,-1,stimulus_TOSY08_Yes-No Task_2019_Jul_02_1300_139,-1,True,2019_Jul_02_1300,Yes-No Task,3,TOSY08,
Yes-No Task,64,0,64,0,8.7,-1,Hit,0.567861799849,True,-1,stimulus_TOSY08_Yes-No Task_2019_Jul_02_1300_140,-1,True,2019_Jul_02_1300,Yes-No Task,3,TOSY08,
Yes-No Task,65,0,65,0,7.7,-1,Correct Rejection,0.564917200012,False,-1,stimulus_TOSY08_Yes-No Task_2019_Jul_02_1300_141,-1,True,2019_Jul_02_1300,Yes-No Task,3,TOSY08,
Yes-No Task,66,0,66,0,4.9,-1,Hit,0.565857300069,True,-1,stimulus_TOSY08_Yes-No Task_2019_Jul_02_1300_142,-1,True,2019_Jul_02_1300,Yes-No Task,3,TOSY08,
Yes-No Task,67,0,67,0,8.7,-1,Correct Rejection,0.600863199914,False,-1,stimulus_TOSY08_Yes-No Task_2019_Jul_02_1300_143,-1,True,2019_Jul_02_1300,Yes-No Task,3,TOSY08,
Yes-No Task,68,0,68,0,4.9,-1,Miss,0.634657399962,True,-1,stimulus_TOSY08_Yes-No Task_2019_Jul_02_1300_144,-1,True,2019_Jul_02_1300,Yes-No Task,3,TOSY08,
Yes-No Task,69,0,69,0,12.9,-1,Hit,0.567614999833,True,-1,stimulus_TOSY08_Yes-No Task_2019_Jul_02_1300_145,-1,True,2019_Jul_02_1300,Yes-No Task,3,TOSY08,
Yes-No Task,70,0,70,0,11.7,-1,Correct Rejection,0.568496899912,False,-1,stimulus_TOSY08_Yes-No Task_2019_Jul_02_1300_146,-1,True,2019_Jul_02_1300,Yes-No Task,3,TOSY08,
Yes-No Task,71,0,71,0,9.7,-1,Correct Rejection,0.632074499968,False,-1,stimulus_TOSY08_Yes-No Task_2019_Jul_02_1300_147,-1,True,2019_Jul_02_1300,Yes-No Task,3,TOSY08,
Yes-No Task,72,0,72,0,12.9,-1,Correct Rejection,0.567046700045,False,-1,stimulus_TOSY08_Yes-No Task_2019_Jul_02_1300_148,-1,True,2019_Jul_02_1300,Yes-No Task,3,TOSY08,
Yes-No Task,73,0,73,0,9.7,-1,Correct Rejection,0.534398099873,False,-1,stimulus_TOSY08_Yes-No Task_2019_Jul_02_1300_149,-1,True,2019_Jul_02_1300,Yes-No Task,3,TOSY08,
Yes-No Task,74,0,74,0,4.9,-1,Correct Rejection,0.533508999972,False,-1,stimulus_TOSY08_Yes-No Task_2019_Jul_02_1300_150,-1,True,2019_Jul_02_1300,Yes-No Task,3,TOSY08,
Yes-No Task,0,0,0,0,11.7,-1,Correct Rejection,0.467003999976,False,-1,stimulus_TOSY08_Yes-No Task_2019_Jul_02_1300_151,-1,True,2019_Jul_02_1300,Yes-No Task,3,TOSY08,
Yes-No Task,1,0,1,0,8.7,-1,Hit,0.534084600164,True,-1,stimulus_TOSY08_Yes-No Task_2019_Jul_02_1300_152,-1,True,2019_Jul_02_1300,Yes-No Task,3,TOSY08,
Yes-No Task,2,0,2,0,11.7,-1,Correct Rejection,0.533287500031,False,-1,stimulus_TOSY08_Yes-No Task_2019_Jul_02_1300_153,-1,True,2019_Jul_02_1300,Yes-No Task,3,TOSY08,
Yes-No Task,3,0,3,0,11.7,-1,Hit,0.470337699866,True,-1,stimulus_TOSY08_Yes-No Task_2019_Jul_02_1300_154,-1,True,2019_Jul_02_1300,Yes-No Task,3,TOSY08,
Yes-No Task,4,0,4,0,12.9,-1,Hit,0.467638300033,True,-1,stimulus_TOSY08_Yes-No Task_2019_Jul_02_1300_155,-1,True,2019_Jul_02_1300,Yes-No Task,3,TOSY08,
Yes-No Task,5,0,5,0,11.7,-1,False Alarm,0.502621200169,False,-1,stimulus_TOSY08_Yes-No Task_2019_Jul_02_1300_156,-1,True,2019_Jul_02_1300,Yes-No Task,3,TOSY08,
Yes-No Task,6,0,6,0,4.9,-1,Correct Rejection,0.434356699931,False,-1,stimulus_TOSY08_Yes-No Task_2019_Jul_02_1300_157,-1,True,2019_Jul_02_1300,Yes-No Task,3,TOSY08,
Yes-No Task,7,0,7,0,8.7,-1,Hit,0.536045700079,True,-1,stimulus_TOSY08_Yes-No Task_2019_Jul_02_1300_158,-1,True,2019_Jul_02_1300,Yes-No Task,3,TOSY08,
Yes-No Task,8,0,8,0,12.9,-1,Correct Rejection,0.566103100078,False,-1,stimulus_TOSY08_Yes-No Task_2019_Jul_02_1300_159,-1,True,2019_Jul_02_1300,Yes-No Task,3,TOSY08,
Yes-No Task,9,0,9,0,6.5,-1,Hit,0.567464200081,True,-1,stimulus_TOSY08_Yes-No Task_2019_Jul_02_1300_160,-1,True,2019_Jul_02_1300,Yes-No Task,3,TOSY08,
Yes-No Task,10,0,10,0,10.7,-1,Hit,0.533615099965,True,-1,stimulus_TOSY08_Yes-No Task_2019_Jul_02_1300_161,-1,True,2019_Jul_02_1300,Yes-No Task,3,TOSY08,
Yes-No Task,11,0,11,0,12.9,-1,Correct Rejection,0.500576199964,False,-1,stimulus_TOSY08_Yes-No Task_2019_Jul_02_1300_162,-1,True,2019_Jul_02_1300,Yes-No Task,3,TOSY08,
Yes-No Task,12,0,12,0,8.7,-1,Correct Rejection,0.500560499961,False,-1,stimulus_TOSY08_Yes-No Task_2019_Jul_02_1300_163,-1,True,2019_Jul_02_1300,Yes-No Task,3,TOSY08,
Yes-No Task,13,0,13,0,7.7,-1,Hit,0.600594399963,True,-1,stimulus_TOSY08_Yes-No Task_2019_Jul_02_1300_164,-1,True,2019_Jul_02_1300,Yes-No Task,3,TOSY08,
Yes-No Task,14,0,14,0,12.9,-1,Hit,0.600439300062,True,-1,stimulus_TOSY08_Yes-No Task_2019_Jul_02_1300_165,-1,True,2019_Jul_02_1300,Yes-No Task,3,TOSY08,
Yes-No Task,15,0,15,0,10.7,-1,Correct Rejection,0.537549200002,False,-1,stimulus_TOSY08_Yes-No Task_2019_Jul_02_1300_166,-1,True,2019_Jul_02_1300,Yes-No Task,3,TOSY08,
Yes-No Task,16,0,16,0,4.9,-1,Miss,0.5663637002,True,-1,stimulus_TOSY08_Yes-No Task_2019_Jul_02_1300_167,-1,True,2019_Jul_02_1300,Yes-No Task,3,TOSY08,
Yes-No Task,17,0,17,0,12.9,-1,Correct Rejection,0.498794800136,False,-1,stimulus_TOSY08_Yes-No Task_2019_Jul_02_1300_168,-1,True,2019_Jul_02_1300,Yes-No Task,3,TOSY08,
Yes-No Task,18,0,18,0,10.7,-1,False Alarm,0.567904399941,False,-1,stimulus_TOSY08_Yes-No Task_2019_Jul_02_1300_169,-1,True,2019_Jul_02_1300,Yes-No Task,3,TOSY08,
Yes-No Task,19,0,19,0,12.9,-1,Correct Rejection,0.464829800185,False,-1,stimulus_TOSY08_Yes-No Task_2019_Jul_02_1300_170,-1,True,2019_Jul_02_1300,Yes-No Task,3,TOSY08,
Yes-No Task,20,0,20,0,6.5,-1,Hit,0.533560500015,True,-1,stimulus_TOSY08_Yes-No Task_2019_Jul_02_1300_171,-1,True,2019_Jul_02_1300,Yes-No Task,3,TOSY08,
Yes-No Task,21,0,21,0,9.7,-1,Correct Rejection,0.534449100029,False,-1,stimulus_TOSY08_Yes-No Task_2019_Jul_02_1300_172,-1,True,2019_Jul_02_1300,Yes-No Task,3,TOSY08,
Yes-No Task,22,0,22,0,8.7,-1,Hit,0.700555100106,True,-1,stimulus_TOSY08_Yes-No Task_2019_Jul_02_1300_173,-1,True,2019_Jul_02_1300,Yes-No Task,3,TOSY08,
Yes-No Task,23,0,23,0,6.5,-1,False Alarm,0.73368830001,False,-1,stimulus_TOSY08_Yes-No Task_2019_Jul_02_1300_174,-1,True,2019_Jul_02_1300,Yes-No Task,3,TOSY08,
Yes-No Task,24,0,24,0,10.7,-1,Hit,0.668210400036,True,-1,stimulus_TOSY08_Yes-No Task_2019_Jul_02_1300_175,-1,True,2019_Jul_02_1300,Yes-No Task,3,TOSY08,
Yes-No Task,25,0,25,0,10.7,-1,Hit,0.6009662,True,-1,stimulus_TOSY08_Yes-No Task_2019_Jul_02_1300_176,-1,True,2019_Jul_02_1300,Yes-No Task,3,TOSY08,
Yes-No Task,26,0,26,0,9.7,-1,Hit,0.701619200176,True,-1,stimulus_TOSY08_Yes-No Task_2019_Jul_02_1300_177,-1,True,2019_Jul_02_1300,Yes-No Task,3,TOSY08,
Yes-No Task,27,0,27,0,8.7,-1,Correct Rejection,0.569796700031,False,-1,stimulus_TOSY08_Yes-No Task_2019_Jul_02_1300_178,-1,True,2019_Jul_02_1300,Yes-No Task,3,TOSY08,
Yes-No Task,28,0,28,0,8.7,-1,Correct Rejection,0.569146699971,False,-1,stimulus_TOSY08_Yes-No Task_2019_Jul_02_1300_179,-1,True,2019_Jul_02_1300,Yes-No Task,3,TOSY08,
Yes-No Task,29,0,29,0,7.7,-1,Correct Rejection,0.564823599998,False,-1,stimulus_TOSY08_Yes-No Task_2019_Jul_02_1300_180,-1,True,2019_Jul_02_1300,Yes-No Task,3,TOSY08,
Yes-No Task,30,0,30,0,7.7,-1,Hit,0.500663599931,True,-1,stimulus_TOSY08_Yes-No Task_2019_Jul_02_1300_181,-1,True,2019_Jul_02_1300,Yes-No Task,3,TOSY08,
Yes-No Task,31,0,31,0,9.7,-1,Hit,0.567530100001,True,-1,stimulus_TOSY08_Yes-No Task_2019_Jul_02_1300_182,-1,True,2019_Jul_02_1300,Yes-No Task,3,TOSY08,
Yes-No Task,32,0,32,0,11.7,-1,Hit,0.50161399995,True,-1,stimulus_TOSY08_Yes-No Task_2019_Jul_02_1300_183,-1,True,2019_Jul_02_1300,Yes-No Task,3,TOSY08,
Yes-No Task,33,0,33,0,7.7,-1,Correct Rejection,0.46714730002,False,-1,stimulus_TOSY08_Yes-No Task_2019_Jul_02_1300_184,-1,True,2019_Jul_02_1300,Yes-No Task,3,TOSY08,
Yes-No Task,34,0,34,0,6.5,-1,Correct Rejection,0.533809599932,False,-1,stimulus_TOSY08_Yes-No Task_2019_Jul_02_1300_185,-1,True,2019_Jul_02_1300,Yes-No Task,3,TOSY08,
Yes-No Task,35,0,35,0,12.9,-1,Hit,0.568024599925,True,-1,stimulus_TOSY08_Yes-No Task_2019_Jul_02_1300_186,-1,True,2019_Jul_02_1300,Yes-No Task,3,TOSY08,
Yes-No Task,36,0,36,0,12.9,-1,Correct Rejection,0.467372199986,False,-1,stimulus_TOSY08_Yes-No Task_2019_Jul_02_1300_187,-1,True,2019_Jul_02_1300,Yes-No Task,3,TOSY08,
Yes-No Task,37,0,37,0,11.7,-1,Hit,0.502766999882,True,-1,stimulus_TOSY08_Yes-No Task_2019_Jul_02_1300_188,-1,True,2019_Jul_02_1300,Yes-No Task,3,TOSY08,
Yes-No Task,38,0,38,0,7.7,-1,Correct Rejection,0.467245299835,False,-1,stimulus_TOSY08_Yes-No Task_2019_Jul_02_1300_189,-1,True,2019_Jul_02_1300,Yes-No Task,3,TOSY08,
Yes-No Task,39,0,39,0,10.7,-1,Correct Rejection,0.501263599843,False,-1,stimulus_TOSY08_Yes-No Task_2019_Jul_02_1300_190,-1,True,2019_Jul_02_1300,Yes-No Task,3,TOSY08,
Yes-No Task,40,0,40,0,9.7,-1,Hit,0.567738799844,True,-1,stimulus_TOSY08_Yes-No Task_2019_Jul_02_1300_191,-1,True,2019_Jul_02_1300,Yes-No Task,3,TOSY08,
Yes-No Task,41,0,41,0,8.7,-1,Hit,0.50328360009,True,-1,stimulus_TOSY08_Yes-No Task_2019_Jul_02_1300_192,-1,True,2019_Jul_02_1300,Yes-No Task,3,TOSY08,
Yes-No Task,42,0,42,0,11.7,-1,Correct Rejection,0.46774709993,False,-1,stimulus_TOSY08_Yes-No Task_2019_Jul_02_1300_193,-1,True,2019_Jul_02_1300,Yes-No Task,3,TOSY08,
Yes-No Task,43,0,43,0,9.7,-1,Correct Rejection,0.53285790002,False,-1,stimulus_TOSY08_Yes-No Task_2019_Jul_02_1300_194,-1,True,2019_Jul_02_1300,Yes-No Task,3,TOSY08,
Yes-No Task,44,0,44,0,4.9,-1,Miss,0.634302699938,True,-1,stimulus_TOSY08_Yes-No Task_2019_Jul_02_1300_195,-1,True,2019_Jul_02_1300,Yes-No Task,3,TOSY08,
Yes-No Task,45,0,45,0,7.7,-1,Correct Rejection,0.533050300088,False,-1,stimulus_TOSY08_Yes-No Task_2019_Jul_02_1300_196,-1,True,2019_Jul_02_1300,Yes-No Task,3,TOSY08,
Yes-No Task,46,0,46,0,9.7,-1,Hit,0.534011899959,True,-1,stimulus_TOSY08_Yes-No Task_2019_Jul_02_1300_197,-1,True,2019_Jul_02_1300,Yes-No Task,3,TOSY08,
Yes-No Task,47,0,47,0,9.7,-1,Hit,0.50155120017,True,-1,stimulus_TOSY08_Yes-No Task_2019_Jul_02_1300_198,-1,True,2019_Jul_02_1300,Yes-No Task,3,TOSY08,
Yes-No Task,48,0,48,0,4.9,-1,Correct Rejection,0.433403899893,False,-1,stimulus_TOSY08_Yes-No Task_2019_Jul_02_1300_199,-1,True,2019_Jul_02_1300,Yes-No Task,3,TOSY08,
Yes-No Task,49,0,49,0,12.9,-1,Hit,0.501088500023,True,-1,stimulus_TOSY08_Yes-No Task_2019_Jul_02_1300_200,-1,True,2019_Jul_02_1300,Yes-No Task,3,TOSY08,
Yes-No Task,50,0,50,0,7.7,-1,Correct Rejection,0.400636700215,False,-1,stimulus_TOSY08_Yes-No Task_2019_Jul_02_1300_201,-1,True,2019_Jul_02_1300,Yes-No Task,3,TOSY08,
Yes-No Task,51,0,51,0,8.7,-1,Miss,0.466780599905,True,-1,stimulus_TOSY08_Yes-No Task_2019_Jul_02_1300_202,-1,True,2019_Jul_02_1300,Yes-No Task,3,TOSY08,
Yes-No Task,52,0,52,0,4.9,-1,False Alarm,0.36910520005,False,-1,stimulus_TOSY08_Yes-No Task_2019_Jul_02_1300_203,-1,True,2019_Jul_02_1300,Yes-No Task,3,TOSY08,
Yes-No Task,53,0,53,0,6.5,-1,Hit,0.504094499862,True,-1,stimulus_TOSY08_Yes-No Task_2019_Jul_02_1300_204,-1,True,2019_Jul_02_1300,Yes-No Task,3,TOSY08,
Yes-No Task,54,0,54,0,10.7,-1,Hit,0.501349899918,True,-1,stimulus_TOSY08_Yes-No Task_2019_Jul_02_1300_205,-1,True,2019_Jul_02_1300,Yes-No Task,3,TOSY08,
Yes-No Task,55,0,55,0,10.7,-1,Correct Rejection,0.528639599914,False,-1,stimulus_TOSY08_Yes-No Task_2019_Jul_02_1300_206,-1,True,2019_Jul_02_1300,Yes-No Task,3,TOSY08,
Yes-No Task,56,0,56,0,10.7,-1,Hit,0.534208199941,True,-1,stimulus_TOSY08_Yes-No Task_2019_Jul_02_1300_207,-1,True,2019_Jul_02_1300,Yes-No Task,3,TOSY08,
Yes-No Task,57,0,57,0,6.5,-1,False Alarm,0.601903499803,False,-1,stimulus_TOSY08_Yes-No Task_2019_Jul_02_1300_208,-1,True,2019_Jul_02_1300,Yes-No Task,3,TOSY08,
Yes-No Task,58,0,58,0,10.7,-1,Hit,0.434330999851,True,-1,stimulus_TOSY08_Yes-No Task_2019_Jul_02_1300_209,-1,True,2019_Jul_02_1300,Yes-No Task,3,TOSY08,
Yes-No Task,59,0,59,0,10.7,-1,Correct Rejection,0.600614399882,False,-1,stimulus_TOSY08_Yes-No Task_2019_Jul_02_1300_210,-1,True,2019_Jul_02_1300,Yes-No Task,3,TOSY08,
Yes-No Task,60,0,60,0,8.7,-1,Hit,0.533776900033,True,-1,stimulus_TOSY08_Yes-No Task_2019_Jul_02_1300_211,-1,True,2019_Jul_02_1300,Yes-No Task,3,TOSY08,
Yes-No Task,61,0,61,0,9.7,-1,Miss,0.568805400049,True,-1,stimulus_TOSY08_Yes-No Task_2019_Jul_02_1300_212,-1,True,2019_Jul_02_1300,Yes-No Task,3,TOSY08,
Yes-No Task,62,0,62,0,7.7,-1,Correct Rejection,0.467132400023,False,-1,stimulus_TOSY08_Yes-No Task_2019_Jul_02_1300_213,-1,True,2019_Jul_02_1300,Yes-No Task,3,TOSY08,
Yes-No Task,63,0,63,0,12.9,-1,Correct Rejection,0.5680323001,False,-1,stimulus_TOSY08_Yes-No Task_2019_Jul_02_1300_214,-1,True,2019_Jul_02_1300,Yes-No Task,3,TOSY08,
Yes-No Task,64,0,64,0,7.7,-1,Hit,0.56732770009,True,-1,stimulus_TOSY08_Yes-No Task_2019_Jul_02_1300_215,-1,True,2019_Jul_02_1300,Yes-No Task,3,TOSY08,
Yes-No Task,65,0,65,0,10.7,-1,Hit,0.467262699967,True,-1,stimulus_TOSY08_Yes-No Task_2019_Jul_02_1300_216,-1,True,2019_Jul_02_1300,Yes-No Task,3,TOSY08,
Yes-No Task,66,0,66,0,10.7,-1,Hit,0.534955099924,True,-1,stimulus_TOSY08_Yes-No Task_2019_Jul_02_1300_217,-1,True,2019_Jul_02_1300,Yes-No Task,3,TOSY08,
Yes-No Task,67,0,67,0,7.7,-1,Hit,0.566652999958,True,-1,stimulus_TOSY08_Yes-No Task_2019_Jul_02_1300_218,-1,True,2019_Jul_02_1300,Yes-No Task,3,TOSY08,
Yes-No Task,68,0,68,0,4.9,-1,Correct Rejection,0.467192400014,False,-1,stimulus_TOSY08_Yes-No Task_2019_Jul_02_1300_219,-1,True,2019_Jul_02_1300,Yes-No Task,3,TOSY08,
Yes-No Task,69,0,69,0,7.7,-1,Hit,0.533895600121,True,-1,stimulus_TOSY08_Yes-No Task_2019_Jul_02_1300_220,-1,True,2019_Jul_02_1300,Yes-No Task,3,TOSY08,
Yes-No Task,70,0,70,0,10.7,-1,Hit,0.567590099992,True,-1,stimulus_TOSY08_Yes-No Task_2019_Jul_02_1300_221,-1,True,2019_Jul_02_1300,Yes-No Task,3,TOSY08,
Yes-No Task,71,0,71,0,4.9,-1,Correct Rejection,0.4653669002,False,-1,stimulus_TOSY08_Yes-No Task_2019_Jul_02_1300_222,-1,True,2019_Jul_02_1300,Yes-No Task,3,TOSY08,
Yes-No Task,72,0,72,0,9.7,-1,Correct Rejection,0.467572399881,False,-1,stimulus_TOSY08_Yes-No Task_2019_Jul_02_1300_223,-1,True,2019_Jul_02_1300,Yes-No Task,3,TOSY08,
Yes-No Task,73,0,73,0,8.7,-1,Correct Rejection,0.433821399929,False,-1,stimulus_TOSY08_Yes-No Task_2019_Jul_02_1300_224,-1,True,2019_Jul_02_1300,Yes-No Task,3,TOSY08,
Yes-No Task,74,0,74,0,6.5,-1,Miss,0.600719799986,True,-1,stimulus_TOSY08_Yes-No Task_2019_Jul_02_1300_225,-1,True,2019_Jul_02_1300,Yes-No Task,3,TOSY08,
Yes-No Task,0,0,0,0,8.7,-1,Miss,0.465978200082,True,-1,stimulus_TOSY08_Yes-No Task_2019_Jul_02_1300_226,-1,True,2019_Jul_02_1300,Yes-No Task,3,TOSY08,
Yes-No Task,1,0,1,0,10.7,-1,Correct Rejection,0.500594799872,False,-1,stimulus_TOSY08_Yes-No Task_2019_Jul_02_1300_227,-1,True,2019_Jul_02_1300,Yes-No Task,3,TOSY08,
Yes-No Task,2,0,2,0,9.7,-1,Correct Rejection,0.434374100063,False,-1,stimulus_TOSY08_Yes-No Task_2019_Jul_02_1300_228,-1,True,2019_Jul_02_1300,Yes-No Task,3,TOSY08,
Yes-No Task,3,0,3,0,7.7,-1,Correct Rejection,0.467632600106,False,-1,stimulus_TOSY08_Yes-No Task_2019_Jul_02_1300_229,-1,True,2019_Jul_02_1300,Yes-No Task,3,TOSY08,
Yes-No Task,4,0,4,0,11.7,-1,Correct Rejection,0.433163699927,False,-1,stimulus_TOSY08_Yes-No Task_2019_Jul_02_1300_230,-1,True,2019_Jul_02_1300,Yes-No Task,3,TOSY08,
Yes-No Task,5,0,5,0,4.9,-1,Miss,0.434201400029,True,-1,stimulus_TOSY08_Yes-No Task_2019_Jul_02_1300_231,-1,True,2019_Jul_02_1300,Yes-No Task,3,TOSY08,
Yes-No Task,6,0,6,0,9.7,-1,Hit,0.467038900126,True,-1,stimulus_TOSY08_Yes-No Task_2019_Jul_02_1300_232,-1,True,2019_Jul_02_1300,Yes-No Task,3,TOSY08,
Yes-No Task,7,0,7,0,10.7,-1,Correct Rejection,0.601284599863,False,-1,stimulus_TOSY08_Yes-No Task_2019_Jul_02_1300_233,-1,True,2019_Jul_02_1300,Yes-No Task,3,TOSY08,
Yes-No Task,8,0,8,0,8.7,-1,Hit,0.500521299895,True,-1,stimulus_TOSY08_Yes-No Task_2019_Jul_02_1300_234,-1,True,2019_Jul_02_1300,Yes-No Task,3,TOSY08,
Yes-No Task,9,0,9,0,12.9,-1,Hit,0.500536899781,True,-1,stimulus_TOSY08_Yes-No Task_2019_Jul_02_1300_235,-1,True,2019_Jul_02_1300,Yes-No Task,3,TOSY08,
Yes-No Task,10,0,10,0,4.9,-1,Correct Rejection,0.534231700003,False,-1,stimulus_TOSY08_Yes-No Task_2019_Jul_02_1300_236,-1,True,2019_Jul_02_1300,Yes-No Task,3,TOSY08,
Yes-No Task,11,0,11,0,12.9,-1,Correct Rejection,0.56657600007,False,-1,stimulus_TOSY08_Yes-No Task_2019_Jul_02_1300_237,-1,True,2019_Jul_02_1300,Yes-No Task,3,TOSY08,
Yes-No Task,12,0,12,0,4.9,-1,Correct Rejection,0.535092900041,False,-1,stimulus_TOSY08_Yes-No Task_2019_Jul_02_1300_238,-1,True,2019_Jul_02_1300,Yes-No Task,3,TOSY08,
Yes-No Task,13,0,13,0,10.7,-1,Hit,0.53358389996,True,-1,stimulus_TOSY08_Yes-No Task_2019_Jul_02_1300_239,-1,True,2019_Jul_02_1300,Yes-No Task,3,TOSY08,
Yes-No Task,14,0,14,0,11.7,-1,Hit,0.43534740014,True,-1,stimulus_TOSY08_Yes-No Task_2019_Jul_02_1300_240,-1,True,2019_Jul_02_1300,Yes-No Task,3,TOSY08,
Yes-No Task,15,0,15,0,11.7,-1,Hit,0.435136200162,True,-1,stimulus_TOSY08_Yes-No Task_2019_Jul_02_1300_241,-1,True,2019_Jul_02_1300,Yes-No Task,3,TOSY08,
Yes-No Task,16,0,16,0,4.9,-1,Correct Rejection,0.434234599816,False,-1,stimulus_TOSY08_Yes-No Task_2019_Jul_02_1300_242,-1,True,2019_Jul_02_1300,Yes-No Task,3,TOSY08,
Yes-No Task,17,0,17,0,11.7,-1,Correct Rejection,0.434120899998,False,-1,stimulus_TOSY08_Yes-No Task_2019_Jul_02_1300_243,-1,True,2019_Jul_02_1300,Yes-No Task,3,TOSY08,
Yes-No Task,18,0,18,0,10.7,-1,Hit,0.567135500023,True,-1,stimulus_TOSY08_Yes-No Task_2019_Jul_02_1300_244,-1,True,2019_Jul_02_1300,Yes-No Task,3,TOSY08,
Yes-No Task,19,0,19,0,7.7,-1,Miss,0.368050099816,True,-1,stimulus_TOSY08_Yes-No Task_2019_Jul_02_1300_245,-1,True,2019_Jul_02_1300,Yes-No Task,3,TOSY08,
Yes-No Task,20,0,20,0,11.7,-1,Hit,0.367666299921,True,-1,stimulus_TOSY08_Yes-No Task_2019_Jul_02_1300_246,-1,True,2019_Jul_02_1300,Yes-No Task,3,TOSY08,
Yes-No Task,21,0,21,0,8.7,-1,Correct Rejection,0.465988400159,False,-1,stimulus_TOSY08_Yes-No Task_2019_Jul_02_1300_247,-1,True,2019_Jul_02_1300,Yes-No Task,3,TOSY08,
Yes-No Task,22,0,22,0,9.7,-1,False Alarm,0.467353700195,False,-1,stimulus_TOSY08_Yes-No Task_2019_Jul_02_1300_248,-1,True,2019_Jul_02_1300,Yes-No Task,3,TOSY08,
Yes-No Task,23,0,23,0,6.5,-1,Hit,0.569250599947,True,-1,stimulus_TOSY08_Yes-No Task_2019_Jul_02_1300_249,-1,True,2019_Jul_02_1300,Yes-No Task,3,TOSY08,
Yes-No Task,24,0,24,0,9.7,-1,Hit,0.5009500999,True,-1,stimulus_TOSY08_Yes-No Task_2019_Jul_02_1300_250,-1,True,2019_Jul_02_1300,Yes-No Task,3,TOSY08,
Yes-No Task,25,0,25,0,4.9,-1,Miss,0.601211299887,True,-1,stimulus_TOSY08_Yes-No Task_2019_Jul_02_1300_251,-1,True,2019_Jul_02_1300,Yes-No Task,3,TOSY08,
Yes-No Task,26,0,26,0,4.9,-1,Correct Rejection,0.467759500025,False,-1,stimulus_TOSY08_Yes-No Task_2019_Jul_02_1300_252,-1,True,2019_Jul_02_1300,Yes-No Task,3,TOSY08,
Yes-No Task,27,0,27,0,8.7,-1,Hit,0.534245300107,True,-1,stimulus_TOSY08_Yes-No Task_2019_Jul_02_1300_253,-1,True,2019_Jul_02_1300,Yes-No Task,3,TOSY08,
Yes-No Task,28,0,28,0,9.7,-1,Correct Rejection,0.465353300096,False,-1,stimulus_TOSY08_Yes-No Task_2019_Jul_02_1300_254,-1,True,2019_Jul_02_1300,Yes-No Task,3,TOSY08,
Yes-No Task,29,0,29,0,8.7,-1,Correct Rejection,0.467986899894,False,-1,stimulus_TOSY08_Yes-No Task_2019_Jul_02_1300_255,-1,True,2019_Jul_02_1300,Yes-No Task,3,TOSY08,
Yes-No Task,30,0,30,0,11.7,-1,Correct Rejection,0.501557700103,False,-1,stimulus_TOSY08_Yes-No Task_2019_Jul_02_1300_256,-1,True,2019_Jul_02_1300,Yes-No Task,3,TOSY08,
Yes-No Task,31,0,31,0,12.9,-1,Correct Rejection,0.433339199983,False,-1,stimulus_TOSY08_Yes-No Task_2019_Jul_02_1300_257,-1,True,2019_Jul_02_1300,Yes-No Task,3,TOSY08,
Yes-No Task,32,0,32,0,11.7,-1,Hit,0.534138899995,True,-1,stimulus_TOSY08_Yes-No Task_2019_Jul_02_1300_258,-1,True,2019_Jul_02_1300,Yes-No Task,3,TOSY08,
Yes-No Task,33,0,33,0,4.9,-1,Correct Rejection,0.467691800091,False,-1,stimulus_TOSY08_Yes-No Task_2019_Jul_02_1300_259,-1,True,2019_Jul_02_1300,Yes-No Task,3,TOSY08,
Yes-No Task,34,0,34,0,9.7,-1,Miss,0.467992299935,True,-1,stimulus_TOSY08_Yes-No Task_2019_Jul_02_1300_260,-1,True,2019_Jul_02_1300,Yes-No Task,3,TOSY08,
Yes-No Task,35,0,35,0,4.9,-1,Miss,0.336741900072,True,-1,stimulus_TOSY08_Yes-No Task_2019_Jul_02_1300_261,-1,True,2019_Jul_02_1300,Yes-No Task,3,TOSY08,
Yes-No Task,36,0,36,0,7.7,-1,Hit,0.300553299952,True,-1,stimulus_TOSY08_Yes-No Task_2019_Jul_02_1300_262,-1,True,2019_Jul_02_1300,Yes-No Task,3,TOSY08,
Yes-No Task,37,0,37,0,8.7,-1,Correct Rejection,0.433538000099,False,-1,stimulus_TOSY08_Yes-No Task_2019_Jul_02_1300_263,-1,True,2019_Jul_02_1300,Yes-No Task,3,TOSY08,
Yes-No Task,38,0,38,0,8.7,-1,Correct Rejection,0.467797999969,False,-1,stimulus_TOSY08_Yes-No Task_2019_Jul_02_1300_264,-1,True,2019_Jul_02_1300,Yes-No Task,3,TOSY08,
Yes-No Task,39,0,39,0,12.9,-1,Hit,0.500392599963,True,-1,stimulus_TOSY08_Yes-No Task_2019_Jul_02_1300_265,-1,True,2019_Jul_02_1300,Yes-No Task,3,TOSY08,
Yes-No Task,40,0,40,0,7.7,-1,Correct Rejection,0.466443300014,False,-1,stimulus_TOSY08_Yes-No Task_2019_Jul_02_1300_266,-1,True,2019_Jul_02_1300,Yes-No Task,3,TOSY08,
Yes-No Task,41,0,41,0,7.7,-1,Correct Rejection,0.567587800091,False,-1,stimulus_TOSY08_Yes-No Task_2019_Jul_02_1300_267,-1,True,2019_Jul_02_1300,Yes-No Task,3,TOSY08,
Yes-No Task,42,0,42,0,10.7,-1,Hit,0.502025600057,True,-1,stimulus_TOSY08_Yes-No Task_2019_Jul_02_1300_268,-1,True,2019_Jul_02_1300,Yes-No Task,3,TOSY08,
Yes-No Task,43,0,43,0,11.7,-1,Correct Rejection,0.467246999964,False,-1,stimulus_TOSY08_Yes-No Task_2019_Jul_02_1300_269,-1,True,2019_Jul_02_1300,Yes-No Task,3,TOSY08,
Yes-No Task,44,0,44,0,9.7,-1,Hit,0.466492299922,True,-1,stimulus_TOSY08_Yes-No Task_2019_Jul_02_1300_270,-1,True,2019_Jul_02_1300,Yes-No Task,3,TOSY08,
Yes-No Task,45,0,45,0,9.7,-1,Miss,0.466922999825,True,-1,stimulus_TOSY08_Yes-No Task_2019_Jul_02_1300_271,-1,True,2019_Jul_02_1300,Yes-No Task,3,TOSY08,
Yes-No Task,46,0,46,0,12.9,-1,False Alarm,0.466063600034,False,-1,stimulus_TOSY08_Yes-No Task_2019_Jul_02_1300_272,-1,True,2019_Jul_02_1300,Yes-No Task,3,TOSY08,
Yes-No Task,47,0,47,0,7.7,-1,Correct Rejection,0.468447100138,False,-1,stimulus_TOSY08_Yes-No Task_2019_Jul_02_1300_273,-1,True,2019_Jul_02_1300,Yes-No Task,3,TOSY08,
Yes-No Task,48,0,48,0,11.7,-1,Hit,0.60098600015,True,-1,stimulus_TOSY08_Yes-No Task_2019_Jul_02_1300_274,-1,True,2019_Jul_02_1300,Yes-No Task,3,TOSY08,
Yes-No Task,49,0,49,0,4.9,-1,Correct Rejection,0.402273199987,False,-1,stimulus_TOSY08_Yes-No Task_2019_Jul_02_1300_275,-1,True,2019_Jul_02_1300,Yes-No Task,3,TOSY08,
Yes-No Task,50,0,50,0,6.5,-1,Hit,0.566731400089,True,-1,stimulus_TOSY08_Yes-No Task_2019_Jul_02_1300_276,-1,True,2019_Jul_02_1300,Yes-No Task,3,TOSY08,
Yes-No Task,51,0,51,0,10.7,-1,Correct Rejection,0.501360000111,False,-1,stimulus_TOSY08_Yes-No Task_2019_Jul_02_1300_277,-1,True,2019_Jul_02_1300,Yes-No Task,3,TOSY08,
Yes-No Task,52,0,52,0,11.7,-1,Correct Rejection,0.467644599965,False,-1,stimulus_TOSY08_Yes-No Task_2019_Jul_02_1300_278,-1,True,2019_Jul_02_1300,Yes-No Task,3,TOSY08,
Yes-No Task,53,0,53,0,6.5,-1,Correct Rejection,0.500486199977,False,-1,stimulus_TOSY08_Yes-No Task_2019_Jul_02_1300_279,-1,True,2019_Jul_02_1300,Yes-No Task,3,TOSY08,
Yes-No Task,54,0,54,0,11.7,-1,Correct Rejection,0.464248300064,False,-1,stimulus_TOSY08_Yes-No Task_2019_Jul_02_1300_280,-1,True,2019_Jul_02_1300,Yes-No Task,3,TOSY08,
Yes-No Task,55,0,55,0,6.5,-1,Correct Rejection,0.632182300091,False,-1,stimulus_TOSY08_Yes-No Task_2019_Jul_02_1300_281,-1,True,2019_Jul_02_1300,Yes-No Task,3,TOSY08,
Yes-No Task,56,0,56,0,6.5,-1,Hit,0.700861199992,True,-1,stimulus_TOSY08_Yes-No Task_2019_Jul_02_1300_282,-1,True,2019_Jul_02_1300,Yes-No Task,3,TOSY08,
Yes-No Task,57,0,57,0,10.7,-1,Miss,0.433717199834,True,-1,stimulus_TOSY08_Yes-No Task_2019_Jul_02_1300_283,-1,True,2019_Jul_02_1300,Yes-No Task,3,TOSY08,
Yes-No Task,58,0,58,0,9.7,-1,Correct Rejection,0.500141700031,False,-1,stimulus_TOSY08_Yes-No Task_2019_Jul_02_1300_284,-1,True,2019_Jul_02_1300,Yes-No Task,3,TOSY08,
Yes-No Task,59,0,59,0,11.7,-1,Hit,0.501309499843,True,-1,stimulus_TOSY08_Yes-No Task_2019_Jul_02_1300_285,-1,True,2019_Jul_02_1300,Yes-No Task,3,TOSY08,
Yes-No Task,60,0,60,0,11.7,-1,Hit,0.401227599941,True,-1,stimulus_TOSY08_Yes-No Task_2019_Jul_02_1300_286,-1,True,2019_Jul_02_1300,Yes-No Task,3,TOSY08,
Yes-No Task,61,0,61,0,8.7,-1,False Alarm,0.365680800052,False,-1,stimulus_TOSY08_Yes-No Task_2019_Jul_02_1300_287,-1,True,2019_Jul_02_1300,Yes-No Task,3,TOSY08,
Yes-No Task,62,0,62,0,6.5,-1,Miss,0.365029799985,True,-1,stimulus_TOSY08_Yes-No Task_2019_Jul_02_1300_288,-1,True,2019_Jul_02_1300,Yes-No Task,3,TOSY08,
Yes-No Task,63,0,63,0,9.7,-1,Hit,0.567135400139,True,-1,stimulus_TOSY08_Yes-No Task_2019_Jul_02_1300_289,-1,True,2019_Jul_02_1300,Yes-No Task,3,TOSY08,
Yes-No Task,64,0,64,0,7.7,-1,Correct Rejection,0.499438500032,False,-1,stimulus_TOSY08_Yes-No Task_2019_Jul_02_1300_290,-1,True,2019_Jul_02_1300,Yes-No Task,3,TOSY08,
Yes-No Task,65,0,65,0,8.7,-1,Correct Rejection,0.466791599989,False,-1,stimulus_TOSY08_Yes-No Task_2019_Jul_02_1300_291,-1,True,2019_Jul_02_1300,Yes-No Task,3,TOSY08,
Yes-No Task,66,0,66,0,10.7,-1,Miss,0.433605499798,True,-1,stimulus_TOSY08_Yes-No Task_2019_Jul_02_1300_292,-1,True,2019_Jul_02_1300,Yes-No Task,3,TOSY08,
Yes-No Task,67,0,67,0,4.9,-1,Correct Rejection,0.567073400132,False,-1,stimulus_TOSY08_Yes-No Task_2019_Jul_02_1300_293,-1,True,2019_Jul_02_1300,Yes-No Task,3,TOSY08,
Yes-No Task,68,0,68,0,10.7,-1,Hit,0.467512400122,True,-1,stimulus_TOSY08_Yes-No Task_2019_Jul_02_1300_294,-1,True,2019_Jul_02_1300,Yes-No Task,3,TOSY08,
Yes-No Task,69,0,69,0,11.7,-1,Hit,0.433772100136,True,-1,stimulus_TOSY08_Yes-No Task_2019_Jul_02_1300_295,-1,True,2019_Jul_02_1300,Yes-No Task,3,TOSY08,
Yes-No Task,70,0,70,0,4.9,-1,Miss,0.432797599817,True,-1,stimulus_TOSY08_Yes-No Task_2019_Jul_02_1300_296,-1,True,2019_Jul_02_1300,Yes-No Task,3,TOSY08,
Yes-No Task,71,0,71,0,8.7,-1,Miss,0.433403200004,True,-1,stimulus_TOSY08_Yes-No Task_2019_Jul_02_1300_297,-1,True,2019_Jul_02_1300,Yes-No Task,3,TOSY08,
Yes-No Task,72,0,72,0,11.7,-1,Correct Rejection,0.502241600072,False,-1,stimulus_TOSY08_Yes-No Task_2019_Jul_02_1300_298,-1,True,2019_Jul_02_1300,Yes-No Task,3,TOSY08,
Yes-No Task,73,0,73,0,7.7,-1,Hit,0.466056499863,True,-1,stimulus_TOSY08_Yes-No Task_2019_Jul_02_1300_299,-1,True,2019_Jul_02_1300,Yes-No Task,3,TOSY08,
Yes-No Task,74,0,74,0,6.5,-1,Correct Rejection,0.46758369985,False,-1,stimulus_TOSY08_Yes-No Task_2019_Jul_02_1300_300,-1,True,2019_Jul_02_1300,Yes-No Task,3,TOSY08,
Yes-No Task,0,0,0,0,4.9,-1,Hit,0.567457499914,True,-1,stimulus_TOSY08_Yes-No Task_2019_Jul_02_1300_301,-1,True,2019_Jul_02_1300,Yes-No Task,3,TOSY08,
Yes-No Task,1,0,1,0,12.9,-1,Correct Rejection,0.43503500009,False,-1,stimulus_TOSY08_Yes-No Task_2019_Jul_02_1300_302,-1,True,2019_Jul_02_1300,Yes-No Task,3,TOSY08,
Yes-No Task,2,0,2,0,11.7,-1,Hit,0.466471299995,True,-1,stimulus_TOSY08_Yes-No Task_2019_Jul_02_1300_303,-1,True,2019_Jul_02_1300,Yes-No Task,3,TOSY08,
Yes-No Task,3,0,3,0,9.7,-1,Hit,0.4665463001,True,-1,stimulus_TOSY08_Yes-No Task_2019_Jul_02_1300_304,-1,True,2019_Jul_02_1300,Yes-No Task,3,TOSY08,
Yes-No Task,4,0,4,0,9.7,-1,Correct Rejection,0.567179500125,False,-1,stimulus_TOSY08_Yes-No Task_2019_Jul_02_1300_305,-1,True,2019_Jul_02_1300,Yes-No Task,3,TOSY08,
Yes-No Task,5,0,5,0,6.5,-1,Hit,0.46663969988,True,-1,stimulus_TOSY08_Yes-No Task_2019_Jul_02_1300_306,-1,True,2019_Jul_02_1300,Yes-No Task,3,TOSY08,
Yes-No Task,6,0,6,0,12.9,-1,Hit,0.501077099936,True,-1,stimulus_TOSY08_Yes-No Task_2019_Jul_02_1300_307,-1,True,2019_Jul_02_1300,Yes-No Task,3,TOSY08,
Yes-No Task,7,0,7,0,9.7,-1,Miss,0.433288299944,True,-1,stimulus_TOSY08_Yes-No Task_2019_Jul_02_1300_308,-1,True,2019_Jul_02_1300,Yes-No Task,3,TOSY08,
Yes-No Task,8,0,8,0,9.7,-1,Hit,0.432808399899,True,-1,stimulus_TOSY08_Yes-No Task_2019_Jul_02_1300_309,-1,True,2019_Jul_02_1300,Yes-No Task,3,TOSY08,
Yes-No Task,9,0,9,0,4.9,-1,Correct Rejection,0.335527899908,False,-1,stimulus_TOSY08_Yes-No Task_2019_Jul_02_1300_310,-1,True,2019_Jul_02_1300,Yes-No Task,3,TOSY08,
Yes-No Task,10,0,10,0,7.7,-1,Correct Rejection,0.600044099847,False,-1,stimulus_TOSY08_Yes-No Task_2019_Jul_02_1300_311,-1,True,2019_Jul_02_1300,Yes-No Task,3,TOSY08,
Yes-No Task,11,0,11,0,7.7,-1,Correct Rejection,0.433526100125,False,-1,stimulus_TOSY08_Yes-No Task_2019_Jul_02_1300_312,-1,True,2019_Jul_02_1300,Yes-No Task,3,TOSY08,
Yes-No Task,12,0,12,0,10.7,-1,Correct Rejection,0.534052400151,False,-1,stimulus_TOSY08_Yes-No Task_2019_Jul_02_1300_313,-1,True,2019_Jul_02_1300,Yes-No Task,3,TOSY08,
Yes-No Task,13,0,13,0,8.7,-1,Correct Rejection,0.467110299971,False,-1,stimulus_TOSY08_Yes-No Task_2019_Jul_02_1300_314,-1,True,2019_Jul_02_1300,Yes-No Task,3,TOSY08,
Yes-No Task,14,0,14,0,10.7,-1,Hit,0.433936699992,True,-1,stimulus_TOSY08_Yes-No Task_2019_Jul_02_1300_315,-1,True,2019_Jul_02_1300,Yes-No Task,3,TOSY08,
Yes-No Task,15,0,15,0,8.7,-1,Hit,0.467828900088,True,-1,stimulus_TOSY08_Yes-No Task_2019_Jul_02_1300_316,-1,True,2019_Jul_02_1300,Yes-No Task,3,TOSY08,
Yes-No Task,16,0,16,0,8.7,-1,Correct Rejection,0.433771100128,False,-1,stimulus_TOSY08_Yes-No Task_2019_Jul_02_1300_317,-1,True,2019_Jul_02_1300,Yes-No Task,3,TOSY08,
Yes-No Task,17,0,17,0,9.7,-1,Hit,0.534500600072,True,-1,stimulus_TOSY08_Yes-No Task_2019_Jul_02_1300_318,-1,True,2019_Jul_02_1300,Yes-No Task,3,TOSY08,
Yes-No Task,18,0,18,0,4.9,-1,Correct Rejection,0.366347200004,False,-1,stimulus_TOSY08_Yes-No Task_2019_Jul_02_1300_319,-1,True,2019_Jul_02_1300,Yes-No Task,3,TOSY08,
Yes-No Task,19,0,19,0,9.7,-1,Hit,0.367295499891,True,-1,stimulus_TOSY08_Yes-No Task_2019_Jul_02_1300_320,-1,True,2019_Jul_02_1300,Yes-No Task,3,TOSY08,
Yes-No Task,20,0,20,0,7.7,-1,Miss,0.366983699845,True,-1,stimulus_TOSY08_Yes-No Task_2019_Jul_02_1300_321,-1,True,2019_Jul_02_1300,Yes-No Task,3,TOSY08,
Yes-No Task,21,0,21,0,9.7,-1,Hit,0.39949189988,True,-1,stimulus_TOSY08_Yes-No Task_2019_Jul_02_1300_322,-1,True,2019_Jul_02_1300,Yes-No Task,3,TOSY08,
Yes-No Task,22,0,22,0,6.5,-1,Correct Rejection,0.367012399947,False,-1,stimulus_TOSY08_Yes-No Task_2019_Jul_02_1300_323,-1,True,2019_Jul_02_1300,Yes-No Task,3,TOSY08,
Yes-No Task,23,0,23,0,7.7,-1,Correct Rejection,0.500465400051,False,-1,stimulus_TOSY08_Yes-No Task_2019_Jul_02_1300_324,-1,True,2019_Jul_02_1300,Yes-No Task,3,TOSY08,
Yes-No Task,24,0,24,0,12.9,-1,Hit,0.437313099857,True,-1,stimulus_TOSY08_Yes-No Task_2019_Jul_02_1300_325,-1,True,2019_Jul_02_1300,Yes-No Task,3,TOSY08,
Yes-No Task,25,0,25,0,9.7,-1,Correct Rejection,0.402129299939,False,-1,stimulus_TOSY08_Yes-No Task_2019_Jul_02_1300_326,-1,True,2019_Jul_02_1300,Yes-No Task,3,TOSY08,
Yes-No Task,26,0,26,0,8.7,-1,Hit,0.366960900137,True,-1,stimulus_TOSY08_Yes-No Task_2019_Jul_02_1300_327,-1,True,2019_Jul_02_1300,Yes-No Task,3,TOSY08,
Yes-No Task,27,0,27,0,6.5,-1,Hit,0.633515900001,True,-1,stimulus_TOSY08_Yes-No Task_2019_Jul_02_1300_328,-1,True,2019_Jul_02_1300,Yes-No Task,3,TOSY08,
Yes-No Task,28,0,28,0,4.9,-1,Miss,0.467515300028,True,-1,stimulus_TOSY08_Yes-No Task_2019_Jul_02_1300_329,-1,True,2019_Jul_02_1300,Yes-No Task,3,TOSY08,
Yes-No Task,29,0,29,0,6.5,-1,Hit,0.601310699945,True,-1,stimulus_TOSY08_Yes-No Task_2019_Jul_02_1300_330,-1,True,2019_Jul_02_1300,Yes-No Task,3,TOSY08,
Yes-No Task,30,0,30,0,7.7,-1,False Alarm,0.467450000113,False,-1,stimulus_TOSY08_Yes-No Task_2019_Jul_02_1300_331,-1,True,2019_Jul_02_1300,Yes-No Task,3,TOSY08,
Yes-No Task,31,0,31,0,6.5,-1,Correct Rejection,0.501015499933,False,-1,stimulus_TOSY08_Yes-No Task_2019_Jul_02_1300_332,-1,True,2019_Jul_02_1300,Yes-No Task,3,TOSY08,
Yes-No Task,32,0,32,0,12.9,-1,Correct Rejection,0.468420400051,False,-1,stimulus_TOSY08_Yes-No Task_2019_Jul_02_1300_333,-1,True,2019_Jul_02_1300,Yes-No Task,3,TOSY08,
Yes-No Task,33,0,33,0,8.7,-1,Correct Rejection,0.633580300026,False,-1,stimulus_TOSY08_Yes-No Task_2019_Jul_02_1300_334,-1,True,2019_Jul_02_1300,Yes-No Task,3,TOSY08,
Yes-No Task,34,0,34,0,12.9,-1,Hit,0.568236399908,True,-1,stimulus_TOSY08_Yes-No Task_2019_Jul_02_1300_335,-1,True,2019_Jul_02_1300,Yes-No Task,3,TOSY08,
Yes-No Task,35,0,35,0,9.7,-1,Hit,0.569081099937,True,-1,stimulus_TOSY08_Yes-No Task_2019_Jul_02_1300_336,-1,True,2019_Jul_02_1300,Yes-No Task,3,TOSY08,
Yes-No Task,36,0,36,0,8.7,-1,Correct Rejection,0.433379699942,False,-1,stimulus_TOSY08_Yes-No Task_2019_Jul_02_1300_337,-1,True,2019_Jul_02_1300,Yes-No Task,3,TOSY08,
Yes-No Task,37,0,37,0,8.7,-1,False Alarm,0.599700000137,False,-1,stimulus_TOSY08_Yes-No Task_2019_Jul_02_1300_338,-1,True,2019_Jul_02_1300,Yes-No Task,3,TOSY08,
Yes-No Task,38,0,38,0,11.7,-1,Correct Rejection,0.50070199999,False,-1,stimulus_TOSY08_Yes-No Task_2019_Jul_02_1300_339,-1,True,2019_Jul_02_1300,Yes-No Task,3,TOSY08,
Yes-No Task,39,0,39,0,12.9,-1,Hit,0.499445500085,True,-1,stimulus_TOSY08_Yes-No Task_2019_Jul_02_1300_340,-1,True,2019_Jul_02_1300,Yes-No Task,3,TOSY08,
Yes-No Task,40,0,40,0,6.5,-1,Miss,0.40047930018,True,-1,stimulus_TOSY08_Yes-No Task_2019_Jul_02_1300_341,-1,True,2019_Jul_02_1300,Yes-No Task,3,TOSY08,
Yes-No Task,41,0,41,0,10.7,-1,Miss,0.3674474,True,-1,stimulus_TOSY08_Yes-No Task_2019_Jul_02_1300_342,-1,True,2019_Jul_02_1300,Yes-No Task,3,TOSY08,
Yes-No Task,42,0,42,0,11.7,-1,Correct Rejection,0.567172900075,False,-1,stimulus_TOSY08_Yes-No Task_2019_Jul_02_1300_343,-1,True,2019_Jul_02_1300,Yes-No Task,3,TOSY08,
Yes-No Task,43,0,43,0,12.9,-1,Correct Rejection,0.433705700096,False,-1,stimulus_TOSY08_Yes-No Task_2019_Jul_02_1300_344,-1,True,2019_Jul_02_1300,Yes-No Task,3,TOSY08,
Yes-No Task,44,0,44,0,12.9,-1,Miss,0.467000100063,True,-1,stimulus_TOSY08_Yes-No Task_2019_Jul_02_1300_345,-1,True,2019_Jul_02_1300,Yes-No Task,3,TOSY08,
Yes-No Task,45,0,45,0,6.5,-1,False Alarm,0.500720600132,False,-1,stimulus_TOSY08_Yes-No Task_2019_Jul_02_1300_346,-1,True,2019_Jul_02_1300,Yes-No Task,3,TOSY08,
Yes-No Task,46,0,46,0,11.7,-1,Correct Rejection,0.434097199934,False,-1,stimulus_TOSY08_Yes-No Task_2019_Jul_02_1300_347,-1,True,2019_Jul_02_1300,Yes-No Task,3,TOSY08,
Yes-No Task,47,0,47,0,8.7,-1,Miss,0.533320999937,True,-1,stimulus_TOSY08_Yes-No Task_2019_Jul_02_1300_348,-1,True,2019_Jul_02_1300,Yes-No Task,3,TOSY08,
Yes-No Task,48,0,48,0,7.7,-1,Correct Rejection,0.467421199894,False,-1,stimulus_TOSY08_Yes-No Task_2019_Jul_02_1300_349,-1,True,2019_Jul_02_1300,Yes-No Task,3,TOSY08,
Yes-No Task,49,0,49,0,10.7,-1,Hit,0.399486900074,True,-1,stimulus_TOSY08_Yes-No Task_2019_Jul_02_1300_350,-1,True,2019_Jul_02_1300,Yes-No Task,3,TOSY08,
Yes-No Task,50,0,50,0,7.7,-1,Correct Rejection,0.601691500051,False,-1,stimulus_TOSY08_Yes-No Task_2019_Jul_02_1300_351,-1,True,2019_Jul_02_1300,Yes-No Task,3,TOSY08,
Yes-No Task,51,0,51,0,11.7,-1,Hit,0.400593400002,True,-1,stimulus_TOSY08_Yes-No Task_2019_Jul_02_1300_352,-1,True,2019_Jul_02_1300,Yes-No Task,3,TOSY08,
Yes-No Task,52,0,52,0,9.7,-1,Miss,0.56722460012,True,-1,stimulus_TOSY08_Yes-No Task_2019_Jul_02_1300_353,-1,True,2019_Jul_02_1300,Yes-No Task,3,TOSY08,
Yes-No Task,53,0,53,0,9.7,-1,Correct Rejection,0.500520400004,False,-1,stimulus_TOSY08_Yes-No Task_2019_Jul_02_1300_354,-1,True,2019_Jul_02_1300,Yes-No Task,3,TOSY08,
Yes-No Task,54,0,54,0,6.5,-1,Hit,0.467576399911,True,-1,stimulus_TOSY08_Yes-No Task_2019_Jul_02_1300_355,-1,True,2019_Jul_02_1300,Yes-No Task,3,TOSY08,
Yes-No Task,55,0,55,0,8.7,-1,Hit,0.533473700052,True,-1,stimulus_TOSY08_Yes-No Task_2019_Jul_02_1300_356,-1,True,2019_Jul_02_1300,Yes-No Task,3,TOSY08,
Yes-No Task,56,0,56,0,8.7,-1,Miss,0.600886399858,True,-1,stimulus_TOSY08_Yes-No Task_2019_Jul_02_1300_357,-1,True,2019_Jul_02_1300,Yes-No Task,3,TOSY08,
Yes-No Task,57,0,57,0,11.7,-1,Correct Rejection,0.398534600157,False,-1,stimulus_TOSY08_Yes-No Task_2019_Jul_02_1300_358,-1,True,2019_Jul_02_1300,Yes-No Task,3,TOSY08,
Yes-No Task,58,0,58,0,8.7,-1,Correct Rejection,0.633926599985,False,-1,stimulus_TOSY08_Yes-No Task_2019_Jul_02_1300_359,-1,True,2019_Jul_02_1300,Yes-No Task,3,TOSY08,
Yes-No Task,59,0,59,0,4.9,-1,Hit,0.634689900093,True,-1,stimulus_TOSY08_Yes-No Task_2019_Jul_02_1300_360,-1,True,2019_Jul_02_1300,Yes-No Task,3,TOSY08,
Yes-No Task,60,0,60,0,10.7,-1,Hit,0.567852000007,True,-1,stimulus_TOSY08_Yes-No Task_2019_Jul_02_1300_361,-1,True,2019_Jul_02_1300,Yes-No Task,3,TOSY08,
Yes-No Task,61,0,61,0,9.7,-1,Correct Rejection,0.668454699917,False,-1,stimulus_TOSY08_Yes-No Task_2019_Jul_02_1300_362,-1,True,2019_Jul_02_1300,Yes-No Task,3,TOSY08,
Yes-No Task,62,0,62,0,4.9,-1,Correct Rejection,0.563208600041,False,-1,stimulus_TOSY08_Yes-No Task_2019_Jul_02_1300_363,-1,True,2019_Jul_02_1300,Yes-No Task,3,TOSY08,
Yes-No Task,63,0,63,0,8.7,-1,Correct Rejection,0.568683800055,False,-1,stimulus_TOSY08_Yes-No Task_2019_Jul_02_1300_364,-1,True,2019_Jul_02_1300,Yes-No Task,3,TOSY08,
Yes-No Task,64,0,64,0,6.5,-1,Miss,0.504252200015,True,-1,stimulus_TOSY08_Yes-No Task_2019_Jul_02_1300_365,-1,True,2019_Jul_02_1300,Yes-No Task,3,TOSY08,
Yes-No Task,65,0,65,0,10.7,-1,Hit,0.400970800081,True,-1,stimulus_TOSY08_Yes-No Task_2019_Jul_02_1300_366,-1,True,2019_Jul_02_1300,Yes-No Task,3,TOSY08,
Yes-No Task,66,0,66,0,8.7,-1,Correct Rejection,0.50082000019,False,-1,stimulus_TOSY08_Yes-No Task_2019_Jul_02_1300_367,-1,True,2019_Jul_02_1300,Yes-No Task,3,TOSY08,
Yes-No Task,67,0,67,0,6.5,-1,Hit,0.634520299966,True,-1,stimulus_TOSY08_Yes-No Task_2019_Jul_02_1300_368,-1,True,2019_Jul_02_1300,Yes-No Task,3,TOSY08,
Yes-No Task,68,0,68,0,10.7,-1,Correct Rejection,0.60112750018,False,-1,stimulus_TOSY08_Yes-No Task_2019_Jul_02_1300_369,-1,True,2019_Jul_02_1300,Yes-No Task,3,TOSY08,
Yes-No Task,69,0,69,0,11.7,-1,Hit,0.433509099996,True,-1,stimulus_TOSY08_Yes-No Task_2019_Jul_02_1300_370,-1,True,2019_Jul_02_1300,Yes-No Task,3,TOSY08,
Yes-No Task,70,0,70,0,6.5,-1,Correct Rejection,0.400800699834,False,-1,stimulus_TOSY08_Yes-No Task_2019_Jul_02_1300_371,-1,True,2019_Jul_02_1300,Yes-No Task,3,TOSY08,
Yes-No Task,71,0,71,0,10.7,-1,Correct Rejection,0.532906200038,False,-1,stimulus_TOSY08_Yes-No Task_2019_Jul_02_1300_372,-1,True,2019_Jul_02_1300,Yes-No Task,3,TOSY08,
Yes-No Task,72,0,72,0,9.7,-1,Hit,0.46930300002,True,-1,stimulus_TOSY08_Yes-No Task_2019_Jul_02_1300_373,-1,True,2019_Jul_02_1300,Yes-No Task,3,TOSY08,
Yes-No Task,73,0,73,0,7.7,-1,Correct Rejection,0.301605100045,False,-1,stimulus_TOSY08_Yes-No Task_2019_Jul_02_1300_374,-1,True,2019_Jul_02_1300,Yes-No Task,3,TOSY08,
Yes-No Task,74,0,74,0,10.7,-1,Correct Rejection,0.499425900169,False,-1,stimulus_TOSY08_Yes-No Task_2019_Jul_02_1300_375,-1,True,2019_Jul_02_1300,Yes-No Task,3,TOSY08,
Yes-No Task,0,0,0,0,11.7,-1,Correct Rejection,0.667995299911,False,-1,stimulus_TOSY08_Yes-No Task_2019_Jul_02_1300_376,-1,True,2019_Jul_02_1300,Yes-No Task,3,TOSY08,
Yes-No Task,1,0,1,0,4.9,-1,Correct Rejection,0.366063100053,False,-1,stimulus_TOSY08_Yes-No Task_2019_Jul_02_1300_377,-1,True,2019_Jul_02_1300,Yes-No Task,3,TOSY08,
Yes-No Task,2,0,2,0,10.7,-1,Correct Rejection,0.432816999964,False,-1,stimulus_TOSY08_Yes-No Task_2019_Jul_02_1300_378,-1,True,2019_Jul_02_1300,Yes-No Task,3,TOSY08,
Yes-No Task,3,0,3,0,7.7,-1,Correct Rejection,0.468092299998,False,-1,stimulus_TOSY08_Yes-No Task_2019_Jul_02_1300_379,-1,True,2019_Jul_02_1300,Yes-No Task,3,TOSY08,
Yes-No Task,4,0,4,0,4.9,-1,Miss,0.400591899874,True,-1,stimulus_TOSY08_Yes-No Task_2019_Jul_02_1300_380,-1,True,2019_Jul_02_1300,Yes-No Task,3,TOSY08,
Yes-No Task,5,0,5,0,4.9,-1,Miss,0.535311700078,True,-1,stimulus_TOSY08_Yes-No Task_2019_Jul_02_1300_381,-1,True,2019_Jul_02_1300,Yes-No Task,3,TOSY08,
Yes-No Task,6,0,6,0,9.7,-1,Hit,0.434854199877,True,-1,stimulus_TOSY08_Yes-No Task_2019_Jul_02_1300_382,-1,True,2019_Jul_02_1300,Yes-No Task,3,TOSY08,
Yes-No Task,7,0,7,0,6.5,-1,Correct Rejection,0.601614700165,False,-1,stimulus_TOSY08_Yes-No Task_2019_Jul_02_1300_383,-1,True,2019_Jul_02_1300,Yes-No Task,3,TOSY08,
Yes-No Task,8,0,8,0,10.7,-1,False Alarm,0.501955300104,False,-1,stimulus_TOSY08_Yes-No Task_2019_Jul_02_1300_384,-1,True,2019_Jul_02_1300,Yes-No Task,3,TOSY08,
Yes-No Task,9,0,9,0,9.7,-1,Correct Rejection,0.367256499827,False,-1,stimulus_TOSY08_Yes-No Task_2019_Jul_02_1300_385,-1,True,2019_Jul_02_1300,Yes-No Task,3,TOSY08,
Yes-No Task,10,0,10,0,4.9,-1,Correct Rejection,0.500372299924,False,-1,stimulus_TOSY08_Yes-No Task_2019_Jul_02_1300_386,-1,True,2019_Jul_02_1300,Yes-No Task,3,TOSY08,
Yes-No Task,11,0,11,0,12.9,-1,Hit,0.533318300033,True,-1,stimulus_TOSY08_Yes-No Task_2019_Jul_02_1300_387,-1,True,2019_Jul_02_1300,Yes-No Task,3,TOSY08,
Yes-No Task,12,0,12,0,9.7,-1,Hit,0.534364699852,True,-1,stimulus_TOSY08_Yes-No Task_2019_Jul_02_1300_388,-1,True,2019_Jul_02_1300,Yes-No Task,3,TOSY08,
Yes-No Task,13,0,13,0,11.7,-1,Hit,0.500973399961,True,-1,stimulus_TOSY08_Yes-No Task_2019_Jul_02_1300_389,-1,True,2019_Jul_02_1300,Yes-No Task,3,TOSY08,
Yes-No Task,14,0,14,0,8.7,-1,Hit,0.500965900021,True,-1,stimulus_TOSY08_Yes-No Task_2019_Jul_02_1300_390,-1,True,2019_Jul_02_1300,Yes-No Task,3,TOSY08,
Yes-No Task,15,0,15,0,4.9,-1,Hit,0.468149599852,True,-1,stimulus_TOSY08_Yes-No Task_2019_Jul_02_1300_391,-1,True,2019_Jul_02_1300,Yes-No Task,3,TOSY08,
Yes-No Task,16,0,16,0,9.7,-1,Correct Rejection,0.500379499979,False,-1,stimulus_TOSY08_Yes-No Task_2019_Jul_02_1300_392,-1,True,2019_Jul_02_1300,Yes-No Task,3,TOSY08,
Yes-No Task,17,0,17,0,11.7,-1,Correct Rejection,0.433509400114,False,-1,stimulus_TOSY08_Yes-No Task_2019_Jul_02_1300_393,-1,True,2019_Jul_02_1300,Yes-No Task,3,TOSY08,
Yes-No Task,18,0,18,0,10.7,-1,Correct Rejection,0.401197199943,False,-1,stimulus_TOSY08_Yes-No Task_2019_Jul_02_1300_394,-1,True,2019_Jul_02_1300,Yes-No Task,3,TOSY08,
Yes-No Task,19,0,19,0,12.9,-1,Correct Rejection,0.501183400163,False,-1,stimulus_TOSY08_Yes-No Task_2019_Jul_02_1300_395,-1,True,2019_Jul_02_1300,Yes-No Task,3,TOSY08,
Yes-No Task,20,0,20,0,10.7,-1,Hit,0.467240900034,True,-1,stimulus_TOSY08_Yes-No Task_2019_Jul_02_1300_396,-1,True,2019_Jul_02_1300,Yes-No Task,3,TOSY08,
Yes-No Task,21,0,21,0,7.7,-1,Hit,0.468684399966,True,-1,stimulus_TOSY08_Yes-No Task_2019_Jul_02_1300_397,-1,True,2019_Jul_02_1300,Yes-No Task,3,TOSY08,
Yes-No Task,22,0,22,0,9.7,-1,Hit,0.434306300012,True,-1,stimulus_TOSY08_Yes-No Task_2019_Jul_02_1300_398,-1,True,2019_Jul_02_1300,Yes-No Task,3,TOSY08,
Yes-No Task,23,0,23,0,8.7,-1,False Alarm,0.467746299924,False,-1,stimulus_TOSY08_Yes-No Task_2019_Jul_02_1300_399,-1,True,2019_Jul_02_1300,Yes-No Task,3,TOSY08,
Yes-No Task,24,0,24,0,11.7,-1,Hit,0.532054299954,True,-1,stimulus_TOSY08_Yes-No Task_2019_Jul_02_1300_400,-1,True,2019_Jul_02_1300,Yes-No Task,3,TOSY08,
Yes-No Task,25,0,25,0,10.7,-1,Correct Rejection,0.433681400027,False,-1,stimulus_TOSY08_Yes-No Task_2019_Jul_02_1300_401,-1,True,2019_Jul_02_1300,Yes-No Task,3,TOSY08,
Yes-No Task,26,0,26,0,10.7,-1,Hit,0.500154900132,True,-1,stimulus_TOSY08_Yes-No Task_2019_Jul_02_1300_402,-1,True,2019_Jul_02_1300,Yes-No Task,3,TOSY08,
Yes-No Task,27,0,27,0,10.7,-1,Correct Rejection,0.433620899916,False,-1,stimulus_TOSY08_Yes-No Task_2019_Jul_02_1300_403,-1,True,2019_Jul_02_1300,Yes-No Task,3,TOSY08,
Yes-No Task,28,0,28,0,12.9,-1,Hit,0.401992799947,True,-1,stimulus_TOSY08_Yes-No Task_2019_Jul_02_1300_404,-1,True,2019_Jul_02_1300,Yes-No Task,3,TOSY08,
Yes-No Task,29,0,29,0,8.7,-1,Miss,0.400272199884,True,-1,stimulus_TOSY08_Yes-No Task_2019_Jul_02_1300_405,-1,True,2019_Jul_02_1300,Yes-No Task,3,TOSY08,
Yes-No Task,30,0,30,0,9.7,-1,Hit,0.333759300178,True,-1,stimulus_TOSY08_Yes-No Task_2019_Jul_02_1300_406,-1,True,2019_Jul_02_1300,Yes-No Task,3,TOSY08,
Yes-No Task,31,0,31,0,7.7,-1,Hit,0.367885000072,True,-1,stimulus_TOSY08_Yes-No Task_2019_Jul_02_1300_407,-1,True,2019_Jul_02_1300,Yes-No Task,3,TOSY08,
Yes-No Task,32,0,32,0,10.7,-1,Correct Rejection,0.435116200009,False,-1,stimulus_TOSY08_Yes-No Task_2019_Jul_02_1300_408,-1,True,2019_Jul_02_1300,Yes-No Task,3,TOSY08,
Yes-No Task,33,0,33,0,12.9,-1,Hit,0.46539909998,True,-1,stimulus_TOSY08_Yes-No Task_2019_Jul_02_1300_409,-1,True,2019_Jul_02_1300,Yes-No Task,3,TOSY08,
Yes-No Task,34,0,34,0,11.7,-1,Correct Rejection,0.367109699873,False,-1,stimulus_TOSY08_Yes-No Task_2019_Jul_02_1300_410,-1,True,2019_Jul_02_1300,Yes-No Task,3,TOSY08,
Yes-No Task,35,0,35,0,11.7,-1,False Alarm,0.267711200053,False,-1,stimulus_TOSY08_Yes-No Task_2019_Jul_02_1300_411,-1,True,2019_Jul_02_1300,Yes-No Task,3,TOSY08,
Yes-No Task,36,0,36,0,6.5,-1,Hit,0.466630299808,True,-1,stimulus_TOSY08_Yes-No Task_2019_Jul_02_1300_412,-1,True,2019_Jul_02_1300,Yes-No Task,3,TOSY08,
Yes-No Task,37,0,37,0,9.7,-1,Hit,0.367658599978,True,-1,stimulus_TOSY08_Yes-No Task_2019_Jul_02_1300_413,-1,True,2019_Jul_02_1300,Yes-No Task,3,TOSY08,
Yes-No Task,38,0,38,0,6.5,-1,Hit,0.400162700098,True,-1,stimulus_TOSY08_Yes-No Task_2019_Jul_02_1300_414,-1,True,2019_Jul_02_1300,Yes-No Task,3,TOSY08,
Yes-No Task,39,0,39,0,11.7,-1,Correct Rejection,0.333722499898,False,-1,stimulus_TOSY08_Yes-No Task_2019_Jul_02_1300_415,-1,True,2019_Jul_02_1300,Yes-No Task,3,TOSY08,
Yes-No Task,40,0,40,0,11.7,-1,Miss,0.33244610019,True,-1,stimulus_TOSY08_Yes-No Task_2019_Jul_02_1300_416,-1,True,2019_Jul_02_1300,Yes-No Task,3,TOSY08,
Yes-No Task,41,0,41,0,8.7,-1,Hit,0.268019800074,True,-1,stimulus_TOSY08_Yes-No Task_2019_Jul_02_1300_417,-1,True,2019_Jul_02_1300,Yes-No Task,3,TOSY08,
Yes-No Task,42,0,42,0,6.5,-1,Hit,0.367330100155,True,-1,stimulus_TOSY08_Yes-No Task_2019_Jul_02_1300_418,-1,True,2019_Jul_02_1300,Yes-No Task,3,TOSY08,
Yes-No Task,43,0,43,0,9.7,-1,False Alarm,0.400496300077,False,-1,stimulus_TOSY08_Yes-No Task_2019_Jul_02_1300_419,-1,True,2019_Jul_02_1300,Yes-No Task,3,TOSY08,
Yes-No Task,44,0,44,0,6.5,-1,False Alarm,0.400739599951,False,-1,stimulus_TOSY08_Yes-No Task_2019_Jul_02_1300_420,-1,True,2019_Jul_02_1300,Yes-No Task,3,TOSY08,
Yes-No Task,45,0,45,0,9.7,-1,Hit,0.500641999999,True,-1,stimulus_TOSY08_Yes-No Task_2019_Jul_02_1300_421,-1,True,2019_Jul_02_1300,Yes-No Task,3,TOSY08,
Yes-No Task,46,0,46,0,11.7,-1,Hit,0.401046500076,True,-1,stimulus_TOSY08_Yes-No Task_2019_Jul_02_1300_422,-1,True,2019_Jul_02_1300,Yes-No Task,3,TOSY08,
Yes-No Task,47,0,47,0,10.7,-1,Hit,0.400822399883,True,-1,stimulus_TOSY08_Yes-No Task_2019_Jul_02_1300_423,-1,True,2019_Jul_02_1300,Yes-No Task,3,TOSY08,
Yes-No Task,48,0,48,0,11.7,-1,False Alarm,0.366714200005,False,-1,stimulus_TOSY08_Yes-No Task_2019_Jul_02_1300_424,-1,True,2019_Jul_02_1300,Yes-No Task,3,TOSY08,
Yes-No Task,49,0,49,0,9.7,-1,Correct Rejection,0.33397529996,False,-1,stimulus_TOSY08_Yes-No Task_2019_Jul_02_1300_425,-1,True,2019_Jul_02_1300,Yes-No Task,3,TOSY08,
Yes-No Task,50,0,50,0,11.7,-1,Miss,0.333591000177,True,-1,stimulus_TOSY08_Yes-No Task_2019_Jul_02_1300_426,-1,True,2019_Jul_02_1300,Yes-No Task,3,TOSY08,
Yes-No Task,51,0,51,0,7.7,-1,Hit,0.466500299983,True,-1,stimulus_TOSY08_Yes-No Task_2019_Jul_02_1300_427,-1,True,2019_Jul_02_1300,Yes-No Task,3,TOSY08,
Yes-No Task,52,0,52,0,4.9,-1,False Alarm,0.467404899886,False,-1,stimulus_TOSY08_Yes-No Task_2019_Jul_02_1300_428,-1,True,2019_Jul_02_1300,Yes-No Task,3,TOSY08,
Yes-No Task,53,0,53,0,10.7,-1,Hit,0.467853300041,True,-1,stimulus_TOSY08_Yes-No Task_2019_Jul_02_1300_429,-1,True,2019_Jul_02_1300,Yes-No Task,3,TOSY08,
Yes-No Task,54,0,54,0,7.7,-1,False Alarm,0.433943599928,False,-1,stimulus_TOSY08_Yes-No Task_2019_Jul_02_1300_430,-1,True,2019_Jul_02_1300,Yes-No Task,3,TOSY08,
Yes-No Task,55,0,55,0,7.7,-1,False Alarm,0.433917799965,False,-1,stimulus_TOSY08_Yes-No Task_2019_Jul_02_1300_431,-1,True,2019_Jul_02_1300,Yes-No Task,3,TOSY08,
Yes-No Task,56,0,56,0,6.5,-1,Miss,0.434500599978,True,-1,stimulus_TOSY08_Yes-No Task_2019_Jul_02_1300_432,-1,True,2019_Jul_02_1300,Yes-No Task,3,TOSY08,
Yes-No Task,57,0,57,0,7.7,-1,Hit,0.466525200056,True,-1,stimulus_TOSY08_Yes-No Task_2019_Jul_02_1300_433,-1,True,2019_Jul_02_1300,Yes-No Task,3,TOSY08,
Yes-No Task,58,0,58,0,11.7,-1,Hit,0.500442699995,True,-1,stimulus_TOSY08_Yes-No Task_2019_Jul_02_1300_434,-1,True,2019_Jul_02_1300,Yes-No Task,3,TOSY08,
Yes-No Task,59,0,59,0,12.9,-1,Correct Rejection,0.501289499924,False,-1,stimulus_TOSY08_Yes-No Task_2019_Jul_02_1300_435,-1,True,2019_Jul_02_1300,Yes-No Task,3,TOSY08,
Yes-No Task,60,0,60,0,10.7,-1,Correct Rejection,0.435448899865,False,-1,stimulus_TOSY08_Yes-No Task_2019_Jul_02_1300_436,-1,True,2019_Jul_02_1300,Yes-No Task,3,TOSY08,
Yes-No Task,61,0,61,0,10.7,-1,Miss,0.401184299961,True,-1,stimulus_TOSY08_Yes-No Task_2019_Jul_02_1300_437,-1,True,2019_Jul_02_1300,Yes-No Task,3,TOSY08,
Yes-No Task,62,0,62,0,6.5,-1,Miss,0.532191100065,True,-1,stimulus_TOSY08_Yes-No Task_2019_Jul_02_1300_438,-1,True,2019_Jul_02_1300,Yes-No Task,3,TOSY08,
Yes-No Task,63,0,63,0,9.7,-1,Correct Rejection,0.466561800102,False,-1,stimulus_TOSY08_Yes-No Task_2019_Jul_02_1300_439,-1,True,2019_Jul_02_1300,Yes-No Task,3,TOSY08,
Yes-No Task,64,0,64,0,11.7,-1,Hit,0.500414399896,True,-1,stimulus_TOSY08_Yes-No Task_2019_Jul_02_1300_440,-1,True,2019_Jul_02_1300,Yes-No Task,3,TOSY08,
Yes-No Task,65,0,65,0,9.7,-1,Hit,0.533260300057,True,-1,stimulus_TOSY08_Yes-No Task_2019_Jul_02_1300_441,-1,True,2019_Jul_02_1300,Yes-No Task,3,TOSY08,
Yes-No Task,66,0,66,0,8.7,-1,Hit,0.433883399935,True,-1,stimulus_TOSY08_Yes-No Task_2019_Jul_02_1300_442,-1,True,2019_Jul_02_1300,Yes-No Task,3,TOSY08,
Yes-No Task,67,0,67,0,12.9,-1,Correct Rejection,0.367652599933,False,-1,stimulus_TOSY08_Yes-No Task_2019_Jul_02_1300_443,-1,True,2019_Jul_02_1300,Yes-No Task,3,TOSY08,
Yes-No Task,68,0,68,0,6.5,-1,Miss,0.333233200014,True,-1,stimulus_TOSY08_Yes-No Task_2019_Jul_02_1300_444,-1,True,2019_Jul_02_1300,Yes-No Task,3,TOSY08,
Yes-No Task,69,0,69,0,11.7,-1,Hit,0.233199199894,True,-1,stimulus_TOSY08_Yes-No Task_2019_Jul_02_1300_445,-1,True,2019_Jul_02_1300,Yes-No Task,3,TOSY08,
Yes-No Task,70,0,70,0,8.7,-1,Hit,0.43420470017,True,-1,stimulus_TOSY08_Yes-No Task_2019_Jul_02_1300_446,-1,True,2019_Jul_02_1300,Yes-No Task,3,TOSY08,
Yes-No Task,71,0,71,0,12.9,-1,Hit,0.401215899969,True,-1,stimulus_TOSY08_Yes-No Task_2019_Jul_02_1300_447,-1,True,2019_Jul_02_1300,Yes-No Task,3,TOSY08,
Yes-No Task,72,0,72,0,7.7,-1,Hit,0.331856500125,True,-1,stimulus_TOSY08_Yes-No Task_2019_Jul_02_1300_448,-1,True,2019_Jul_02_1300,Yes-No Task,3,TOSY08,
Yes-No Task,73,0,73,0,9.7,-1,False Alarm,0.301497299923,False,-1,stimulus_TOSY08_Yes-No Task_2019_Jul_02_1300_449,-1,True,2019_Jul_02_1300,Yes-No Task,3,TOSY08,
Yes-No Task,74,0,74,0,4.9,-1,Correct Rejection,0.134596199961,False,-1,stimulus_TOSY08_Yes-No Task_2019_Jul_02_1300_450,-1,True,2019_Jul_02_1300,Yes-No Task,3,TOSY08,
Yes-No Task,0,0,0,0,7.7,-1,No Answer,-1,False,-1,stimulus_TOSY08_Yes-No Task_2019_Jul_02_1300_451,-1,True,2019_Jul_02_1300,Yes-No Task,3,TOSY08,
Yes-No Task,1,0,1,0,4.9,-1,Correct Rejection,0.43368040002,False,-1,stimulus_TOSY08_Yes-No Task_2019_Jul_02_1300_452,-1,True,2019_Jul_02_1300,Yes-No Task,3,TOSY08,
Yes-No Task,2,0,2,0,9.7,-1,Correct Rejection,0.434593900107,False,-1,stimulus_TOSY08_Yes-No Task_2019_Jul_02_1300_453,-1,True,2019_Jul_02_1300,Yes-No Task,3,TOSY08,
Yes-No Task,3,0,3,0,12.9,-1,Correct Rejection,0.467246999964,False,-1,stimulus_TOSY08_Yes-No Task_2019_Jul_02_1300_454,-1,True,2019_Jul_02_1300,Yes-No Task,3,TOSY08,
Yes-No Task,4,0,4,0,10.7,-1,Hit,0.434157999931,True,-1,stimulus_TOSY08_Yes-No Task_2019_Jul_02_1300_455,-1,True,2019_Jul_02_1300,Yes-No Task,3,TOSY08,
Yes-No Task,5,0,5,0,10.7,-1,False Alarm,0.467871299945,False,-1,stimulus_TOSY08_Yes-No Task_2019_Jul_02_1300_456,-1,True,2019_Jul_02_1300,Yes-No Task,3,TOSY08,
Yes-No Task,6,0,6,0,8.7,-1,Miss,0.266750700073,True,-1,stimulus_TOSY08_Yes-No Task_2019_Jul_02_1300_457,-1,True,2019_Jul_02_1300,Yes-No Task,3,TOSY08,
Yes-No Task,7,0,7,0,11.7,-1,False Alarm,0.668783299858,False,-1,stimulus_TOSY08_Yes-No Task_2019_Jul_02_1300_458,-1,True,2019_Jul_02_1300,Yes-No Task,3,TOSY08,
Yes-No Task,8,0,8,0,10.7,-1,Miss,0.300686300034,True,-1,stimulus_TOSY08_Yes-No Task_2019_Jul_02_1300_459,-1,True,2019_Jul_02_1300,Yes-No Task,3,TOSY08,
Yes-No Task,9,0,9,0,7.7,-1,False Alarm,0.400795600144,False,-1,stimulus_TOSY08_Yes-No Task_2019_Jul_02_1300_460,-1,True,2019_Jul_02_1300,Yes-No Task,3,TOSY08,
Yes-No Task,10,0,10,0,8.7,-1,Correct Rejection,0.633168000029,False,-1,stimulus_TOSY08_Yes-No Task_2019_Jul_02_1300_461,-1,True,2019_Jul_02_1300,Yes-No Task,3,TOSY08,
Yes-No Task,11,0,11,0,9.7,-1,Miss,0.499892299995,True,-1,stimulus_TOSY08_Yes-No Task_2019_Jul_02_1300_462,-1,True,2019_Jul_02_1300,Yes-No Task,3,TOSY08,
Yes-No Task,12,0,12,0,7.7,-1,Hit,0.367696799804,True,-1,stimulus_TOSY08_Yes-No Task_2019_Jul_02_1300_463,-1,True,2019_Jul_02_1300,Yes-No Task,3,TOSY08,
Yes-No Task,13,0,13,0,12.9,-1,Hit,0.500925299944,True,-1,stimulus_TOSY08_Yes-No Task_2019_Jul_02_1300_464,-1,True,2019_Jul_02_1300,Yes-No Task,3,TOSY08,
Yes-No Task,14,0,14,0,9.7,-1,Hit,0.433667100035,True,-1,stimulus_TOSY08_Yes-No Task_2019_Jul_02_1300_465,-1,True,2019_Jul_02_1300,Yes-No Task,3,TOSY08,
Yes-No Task,15,0,15,0,9.7,-1,Hit,0.469626599923,True,-1,stimulus_TOSY08_Yes-No Task_2019_Jul_02_1300_466,-1,True,2019_Jul_02_1300,Yes-No Task,3,TOSY08,
Yes-No Task,16,0,16,0,11.7,-1,Correct Rejection,0.598527400056,False,-1,stimulus_TOSY08_Yes-No Task_2019_Jul_02_1300_467,-1,True,2019_Jul_02_1300,Yes-No Task,3,TOSY08,
Yes-No Task,17,0,17,0,6.5,-1,Correct Rejection,0.568548100069,False,-1,stimulus_TOSY08_Yes-No Task_2019_Jul_02_1300_468,-1,True,2019_Jul_02_1300,Yes-No Task,3,TOSY08,
Yes-No Task,18,0,18,0,9.7,-1,Hit,0.502072300063,True,-1,stimulus_TOSY08_Yes-No Task_2019_Jul_02_1300_469,-1,True,2019_Jul_02_1300,Yes-No Task,3,TOSY08,
Yes-No Task,19,0,19,0,4.9,-1,Correct Rejection,0.400890999939,False,-1,stimulus_TOSY08_Yes-No Task_2019_Jul_02_1300_470,-1,True,2019_Jul_02_1300,Yes-No Task,3,TOSY08,
Yes-No Task,20,0,20,0,12.9,-1,False Alarm,0.631981099956,False,-1,stimulus_TOSY08_Yes-No Task_2019_Jul_02_1300_471,-1,True,2019_Jul_02_1300,Yes-No Task,3,TOSY08,
Yes-No Task,21,0,21,0,9.7,-1,Correct Rejection,0.336217999924,False,-1,stimulus_TOSY08_Yes-No Task_2019_Jul_02_1300_472,-1,True,2019_Jul_02_1300,Yes-No Task,3,TOSY08,
Yes-No Task,22,0,22,0,8.7,-1,Hit,0.567138600163,True,-1,stimulus_TOSY08_Yes-No Task_2019_Jul_02_1300_473,-1,True,2019_Jul_02_1300,Yes-No Task,3,TOSY08,
Yes-No Task,23,0,23,0,10.7,-1,Hit,0.534634500043,True,-1,stimulus_TOSY08_Yes-No Task_2019_Jul_02_1300_474,-1,True,2019_Jul_02_1300,Yes-No Task,3,TOSY08,
Yes-No Task,24,0,24,0,6.5,-1,Hit,0.499559700023,True,-1,stimulus_TOSY08_Yes-No Task_2019_Jul_02_1300_475,-1,True,2019_Jul_02_1300,Yes-No Task,3,TOSY08,
Yes-No Task,25,0,25,0,11.7,-1,Correct Rejection,0.467097399989,False,-1,stimulus_TOSY08_Yes-No Task_2019_Jul_02_1300_476,-1,True,2019_Jul_02_1300,Yes-No Task,3,TOSY08,
Yes-No Task,26,0,26,0,7.7,-1,Hit,0.600296899909,True,-1,stimulus_TOSY08_Yes-No Task_2019_Jul_02_1300_477,-1,True,2019_Jul_02_1300,Yes-No Task,3,TOSY08,
Yes-No Task,27,0,27,0,7.7,-1,Miss,0.533888599835,True,-1,stimulus_TOSY08_Yes-No Task_2019_Jul_02_1300_478,-1,True,2019_Jul_02_1300,Yes-No Task,3,TOSY08,
Yes-No Task,28,0,28,0,9.7,-1,Correct Rejection,0.502470599953,False,-1,stimulus_TOSY08_Yes-No Task_2019_Jul_02_1300_479,-1,True,2019_Jul_02_1300,Yes-No Task,3,TOSY08,
Yes-No Task,29,0,29,0,6.5,-1,Hit,0.567267700098,True,-1,stimulus_TOSY08_Yes-No Task_2019_Jul_02_1300_480,-1,True,2019_Jul_02_1300,Yes-No Task,3,TOSY08,
Yes-No Task,30,0,30,0,9.7,-1,Correct Rejection,0.533955899999,False,-1,stimulus_TOSY08_Yes-No Task_2019_Jul_02_1300_481,-1,True,2019_Jul_02_1300,Yes-No Task,3,TOSY08,
Yes-No Task,31,0,31,0,11.7,-1,Correct Rejection,0.500601999927,False,-1,stimulus_TOSY08_Yes-No Task_2019_Jul_02_1300_482,-1,True,2019_Jul_02_1300,Yes-No Task,3,TOSY08,
Yes-No Task,32,0,32,0,8.7,-1,Hit,0.60064999992,True,-1,stimulus_TOSY08_Yes-No Task_2019_Jul_02_1300_483,-1,True,2019_Jul_02_1300,Yes-No Task,3,TOSY08,
Yes-No Task,33,0,33,0,8.7,-1,Correct Rejection,0.533771899994,False,-1,stimulus_TOSY08_Yes-No Task_2019_Jul_02_1300_484,-1,True,2019_Jul_02_1300,Yes-No Task,3,TOSY08,
Yes-No Task,34,0,34,0,8.7,-1,Correct Rejection,0.53411989985,False,-1,stimulus_TOSY08_Yes-No Task_2019_Jul_02_1300_485,-1,True,2019_Jul_02_1300,Yes-No Task,3,TOSY08,
Yes-No Task,35,0,35,0,7.7,-1,False Alarm,0.467666700017,False,-1,stimulus_TOSY08_Yes-No Task_2019_Jul_02_1300_486,-1,True,2019_Jul_02_1300,Yes-No Task,3,TOSY08,
Yes-No Task,36,0,36,0,6.5,-1,Correct Rejection,0.433516700054,False,-1,stimulus_TOSY08_Yes-No Task_2019_Jul_02_1300_487,-1,True,2019_Jul_02_1300,Yes-No Task,3,TOSY08,
Yes-No Task,37,0,37,0,8.7,-1,Hit,0.500128200045,True,-1,stimulus_TOSY08_Yes-No Task_2019_Jul_02_1300_488,-1,True,2019_Jul_02_1300,Yes-No Task,3,TOSY08,
Yes-No Task,38,0,38,0,8.7,-1,Hit,0.499699899927,True,-1,stimulus_TOSY08_Yes-No Task_2019_Jul_02_1300_489,-1,True,2019_Jul_02_1300,Yes-No Task,3,TOSY08,
Yes-No Task,39,0,39,0,12.9,-1,Hit,0.434209400089,True,-1,stimulus_TOSY08_Yes-No Task_2019_Jul_02_1300_490,-1,True,2019_Jul_02_1300,Yes-No Task,3,TOSY08,
Yes-No Task,40,0,40,0,6.5,-1,Hit,0.467556499876,True,-1,stimulus_TOSY08_Yes-No Task_2019_Jul_02_1300_491,-1,True,2019_Jul_02_1300,Yes-No Task,3,TOSY08,
Yes-No Task,41,0,41,0,11.7,-1,Hit,0.39883369999,True,-1,stimulus_TOSY08_Yes-No Task_2019_Jul_02_1300_492,-1,True,2019_Jul_02_1300,Yes-No Task,3,TOSY08,
Yes-No Task,42,0,42,0,7.7,-1,False Alarm,0.397316100076,False,-1,stimulus_TOSY08_Yes-No Task_2019_Jul_02_1300_493,-1,True,2019_Jul_02_1300,Yes-No Task,3,TOSY08,
Yes-No Task,43,0,43,0,9.7,-1,Correct Rejection,0.467426099814,False,-1,stimulus_TOSY08_Yes-No Task_2019_Jul_02_1300_494,-1,True,2019_Jul_02_1300,Yes-No Task,3,TOSY08,
Yes-No Task,44,0,44,0,9.7,-1,Correct Rejection,0.499445899855,False,-1,stimulus_TOSY08_Yes-No Task_2019_Jul_02_1300_495,-1,True,2019_Jul_02_1300,Yes-No Task,3,TOSY08,
Yes-No Task,45,0,45,0,4.9,-1,Hit,0.567516900133,True,-1,stimulus_TOSY08_Yes-No Task_2019_Jul_02_1300_496,-1,True,2019_Jul_02_1300,Yes-No Task,3,TOSY08,
Yes-No Task,46,0,46,0,12.9,-1,Hit,0.533969699871,True,-1,stimulus_TOSY08_Yes-No Task_2019_Jul_02_1300_497,-1,True,2019_Jul_02_1300,Yes-No Task,3,TOSY08,
Yes-No Task,47,0,47,0,7.7,-1,Hit,0.5015594,True,-1,stimulus_TOSY08_Yes-No Task_2019_Jul_02_1300_498,-1,True,2019_Jul_02_1300,Yes-No Task,3,TOSY08,
Yes-No Task,48,0,48,0,10.7,-1,Hit,0.46705169999,True,-1,stimulus_TOSY08_Yes-No Task_2019_Jul_02_1300_499,-1,True,2019_Jul_02_1300,Yes-No Task,3,TOSY08,
Yes-No Task,49,0,49,0,8.7,-1,Hit,0.467096499866,True,-1,stimulus_TOSY08_Yes-No Task_2019_Jul_02_1300_500,-1,True,2019_Jul_02_1300,Yes-No Task,3,TOSY08,
Yes-No Task,50,0,50,0,4.9,-1,Hit,0.434713199968,True,-1,stimulus_TOSY08_Yes-No Task_2019_Jul_02_1300_501,-1,True,2019_Jul_02_1300,Yes-No Task,3,TOSY08,
Yes-No Task,51,0,51,0,10.7,-1,Hit,0.467425900046,True,-1,stimulus_TOSY08_Yes-No Task_2019_Jul_02_1300_502,-1,True,2019_Jul_02_1300,Yes-No Task,3,TOSY08,
Yes-No Task,52,0,52,0,4.9,-1,Correct Rejection,0.566633400042,False,-1,stimulus_TOSY08_Yes-No Task_2019_Jul_02_1300_503,-1,True,2019_Jul_02_1300,Yes-No Task,3,TOSY08,
Yes-No Task,53,0,53,0,6.5,-1,Hit,0.564952200046,True,-1,stimulus_TOSY08_Yes-No Task_2019_Jul_02_1300_504,-1,True,2019_Jul_02_1300,Yes-No Task,3,TOSY08,
Yes-No Task,54,0,54,0,4.9,-1,Correct Rejection,0.433872800088,False,-1,stimulus_TOSY08_Yes-No Task_2019_Jul_02_1300_505,-1,True,2019_Jul_02_1300,Yes-No Task,3,TOSY08,
Yes-No Task,55,0,55,0,9.7,-1,Miss,0.60048969998,True,-1,stimulus_TOSY08_Yes-No Task_2019_Jul_02_1300_506,-1,True,2019_Jul_02_1300,Yes-No Task,3,TOSY08,
Yes-No Task,56,0,56,0,6.5,-1,Hit,0.365979499882,True,-1,stimulus_TOSY08_Yes-No Task_2019_Jul_02_1300_507,-1,True,2019_Jul_02_1300,Yes-No Task,3,TOSY08,
Yes-No Task,57,0,57,0,9.7,-1,Correct Rejection,0.368043900002,False,-1,stimulus_TOSY08_Yes-No Task_2019_Jul_02_1300_508,-1,True,2019_Jul_02_1300,Yes-No Task,3,TOSY08,
Yes-No Task,58,0,58,0,7.7,-1,False Alarm,0.633867300116,False,-1,stimulus_TOSY08_Yes-No Task_2019_Jul_02_1300_509,-1,True,2019_Jul_02_1300,Yes-No Task,3,TOSY08,
Yes-No Task,59,0,59,0,9.7,-1,Correct Rejection,0.468434299808,False,-1,stimulus_TOSY08_Yes-No Task_2019_Jul_02_1300_510,-1,True,2019_Jul_02_1300,Yes-No Task,3,TOSY08,
Yes-No Task,60,0,60,0,10.7,-1,False Alarm,0.500627700007,False,-1,stimulus_TOSY08_Yes-No Task_2019_Jul_02_1300_511,-1,True,2019_Jul_02_1300,Yes-No Task,3,TOSY08,
Yes-No Task,61,0,61,0,9.7,-1,Correct Rejection,0.400678999955,False,-1,stimulus_TOSY08_Yes-No Task_2019_Jul_02_1300_512,-1,True,2019_Jul_02_1300,Yes-No Task,3,TOSY08,
Yes-No Task,62,0,62,0,9.7,-1,Correct Rejection,0.6679153,False,-1,stimulus_TOSY08_Yes-No Task_2019_Jul_02_1300_513,-1,True,2019_Jul_02_1300,Yes-No Task,3,TOSY08,
Yes-No Task,63,0,63,0,9.7,-1,Hit,0.534328799928,True,-1,stimulus_TOSY08_Yes-No Task_2019_Jul_02_1300_514,-1,True,2019_Jul_02_1300,Yes-No Task,3,TOSY08,
Yes-No Task,64,0,64,0,12.9,-1,Correct Rejection,0.502438299824,False,-1,stimulus_TOSY08_Yes-No Task_2019_Jul_02_1300_515,-1,True,2019_Jul_02_1300,Yes-No Task,3,TOSY08,
Yes-No Task,65,0,65,0,6.5,-1,Hit,0.56798679987,True,-1,stimulus_TOSY08_Yes-No Task_2019_Jul_02_1300_516,-1,True,2019_Jul_02_1300,Yes-No Task,3,TOSY08,
Yes-No Task,66,0,66,0,10.7,-1,Correct Rejection,0.533842900069,False,-1,stimulus_TOSY08_Yes-No Task_2019_Jul_02_1300_517,-1,True,2019_Jul_02_1300,Yes-No Task,3,TOSY08,
Yes-No Task,67,0,67,0,8.7,-1,False Alarm,0.399835699936,False,-1,stimulus_TOSY08_Yes-No Task_2019_Jul_02_1300_518,-1,True,2019_Jul_02_1300,Yes-No Task,3,TOSY08,
Yes-No Task,68,0,68,0,12.9,-1,Miss,0.334257499781,True,-1,stimulus_TOSY08_Yes-No Task_2019_Jul_02_1300_519,-1,True,2019_Jul_02_1300,Yes-No Task,3,TOSY08,
Yes-No Task,69,0,69,0,9.7,-1,Hit,0.367097500013,True,-1,stimulus_TOSY08_Yes-No Task_2019_Jul_02_1300_520,-1,True,2019_Jul_02_1300,Yes-No Task,3,TOSY08,
Yes-No Task,70,0,70,0,11.7,-1,False Alarm,0.433618100127,False,-1,stimulus_TOSY08_Yes-No Task_2019_Jul_02_1300_521,-1,True,2019_Jul_02_1300,Yes-No Task,3,TOSY08,
Yes-No Task,71,0,71,0,10.7,-1,Hit,0.50069279992,True,-1,stimulus_TOSY08_Yes-No Task_2019_Jul_02_1300_522,-1,True,2019_Jul_02_1300,Yes-No Task,3,TOSY08,
Yes-No Task,72,0,72,0,8.7,-1,Correct Rejection,0.39906090009,False,-1,stimulus_TOSY08_Yes-No Task_2019_Jul_02_1300_523,-1,True,2019_Jul_02_1300,Yes-No Task,3,TOSY08,
Yes-No Task,73,0,73,0,7.7,-1,Correct Rejection,0.535622800002,False,-1,stimulus_TOSY08_Yes-No Task_2019_Jul_02_1300_524,-1,True,2019_Jul_02_1300,Yes-No Task,3,TOSY08,
Yes-No Task,74,0,74,0,9.7,-1,Hit,0.505285800202,True,-1,stimulus_TOSY08_Yes-No Task_2019_Jul_02_1300_525,-1,True,2019_Jul_02_1300,Yes-No Task,3,TOSY08,
Yes-No Task,0,0,0,0,11.7,-1,Correct Rejection,0.633854300017,False,-1,stimulus_TOSY08_Yes-No Task_2019_Jul_02_1300_526,-1,True,2019_Jul_02_1300,Yes-No Task,3,TOSY08,
Yes-No Task,1,0,1,0,7.7,-1,Correct Rejection,0.432941199979,False,-1,stimulus_TOSY08_Yes-No Task_2019_Jul_02_1300_527,-1,True,2019_Jul_02_1300,Yes-No Task,3,TOSY08,
Yes-No Task,2,0,2,0,12.9,-1,Correct Rejection,0.466182200005,False,-1,stimulus_TOSY08_Yes-No Task_2019_Jul_02_1300_528,-1,True,2019_Jul_02_1300,Yes-No Task,3,TOSY08,
Yes-No Task,3,0,3,0,6.5,-1,Miss,0.500763399992,True,-1,stimulus_TOSY08_Yes-No Task_2019_Jul_02_1300_529,-1,True,2019_Jul_02_1300,Yes-No Task,3,TOSY08,
Yes-No Task,4,0,4,0,4.9,-1,Correct Rejection,0.568991200067,False,-1,stimulus_TOSY08_Yes-No Task_2019_Jul_02_1300_530,-1,True,2019_Jul_02_1300,Yes-No Task,3,TOSY08,
Yes-No Task,5,0,5,0,4.9,-1,Correct Rejection,0.768376699882,False,-1,stimulus_TOSY08_Yes-No Task_2019_Jul_02_1300_531,-1,True,2019_Jul_02_1300,Yes-No Task,3,TOSY08,
Yes-No Task,6,0,6,0,7.7,-1,Hit,0.568088599946,True,-1,stimulus_TOSY08_Yes-No Task_2019_Jul_02_1300_532,-1,True,2019_Jul_02_1300,Yes-No Task,3,TOSY08,
Yes-No Task,7,0,7,0,12.9,-1,False Alarm,0.467129199998,False,-1,stimulus_TOSY08_Yes-No Task_2019_Jul_02_1300_533,-1,True,2019_Jul_02_1300,Yes-No Task,3,TOSY08,
Yes-No Task,8,0,8,0,9.7,-1,Correct Rejection,0.434591799974,False,-1,stimulus_TOSY08_Yes-No Task_2019_Jul_02_1300_534,-1,True,2019_Jul_02_1300,Yes-No Task,3,TOSY08,
Yes-No Task,9,0,9,0,11.7,-1,Correct Rejection,0.500182300108,False,-1,stimulus_TOSY08_Yes-No Task_2019_Jul_02_1300_535,-1,True,2019_Jul_02_1300,Yes-No Task,3,TOSY08,
Yes-No Task,10,0,10,0,8.7,-1,Miss,0.500305100111,True,-1,stimulus_TOSY08_Yes-No Task_2019_Jul_02_1300_536,-1,True,2019_Jul_02_1300,Yes-No Task,3,TOSY08,
Yes-No Task,11,0,11,0,7.7,-1,Hit,0.367207800038,True,-1,stimulus_TOSY08_Yes-No Task_2019_Jul_02_1300_537,-1,True,2019_Jul_02_1300,Yes-No Task,3,TOSY08,
Yes-No Task,12,0,12,0,11.7,-1,False Alarm,0.433139000088,False,-1,stimulus_TOSY08_Yes-No Task_2019_Jul_02_1300_538,-1,True,2019_Jul_02_1300,Yes-No Task,3,TOSY08,
Yes-No Task,13,0,13,0,12.9,-1,False Alarm,0.466369899921,False,-1,stimulus_TOSY08_Yes-No Task_2019_Jul_02_1300_539,-1,True,2019_Jul_02_1300,Yes-No Task,3,TOSY08,
Yes-No Task,14,0,14,0,11.7,-1,Hit,0.436079300009,True,-1,stimulus_TOSY08_Yes-No Task_2019_Jul_02_1300_540,-1,True,2019_Jul_02_1300,Yes-No Task,3,TOSY08,
Yes-No Task,15,0,15,0,10.7,-1,Hit,0.433638399933,True,-1,stimulus_TOSY08_Yes-No Task_2019_Jul_02_1300_541,-1,True,2019_Jul_02_1300,Yes-No Task,3,TOSY08,
Yes-No Task,16,0,16,0,7.7,-1,Hit,0.50015680003,True,-1,stimulus_TOSY08_Yes-No Task_2019_Jul_02_1300_542,-1,True,2019_Jul_02_1300,Yes-No Task,3,TOSY08,
Yes-No Task,17,0,17,0,7.7,-1,Hit,0.334540699841,True,-1,stimulus_TOSY08_Yes-No Task_2019_Jul_02_1300_543,-1,True,2019_Jul_02_1300,Yes-No Task,3,TOSY08,
Yes-No Task,18,0,18,0,9.7,-1,Hit,0.333090800093,True,-1,stimulus_TOSY08_Yes-No Task_2019_Jul_02_1300_544,-1,True,2019_Jul_02_1300,Yes-No Task,3,TOSY08,
Yes-No Task,19,0,19,0,8.7,-1,Hit,0.366823900025,True,-1,stimulus_TOSY08_Yes-No Task_2019_Jul_02_1300_545,-1,True,2019_Jul_02_1300,Yes-No Task,3,TOSY08,
Yes-No Task,20,0,20,0,10.7,-1,False Alarm,0.367632600013,False,-1,stimulus_TOSY08_Yes-No Task_2019_Jul_02_1300_546,-1,True,2019_Jul_02_1300,Yes-No Task,3,TOSY08,
Yes-No Task,21,0,21,0,4.9,-1,Miss,0.367783399997,True,-1,stimulus_TOSY08_Yes-No Task_2019_Jul_02_1300_547,-1,True,2019_Jul_02_1300,Yes-No Task,3,TOSY08,
Yes-No Task,22,0,22,0,9.7,-1,Correct Rejection,0.500420300057,False,-1,stimulus_TOSY08_Yes-No Task_2019_Jul_02_1300_548,-1,True,2019_Jul_02_1300,Yes-No Task,3,TOSY08,
Yes-No Task,23,0,23,0,12.9,-1,Correct Rejection,0.50052849995,False,-1,stimulus_TOSY08_Yes-No Task_2019_Jul_02_1300_549,-1,True,2019_Jul_02_1300,Yes-No Task,3,TOSY08,
Yes-No Task,24,0,24,0,8.7,-1,Correct Rejection,0.567725699861,False,-1,stimulus_TOSY08_Yes-No Task_2019_Jul_02_1300_550,-1,True,2019_Jul_02_1300,Yes-No Task,3,TOSY08,
Yes-No Task,25,0,25,0,7.7,-1,Correct Rejection,0.734700400149,False,-1,stimulus_TOSY08_Yes-No Task_2019_Jul_02_1300_551,-1,True,2019_Jul_02_1300,Yes-No Task,3,TOSY08,
Yes-No Task,26,0,26,0,8.7,-1,Correct Rejection,0.567619199865,False,-1,stimulus_TOSY08_Yes-No Task_2019_Jul_02_1300_552,-1,True,2019_Jul_02_1300,Yes-No Task,3,TOSY08,
Yes-No Task,27,0,27,0,9.7,-1,False Alarm,0.63345730002,False,-1,stimulus_TOSY08_Yes-No Task_2019_Jul_02_1300_553,-1,True,2019_Jul_02_1300,Yes-No Task,3,TOSY08,
Yes-No Task,28,0,28,0,4.9,-1,Correct Rejection,0.734451299999,False,-1,stimulus_TOSY08_Yes-No Task_2019_Jul_02_1300_554,-1,True,2019_Jul_02_1300,Yes-No Task,3,TOSY08,
Yes-No Task,29,0,29,0,7.7,-1,Miss,0.502065600129,True,-1,stimulus_TOSY08_Yes-No Task_2019_Jul_02_1300_555,-1,True,2019_Jul_02_1300,Yes-No Task,3,TOSY08,
Yes-No Task,30,0,30,0,12.9,-1,Hit,0.500834700186,True,-1,stimulus_TOSY08_Yes-No Task_2019_Jul_02_1300_556,-1,True,2019_Jul_02_1300,Yes-No Task,3,TOSY08,
Yes-No Task,31,0,31,0,6.5,-1,Hit,0.566802300047,True,-1,stimulus_TOSY08_Yes-No Task_2019_Jul_02_1300_557,-1,True,2019_Jul_02_1300,Yes-No Task,3,TOSY08,
Yes-No Task,32,0,32,0,8.7,-1,Correct Rejection,0.632378099952,False,-1,stimulus_TOSY08_Yes-No Task_2019_Jul_02_1300_558,-1,True,2019_Jul_02_1300,Yes-No Task,3,TOSY08,
Yes-No Task,33,0,33,0,8.7,-1,Hit,0.634308299981,True,-1,stimulus_TOSY08_Yes-No Task_2019_Jul_02_1300_559,-1,True,2019_Jul_02_1300,Yes-No Task,3,TOSY08,
Yes-No Task,34,0,34,0,6.5,-1,Correct Rejection,0.53293300001,False,-1,stimulus_TOSY08_Yes-No Task_2019_Jul_02_1300_560,-1,True,2019_Jul_02_1300,Yes-No Task,3,TOSY08,
Yes-No Task,35,0,35,0,8.7,-1,Miss,0.533947299933,True,-1,stimulus_TOSY08_Yes-No Task_2019_Jul_02_1300_561,-1,True,2019_Jul_02_1300,Yes-No Task,3,TOSY08,
Yes-No Task,36,0,36,0,8.7,-1,Hit,0.367675299989,True,-1,stimulus_TOSY08_Yes-No Task_2019_Jul_02_1300_562,-1,True,2019_Jul_02_1300,Yes-No Task,3,TOSY08,
Yes-No Task,37,0,37,0,4.9,-1,False Alarm,0.500458300114,False,-1,stimulus_TOSY08_Yes-No Task_2019_Jul_02_1300_563,-1,True,2019_Jul_02_1300,Yes-No Task,3,TOSY08,
Yes-No Task,38,0,38,0,6.5,-1,Hit,0.500779200112,True,-1,stimulus_TOSY08_Yes-No Task_2019_Jul_02_1300_564,-1,True,2019_Jul_02_1300,Yes-No Task,3,TOSY08,
Yes-No Task,39,0,39,0,4.9,-1,Miss,0.433583399979,True,-1,stimulus_TOSY08_Yes-No Task_2019_Jul_02_1300_565,-1,True,2019_Jul_02_1300,Yes-No Task,3,TOSY08,
Yes-No Task,40,0,40,0,9.7,-1,Correct Rejection,0.569785499945,False,-1,stimulus_TOSY08_Yes-No Task_2019_Jul_02_1300_566,-1,True,2019_Jul_02_1300,Yes-No Task,3,TOSY08,
Yes-No Task,41,0,41,0,10.7,-1,Hit,0.567205999978,True,-1,stimulus_TOSY08_Yes-No Task_2019_Jul_02_1300_567,-1,True,2019_Jul_02_1300,Yes-No Task,3,TOSY08,
Yes-No Task,42,0,42,0,11.7,-1,False Alarm,0.53528099996,False,-1,stimulus_TOSY08_Yes-No Task_2019_Jul_02_1300_568,-1,True,2019_Jul_02_1300,Yes-No Task,3,TOSY08,
Yes-No Task,43,0,43,0,4.9,-1,Hit,0.401433299994,True,-1,stimulus_TOSY08_Yes-No Task_2019_Jul_02_1300_569,-1,True,2019_Jul_02_1300,Yes-No Task,3,TOSY08,
Yes-No Task,44,0,44,0,4.9,-1,Hit,0.467532800045,True,-1,stimulus_TOSY08_Yes-No Task_2019_Jul_02_1300_570,-1,True,2019_Jul_02_1300,Yes-No Task,3,TOSY08,
Yes-No Task,45,0,45,0,11.7,-1,Hit,0.400273600128,True,-1,stimulus_TOSY08_Yes-No Task_2019_Jul_02_1300_571,-1,True,2019_Jul_02_1300,Yes-No Task,3,TOSY08,
Yes-No Task,46,0,46,0,4.9,-1,Correct Rejection,0.467091799947,False,-1,stimulus_TOSY08_Yes-No Task_2019_Jul_02_1300_572,-1,True,2019_Jul_02_1300,Yes-No Task,3,TOSY08,
Yes-No Task,47,0,47,0,11.7,-1,Miss,0.40070150001,True,-1,stimulus_TOSY08_Yes-No Task_2019_Jul_02_1300_573,-1,True,2019_Jul_02_1300,Yes-No Task,3,TOSY08,
Yes-No Task,48,0,48,0,7.7,-1,Correct Rejection,0.434300299967,False,-1,stimulus_TOSY08_Yes-No Task_2019_Jul_02_1300_574,-1,True,2019_Jul_02_1300,Yes-No Task,3,TOSY08,
Yes-No Task,49,0,49,0,12.9,-1,Hit,0.400059300009,True,-1,stimulus_TOSY08_Yes-No Task_2019_Jul_02_1300_575,-1,True,2019_Jul_02_1300,Yes-No Task,3,TOSY08,
Yes-No Task,50,0,50,0,12.9,-1,Hit,0.434713199968,True,-1,stimulus_TOSY08_Yes-No Task_2019_Jul_02_1300_576,-1,True,2019_Jul_02_1300,Yes-No Task,3,TOSY08,
Yes-No Task,51,0,51,0,4.9,-1,False Alarm,0.332566400059,False,-1,stimulus_TOSY08_Yes-No Task_2019_Jul_02_1300_577,-1,True,2019_Jul_02_1300,Yes-No Task,3,TOSY08,
Yes-No Task,52,0,52,0,8.7,-1,Hit,0.466667900095,True,-1,stimulus_TOSY08_Yes-No Task_2019_Jul_02_1300_578,-1,True,2019_Jul_02_1300,Yes-No Task,3,TOSY08,
Yes-No Task,53,0,53,0,9.7,-1,False Alarm,0.433759199921,False,-1,stimulus_TOSY08_Yes-No Task_2019_Jul_02_1300_579,-1,True,2019_Jul_02_1300,Yes-No Task,3,TOSY08,
Yes-No Task,54,0,54,0,12.9,-1,False Alarm,0.534513999941,False,-1,stimulus_TOSY08_Yes-No Task_2019_Jul_02_1300_580,-1,True,2019_Jul_02_1300,Yes-No Task,3,TOSY08,
Yes-No Task,55,0,55,0,4.9,-1,Miss,0.433863000013,True,-1,stimulus_TOSY08_Yes-No Task_2019_Jul_02_1300_581,-1,True,2019_Jul_02_1300,Yes-No Task,3,TOSY08,
Yes-No Task,56,0,56,0,6.5,-1,Correct Rejection,0.467178599909,False,-1,stimulus_TOSY08_Yes-No Task_2019_Jul_02_1300_582,-1,True,2019_Jul_02_1300,Yes-No Task,3,TOSY08,
Yes-No Task,57,0,57,0,6.5,-1,Correct Rejection,0.534003299894,False,-1,stimulus_TOSY08_Yes-No Task_2019_Jul_02_1300_583,-1,True,2019_Jul_02_1300,Yes-No Task,3,TOSY08,
Yes-No Task,58,0,58,0,6.5,-1,Miss,0.633604699979,True,-1,stimulus_TOSY08_Yes-No Task_2019_Jul_02_1300_584,-1,True,2019_Jul_02_1300,Yes-No Task,3,TOSY08,
Yes-No Task,59,0,59,0,11.7,-1,Hit,0.433574100025,True,-1,stimulus_TOSY08_Yes-No Task_2019_Jul_02_1300_585,-1,True,2019_Jul_02_1300,Yes-No Task,3,TOSY08,
Yes-No Task,60,0,60,0,9.7,-1,Correct Rejection,0.534159699921,False,-1,stimulus_TOSY08_Yes-No Task_2019_Jul_02_1300_586,-1,True,2019_Jul_02_1300,Yes-No Task,3,TOSY08,
Yes-No Task,61,0,61,0,11.7,-1,Correct Rejection,0.500606799964,False,-1,stimulus_TOSY08_Yes-No Task_2019_Jul_02_1300_587,-1,True,2019_Jul_02_1300,Yes-No Task,3,TOSY08,
Yes-No Task,62,0,62,0,7.7,-1,Correct Rejection,0.533483200008,False,-1,stimulus_TOSY08_Yes-No Task_2019_Jul_02_1300_588,-1,True,2019_Jul_02_1300,Yes-No Task,3,TOSY08,
Yes-No Task,63,0,63,0,12.9,-1,Hit,0.566723800031,True,-1,stimulus_TOSY08_Yes-No Task_2019_Jul_02_1300_589,-1,True,2019_Jul_02_1300,Yes-No Task,3,TOSY08,
Yes-No Task,64,0,64,0,9.7,-1,Hit,0.46889150003,True,-1,stimulus_TOSY08_Yes-No Task_2019_Jul_02_1300_590,-1,True,2019_Jul_02_1300,Yes-No Task,3,TOSY08,
Yes-No Task,65,0,65,0,11.7,-1,Hit,0.501557399984,True,-1,stimulus_TOSY08_Yes-No Task_2019_Jul_02_1300_591,-1,True,2019_Jul_02_1300,Yes-No Task,3,TOSY08,
Yes-No Task,66,0,66,0,9.7,-1,Hit,0.700291699963,True,-1,stimulus_TOSY08_Yes-No Task_2019_Jul_02_1300_592,-1,True,2019_Jul_02_1300,Yes-No Task,3,TOSY08,
Yes-No Task,67,0,67,0,10.7,-1,Hit,0.534861099906,True,-1,stimulus_TOSY08_Yes-No Task_2019_Jul_02_1300_593,-1,True,2019_Jul_02_1300,Yes-No Task,3,TOSY08,
Yes-No Task,68,0,68,0,12.9,-1,Hit,0.504866800038,True,-1,stimulus_TOSY08_Yes-No Task_2019_Jul_02_1300_594,-1,True,2019_Jul_02_1300,Yes-No Task,3,TOSY08,
Yes-No Task,69,0,69,0,6.5,-1,False Alarm,0.468457699986,False,-1,stimulus_TOSY08_Yes-No Task_2019_Jul_02_1300_595,-1,True,2019_Jul_02_1300,Yes-No Task,3,TOSY08,
Yes-No Task,70,0,70,0,10.7,-1,Correct Rejection,0.399555299897,False,-1,stimulus_TOSY08_Yes-No Task_2019_Jul_02_1300_596,-1,True,2019_Jul_02_1300,Yes-No Task,3,TOSY08,
Yes-No Task,71,0,71,0,6.5,-1,Hit,0.53474240005,True,-1,stimulus_TOSY08_Yes-No Task_2019_Jul_02_1300_597,-1,True,2019_Jul_02_1300,Yes-No Task,3,TOSY08,
Yes-No Task,72,0,72,0,10.7,-1,Correct Rejection,0.534858699888,False,-1,stimulus_TOSY08_Yes-No Task_2019_Jul_02_1300_598,-1,True,2019_Jul_02_1300,Yes-No Task,3,TOSY08,
Yes-No Task,73,0,73,0,4.9,-1,Miss,0.534271200188,True,-1,stimulus_TOSY08_Yes-No Task_2019_Jul_02_1300_599,-1,True,2019_Jul_02_1300,Yes-No Task,3,TOSY08,
Yes-No Task,74,0,74,0,7.7,-1,Miss,0.50066010002,True,-1,stimulus_TOSY08_Yes-No Task_2019_Jul_02_1300_600,-1,True,2019_Jul_02_1300,Yes-No Task,3,TOSY08,
