Task,trials.thisRepN,trials.thisTrialN,trials.thisN,trials.thisIndex,time_response_second,response_2IFCnew,response_key2Interval_2IFCnew,signal_intensity,constant Value,response,time_response,signal_on_stimuluspos1,signal_on_stimuluspos2,stimulus_name_pos1,stimulus_name_pos2,random_intensity,date,expName,session,participant,
2IFCnew,0,0,0,0,0.567420300096,1,No,14.3,-1,Hit,0.9032228,True,False,stimulusWOAN27_2IFCnew_2019_Jun_13_1252_1,stimulusWOAN27_2IFCnew_2019_Jun_13_1252_2,False,2019_Jun_13_1252,2IFCnew,3,WOAN27,
2IFCnew,1,0,1,0,0.266289900057,1,No,14.3,-1,Hit,0.467383999843,True,False,stimulusWOAN27_2IFCnew_2019_Jun_13_1252_3,stimulusWOAN27_2IFCnew_2019_Jun_13_1252_4,False,2019_Jun_13_1252,2IFCnew,3,WOAN27,
2IFCnew,2,0,2,0,0.134337300202,1,No,14.3,-1,Hit,0.434710199945,True,False,stimulusWOAN27_2IFCnew_2019_Jun_13_1252_5,stimulusWOAN27_2IFCnew_2019_Jun_13_1252_6,False,2019_Jun_13_1252,2IFCnew,3,WOAN27,
2IFCnew,3,0,3,0,0.0998432999477,2,Yes,14.3,-1,Correct Rejection,0.400549300015,False,True,stimulusWOAN27_2IFCnew_2019_Jun_13_1252_7,stimulusWOAN27_2IFCnew_2019_Jun_13_1252_8,False,2019_Jun_13_1252,2IFCnew,3,WOAN27,
2IFCnew,4,0,4,0,0.133641999913,1,No,14.3,-1,Hit,0.467290199827,True,False,stimulusWOAN27_2IFCnew_2019_Jun_13_1252_9,stimulusWOAN27_2IFCnew_2019_Jun_13_1252_10,False,2019_Jun_13_1252,2IFCnew,3,WOAN27,
2IFCnew,5,0,5,0,0.165683700005,1,No,14.3,-1,Hit,0.634977100184,True,False,stimulusWOAN27_2IFCnew_2019_Jun_13_1252_11,stimulusWOAN27_2IFCnew_2019_Jun_13_1252_12,False,2019_Jun_13_1252,2IFCnew,3,WOAN27,
2IFCnew,6,0,6,0,0.0338653000072,2,Yes,14.3,-1,Correct Rejection,0.431344199926,False,True,stimulusWOAN27_2IFCnew_2019_Jun_13_1252_13,stimulusWOAN27_2IFCnew_2019_Jun_13_1252_14,False,2019_Jun_13_1252,2IFCnew,3,WOAN27,
2IFCnew,7,0,7,0,0.300295099849,2,Yes,14.3,-1,Correct Rejection,0.500640899874,False,True,stimulusWOAN27_2IFCnew_2019_Jun_13_1252_15,stimulusWOAN27_2IFCnew_2019_Jun_13_1252_16,False,2019_Jun_13_1252,2IFCnew,3,WOAN27,
2IFCnew,8,0,8,0,0.129185999976,1,No,14.3,-1,Hit,0.53060259996,True,False,stimulusWOAN27_2IFCnew_2019_Jun_13_1252_17,stimulusWOAN27_2IFCnew_2019_Jun_13_1252_18,False,2019_Jun_13_1252,2IFCnew,3,WOAN27,
2IFCnew,9,0,9,0,0.165863099974,1,No,14.3,-1,Hit,0.467154899845,True,False,stimulusWOAN27_2IFCnew_2019_Jun_13_1252_19,stimulusWOAN27_2IFCnew_2019_Jun_13_1252_20,False,2019_Jun_13_1252,2IFCnew,3,WOAN27,
2IFCnew,10,0,10,0,0.333943600068,2,Yes,14.3,-1,Correct Rejection,0.834695600206,False,True,stimulusWOAN27_2IFCnew_2019_Jun_13_1252_21,stimulusWOAN27_2IFCnew_2019_Jun_13_1252_22,False,2019_Jun_13_1252,2IFCnew,3,WOAN27,
2IFCnew,11,0,11,0,0.0999991998542,1,No,14.3,-1,Hit,0.533728499897,True,False,stimulusWOAN27_2IFCnew_2019_Jun_13_1252_23,stimulusWOAN27_2IFCnew_2019_Jun_13_1252_24,False,2019_Jun_13_1252,2IFCnew,3,WOAN27,
2IFCnew,12,0,12,0,0.0674203000963,1,No,14.3,-1,Hit,0.466415399918,True,False,stimulusWOAN27_2IFCnew_2019_Jun_13_1252_25,stimulusWOAN27_2IFCnew_2019_Jun_13_1252_26,False,2019_Jun_13_1252,2IFCnew,3,WOAN27,
2IFCnew,13,0,13,0,0.133502400015,2,Yes,14.3,-1,Correct Rejection,0.535716699902,False,True,stimulusWOAN27_2IFCnew_2019_Jun_13_1252_27,stimulusWOAN27_2IFCnew_2019_Jun_13_1252_28,False,2019_Jun_13_1252,2IFCnew,3,WOAN27,
2IFCnew,14,0,14,0,0.166905899998,1,No,14.3,-1,Hit,0.467121700058,True,False,stimulusWOAN27_2IFCnew_2019_Jun_13_1252_29,stimulusWOAN27_2IFCnew_2019_Jun_13_1252_30,False,2019_Jun_13_1252,2IFCnew,3,WOAN27,
2IFCnew,15,0,15,0,0.236423499882,1,No,14.3,-1,Hit,0.566882899962,True,False,stimulusWOAN27_2IFCnew_2019_Jun_13_1252_31,stimulusWOAN27_2IFCnew_2019_Jun_13_1252_32,False,2019_Jun_13_1252,2IFCnew,3,WOAN27,
2IFCnew,16,0,16,0,0.100708700018,2,Yes,14.3,-1,Correct Rejection,0.532808299875,False,True,stimulusWOAN27_2IFCnew_2019_Jun_13_1252_33,stimulusWOAN27_2IFCnew_2019_Jun_13_1252_34,False,2019_Jun_13_1252,2IFCnew,3,WOAN27,
2IFCnew,17,0,17,0,0.10024369997,1,No,14.3,-1,Hit,0.467427699827,True,False,stimulusWOAN27_2IFCnew_2019_Jun_13_1252_35,stimulusWOAN27_2IFCnew_2019_Jun_13_1252_36,False,2019_Jun_13_1252,2IFCnew,3,WOAN27,
2IFCnew,18,0,18,0,0.0336436999496,2,Yes,14.3,-1,Correct Rejection,0.46834719996,False,True,stimulusWOAN27_2IFCnew_2019_Jun_13_1252_37,stimulusWOAN27_2IFCnew_2019_Jun_13_1252_38,False,2019_Jun_13_1252,2IFCnew,3,WOAN27,
2IFCnew,19,0,19,0,0.267186600016,2,Yes,14.3,-1,Correct Rejection,0.534047699999,False,True,stimulusWOAN27_2IFCnew_2019_Jun_13_1252_39,stimulusWOAN27_2IFCnew_2019_Jun_13_1252_40,False,2019_Jun_13_1252,2IFCnew,3,WOAN27,
2IFCnew,20,0,20,0,0.0349411000498,3,No,14.3,-1,False Alarm,0.534214099869,False,True,stimulusWOAN27_2IFCnew_2019_Jun_13_1252_41,stimulusWOAN27_2IFCnew_2019_Jun_13_1252_42,False,2019_Jun_13_1252,2IFCnew,3,WOAN27,
2IFCnew,21,0,21,0,0.100509700133,2,Yes,14.3,-1,Correct Rejection,0.532424600096,False,True,stimulusWOAN27_2IFCnew_2019_Jun_13_1252_43,stimulusWOAN27_2IFCnew_2019_Jun_13_1252_44,False,2019_Jun_13_1252,2IFCnew,3,WOAN27,
2IFCnew,22,0,22,0,0.133758299984,2,Yes,14.3,-1,Correct Rejection,0.666949799983,False,True,stimulusWOAN27_2IFCnew_2019_Jun_13_1252_45,stimulusWOAN27_2IFCnew_2019_Jun_13_1252_46,False,2019_Jun_13_1252,2IFCnew,3,WOAN27,
2IFCnew,23,0,23,0,0.133468799992,1,No,14.3,-1,Hit,0.570054800017,True,False,stimulusWOAN27_2IFCnew_2019_Jun_13_1252_47,stimulusWOAN27_2IFCnew_2019_Jun_13_1252_48,False,2019_Jun_13_1252,2IFCnew,3,WOAN27,
2IFCnew,24,0,24,0,0.0670394999906,2,Yes,14.3,-1,Correct Rejection,0.499653300038,False,True,stimulusWOAN27_2IFCnew_2019_Jun_13_1252_49,stimulusWOAN27_2IFCnew_2019_Jun_13_1252_50,False,2019_Jun_13_1252,2IFCnew,3,WOAN27,
2IFCnew,25,0,25,0,0.233195599867,1,No,14.3,-1,Hit,0.568348800065,True,False,stimulusWOAN27_2IFCnew_2019_Jun_13_1252_51,stimulusWOAN27_2IFCnew_2019_Jun_13_1252_52,False,2019_Jun_13_1252,2IFCnew,3,WOAN27,
2IFCnew,26,0,26,0,0.100319200195,2,Yes,14.3,-1,Correct Rejection,0.500673000002,False,True,stimulusWOAN27_2IFCnew_2019_Jun_13_1252_53,stimulusWOAN27_2IFCnew_2019_Jun_13_1252_54,False,2019_Jun_13_1252,2IFCnew,3,WOAN27,
2IFCnew,27,0,27,0,0.300649699988,6,No,14.3,-1,Miss,0.433896500152,True,False,stimulusWOAN27_2IFCnew_2019_Jun_13_1252_55,stimulusWOAN27_2IFCnew_2019_Jun_13_1252_56,False,2019_Jun_13_1252,2IFCnew,3,WOAN27,
2IFCnew,28,0,28,0,0.0659352000803,2,Yes,14.3,-1,Correct Rejection,0.500147300074,False,True,stimulusWOAN27_2IFCnew_2019_Jun_13_1252_57,stimulusWOAN27_2IFCnew_2019_Jun_13_1252_58,False,2019_Jun_13_1252,2IFCnew,3,WOAN27,
2IFCnew,29,0,29,0,0.100475399988,2,Yes,14.3,-1,Correct Rejection,0.569667899981,False,True,stimulusWOAN27_2IFCnew_2019_Jun_13_1252_59,stimulusWOAN27_2IFCnew_2019_Jun_13_1252_60,False,2019_Jun_13_1252,2IFCnew,3,WOAN27,
2IFCnew,30,0,30,0,0.130712799961,2,Yes,14.3,-1,Correct Rejection,0.567368499935,False,True,stimulusWOAN27_2IFCnew_2019_Jun_13_1252_61,stimulusWOAN27_2IFCnew_2019_Jun_13_1252_62,False,2019_Jun_13_1252,2IFCnew,3,WOAN27,
2IFCnew,31,0,31,0,0.0675699000712,2,Yes,14.3,-1,Correct Rejection,0.531925300136,False,True,stimulusWOAN27_2IFCnew_2019_Jun_13_1252_63,stimulusWOAN27_2IFCnew_2019_Jun_13_1252_64,False,2019_Jun_13_1252,2IFCnew,3,WOAN27,
2IFCnew,32,0,32,0,0.202027099906,6,No,14.3,-1,Miss,0.534829600016,True,False,stimulusWOAN27_2IFCnew_2019_Jun_13_1252_65,stimulusWOAN27_2IFCnew_2019_Jun_13_1252_66,False,2019_Jun_13_1252,2IFCnew,3,WOAN27,
2IFCnew,33,0,33,0,0.232749599963,1,No,14.3,-1,Hit,0.437387200072,True,False,stimulusWOAN27_2IFCnew_2019_Jun_13_1252_67,stimulusWOAN27_2IFCnew_2019_Jun_13_1252_68,False,2019_Jun_13_1252,2IFCnew,3,WOAN27,
2IFCnew,34,0,34,0,0.166988499928,2,Yes,14.3,-1,Correct Rejection,0.601029400015,False,True,stimulusWOAN27_2IFCnew_2019_Jun_13_1252_69,stimulusWOAN27_2IFCnew_2019_Jun_13_1252_70,False,2019_Jun_13_1252,2IFCnew,3,WOAN27,
2IFCnew,35,0,35,0,0.166189200012,2,Yes,14.3,-1,Correct Rejection,0.600310300011,False,True,stimulusWOAN27_2IFCnew_2019_Jun_13_1252_71,stimulusWOAN27_2IFCnew_2019_Jun_13_1252_72,False,2019_Jun_13_1252,2IFCnew,3,WOAN27,
2IFCnew,36,0,36,0,0.133795800153,1,No,14.3,-1,Hit,0.535054199863,True,False,stimulusWOAN27_2IFCnew_2019_Jun_13_1252_73,stimulusWOAN27_2IFCnew_2019_Jun_13_1252_74,False,2019_Jun_13_1252,2IFCnew,3,WOAN27,
2IFCnew,37,0,37,0,0.133132399991,1,No,14.3,-1,Hit,0.499915800057,True,False,stimulusWOAN27_2IFCnew_2019_Jun_13_1252_75,stimulusWOAN27_2IFCnew_2019_Jun_13_1252_76,False,2019_Jun_13_1252,2IFCnew,3,WOAN27,
2IFCnew,38,0,38,0,0.265433900058,2,Yes,14.3,-1,Correct Rejection,0.766234900104,False,True,stimulusWOAN27_2IFCnew_2019_Jun_13_1252_77,stimulusWOAN27_2IFCnew_2019_Jun_13_1252_78,False,2019_Jun_13_1252,2IFCnew,3,WOAN27,
2IFCnew,39,0,39,0,0.233494500164,2,Yes,14.3,-1,Correct Rejection,0.766540700104,False,True,stimulusWOAN27_2IFCnew_2019_Jun_13_1252_79,stimulusWOAN27_2IFCnew_2019_Jun_13_1252_80,False,2019_Jun_13_1252,2IFCnew,3,WOAN27,
2IFCnew,40,0,40,0,-1,3,Yes,14.3,-1,Correct Rejection,0.533944400027,False,True,stimulusWOAN27_2IFCnew_2019_Jun_13_1252_81,stimulusWOAN27_2IFCnew_2019_Jun_13_1252_82,False,2019_Jun_13_1252,2IFCnew,3,WOAN27,
2IFCnew,41,0,41,0,0.167589599965,1,No,14.3,-1,Hit,0.468185599893,True,False,stimulusWOAN27_2IFCnew_2019_Jun_13_1252_83,stimulusWOAN27_2IFCnew_2019_Jun_13_1252_84,False,2019_Jun_13_1252,2IFCnew,3,WOAN27,
2IFCnew,42,0,42,0,0.233746200101,1,No,14.3,-1,Hit,0.567417599959,True,False,stimulusWOAN27_2IFCnew_2019_Jun_13_1252_85,stimulusWOAN27_2IFCnew_2019_Jun_13_1252_86,False,2019_Jun_13_1252,2IFCnew,3,WOAN27,
2IFCnew,43,0,43,0,0.133824700024,6,No,14.3,-1,Miss,0.467253499897,True,False,stimulusWOAN27_2IFCnew_2019_Jun_13_1252_87,stimulusWOAN27_2IFCnew_2019_Jun_13_1252_88,False,2019_Jun_13_1252,2IFCnew,3,WOAN27,
2IFCnew,44,0,44,0,0.0333608000074,2,Yes,14.3,-1,Correct Rejection,0.534043299966,False,True,stimulusWOAN27_2IFCnew_2019_Jun_13_1252_89,stimulusWOAN27_2IFCnew_2019_Jun_13_1252_90,False,2019_Jun_13_1252,2IFCnew,3,WOAN27,
2IFCnew,45,0,45,0,0.299865300069,1,No,14.3,-1,Hit,0.86682539992,True,False,stimulusWOAN27_2IFCnew_2019_Jun_13_1252_91,stimulusWOAN27_2IFCnew_2019_Jun_13_1252_92,False,2019_Jun_13_1252,2IFCnew,3,WOAN27,
2IFCnew,46,0,46,0,0.134555199882,2,Yes,14.3,-1,Correct Rejection,0.532603300177,False,True,stimulusWOAN27_2IFCnew_2019_Jun_13_1252_93,stimulusWOAN27_2IFCnew_2019_Jun_13_1252_94,False,2019_Jun_13_1252,2IFCnew,3,WOAN27,
2IFCnew,47,0,47,0,0.13472670014,1,No,14.3,-1,Hit,0.668248699978,True,False,stimulusWOAN27_2IFCnew_2019_Jun_13_1252_95,stimulusWOAN27_2IFCnew_2019_Jun_13_1252_96,False,2019_Jun_13_1252,2IFCnew,3,WOAN27,
2IFCnew,48,0,48,0,0.133639100008,2,Yes,14.3,-1,Correct Rejection,0.533868500032,False,True,stimulusWOAN27_2IFCnew_2019_Jun_13_1252_97,stimulusWOAN27_2IFCnew_2019_Jun_13_1252_98,False,2019_Jun_13_1252,2IFCnew,3,WOAN27,
2IFCnew,49,0,49,0,0.0331812999211,1,No,14.3,-1,Hit,0.467505299952,True,False,stimulusWOAN27_2IFCnew_2019_Jun_13_1252_99,stimulusWOAN27_2IFCnew_2019_Jun_13_1252_100,False,2019_Jun_13_1252,2IFCnew,3,WOAN27,
2IFCnew,50,0,50,0,0.0669718999416,2,Yes,14.3,-1,Correct Rejection,0.468070800183,False,True,stimulusWOAN27_2IFCnew_2019_Jun_13_1252_101,stimulusWOAN27_2IFCnew_2019_Jun_13_1252_102,False,2019_Jun_13_1252,2IFCnew,3,WOAN27,
2IFCnew,51,0,51,0,0.200563300168,1,No,14.3,-1,Hit,0.733702900121,True,False,stimulusWOAN27_2IFCnew_2019_Jun_13_1252_103,stimulusWOAN27_2IFCnew_2019_Jun_13_1252_104,False,2019_Jun_13_1252,2IFCnew,3,WOAN27,
2IFCnew,52,0,52,0,0.134133799933,2,Yes,14.3,-1,Correct Rejection,0.533898600144,False,True,stimulusWOAN27_2IFCnew_2019_Jun_13_1252_105,stimulusWOAN27_2IFCnew_2019_Jun_13_1252_106,False,2019_Jun_13_1252,2IFCnew,3,WOAN27,
2IFCnew,53,0,53,0,0.195691599976,2,Yes,14.3,-1,Correct Rejection,0.700960100163,False,True,stimulusWOAN27_2IFCnew_2019_Jun_13_1252_107,stimulusWOAN27_2IFCnew_2019_Jun_13_1252_108,False,2019_Jun_13_1252,2IFCnew,3,WOAN27,
2IFCnew,54,0,54,0,0.300510199973,2,Yes,14.3,-1,Correct Rejection,0.567352100043,False,True,stimulusWOAN27_2IFCnew_2019_Jun_13_1252_109,stimulusWOAN27_2IFCnew_2019_Jun_13_1252_110,False,2019_Jun_13_1252,2IFCnew,3,WOAN27,
2IFCnew,55,0,55,0,0.0997019000351,2,Yes,14.3,-1,Correct Rejection,0.534112400142,False,True,stimulusWOAN27_2IFCnew_2019_Jun_13_1252_111,stimulusWOAN27_2IFCnew_2019_Jun_13_1252_112,False,2019_Jun_13_1252,2IFCnew,3,WOAN27,
2IFCnew,56,0,56,0,0.300327999983,6,No,14.3,-1,Miss,0.667533600004,True,False,stimulusWOAN27_2IFCnew_2019_Jun_13_1252_113,stimulusWOAN27_2IFCnew_2019_Jun_13_1252_114,False,2019_Jun_13_1252,2IFCnew,3,WOAN27,
2IFCnew,57,0,57,0,0.133658499923,2,Yes,14.3,-1,Correct Rejection,0.529940199805,False,True,stimulusWOAN27_2IFCnew_2019_Jun_13_1252_115,stimulusWOAN27_2IFCnew_2019_Jun_13_1252_116,False,2019_Jun_13_1252,2IFCnew,3,WOAN27,
2IFCnew,58,0,58,0,0.266326199984,1,No,14.3,-1,Hit,0.63246390014,True,False,stimulusWOAN27_2IFCnew_2019_Jun_13_1252_117,stimulusWOAN27_2IFCnew_2019_Jun_13_1252_118,False,2019_Jun_13_1252,2IFCnew,3,WOAN27,
2IFCnew,59,0,59,0,0.0998760000803,1,No,14.3,-1,Hit,0.534357000142,True,False,stimulusWOAN27_2IFCnew_2019_Jun_13_1252_119,stimulusWOAN27_2IFCnew_2019_Jun_13_1252_120,False,2019_Jun_13_1252,2IFCnew,3,WOAN27,
2IFCnew,60,0,60,0,-1,1,No,14.3,-1,Hit,0.902246299898,True,False,stimulusWOAN27_2IFCnew_2019_Jun_13_1252_121,stimulusWOAN27_2IFCnew_2019_Jun_13_1252_122,False,2019_Jun_13_1252,2IFCnew,3,WOAN27,
2IFCnew,61,0,61,0,0.267084700055,1,No,14.3,-1,Hit,0.534243899863,True,False,stimulusWOAN27_2IFCnew_2019_Jun_13_1252_123,stimulusWOAN27_2IFCnew_2019_Jun_13_1252_124,False,2019_Jun_13_1252,2IFCnew,3,WOAN27,
2IFCnew,62,0,62,0,0.134376599919,2,Yes,14.3,-1,Correct Rejection,0.601683899993,False,True,stimulusWOAN27_2IFCnew_2019_Jun_13_1252_125,stimulusWOAN27_2IFCnew_2019_Jun_13_1252_126,False,2019_Jun_13_1252,2IFCnew,3,WOAN27,
2IFCnew,63,0,63,0,0.133408099879,1,No,14.3,-1,Hit,0.468951700022,True,False,stimulusWOAN27_2IFCnew_2019_Jun_13_1252_127,stimulusWOAN27_2IFCnew_2019_Jun_13_1252_128,False,2019_Jun_13_1252,2IFCnew,3,WOAN27,
2IFCnew,64,0,64,0,0.134143699892,1,No,14.3,-1,Hit,0.534948799992,True,False,stimulusWOAN27_2IFCnew_2019_Jun_13_1252_129,stimulusWOAN27_2IFCnew_2019_Jun_13_1252_130,False,2019_Jun_13_1252,2IFCnew,3,WOAN27,
2IFCnew,65,0,65,0,0.0672262001317,2,Yes,14.3,-1,Correct Rejection,0.468083899934,False,True,stimulusWOAN27_2IFCnew_2019_Jun_13_1252_131,stimulusWOAN27_2IFCnew_2019_Jun_13_1252_132,False,2019_Jun_13_1252,2IFCnew,3,WOAN27,
2IFCnew,66,0,66,0,0.0671319998801,2,Yes,14.3,-1,Correct Rejection,0.534825799987,False,True,stimulusWOAN27_2IFCnew_2019_Jun_13_1252_133,stimulusWOAN27_2IFCnew_2019_Jun_13_1252_134,False,2019_Jun_13_1252,2IFCnew,3,WOAN27,
2IFCnew,67,0,67,0,0.0677986000665,2,Yes,14.3,-1,Correct Rejection,0.535068500089,False,True,stimulusWOAN27_2IFCnew_2019_Jun_13_1252_135,stimulusWOAN27_2IFCnew_2019_Jun_13_1252_136,False,2019_Jun_13_1252,2IFCnew,3,WOAN27,
2IFCnew,68,0,68,0,0.133680399973,2,Yes,14.3,-1,Correct Rejection,0.567182800034,False,True,stimulusWOAN27_2IFCnew_2019_Jun_13_1252_137,stimulusWOAN27_2IFCnew_2019_Jun_13_1252_138,False,2019_Jun_13_1252,2IFCnew,3,WOAN27,
2IFCnew,69,0,69,0,0.167059900006,1,No,14.3,-1,Hit,0.533985099988,True,False,stimulusWOAN27_2IFCnew_2019_Jun_13_1252_139,stimulusWOAN27_2IFCnew_2019_Jun_13_1252_140,False,2019_Jun_13_1252,2IFCnew,3,WOAN27,
2IFCnew,70,0,70,0,0.165119500132,1,No,14.3,-1,Hit,0.500630500028,True,False,stimulusWOAN27_2IFCnew_2019_Jun_13_1252_141,stimulusWOAN27_2IFCnew_2019_Jun_13_1252_142,False,2019_Jun_13_1252,2IFCnew,3,WOAN27,
2IFCnew,71,0,71,0,0.0660995999351,2,Yes,14.3,-1,Correct Rejection,0.530672800029,False,True,stimulusWOAN27_2IFCnew_2019_Jun_13_1252_143,stimulusWOAN27_2IFCnew_2019_Jun_13_1252_144,False,2019_Jun_13_1252,2IFCnew,3,WOAN27,
2IFCnew,72,0,72,0,0.230820399942,1,No,14.3,-1,Hit,0.499750499846,True,False,stimulusWOAN27_2IFCnew_2019_Jun_13_1252_145,stimulusWOAN27_2IFCnew_2019_Jun_13_1252_146,False,2019_Jun_13_1252,2IFCnew,3,WOAN27,
2IFCnew,73,0,73,0,0.13282519998,1,No,14.3,-1,Hit,0.467952800216,True,False,stimulusWOAN27_2IFCnew_2019_Jun_13_1252_147,stimulusWOAN27_2IFCnew_2019_Jun_13_1252_148,False,2019_Jun_13_1252,2IFCnew,3,WOAN27,
2IFCnew,74,0,74,0,-1,3,No,14.3,-1,Correct Rejection,0.466273099883,False,True,stimulusWOAN27_2IFCnew_2019_Jun_13_1252_149,stimulusWOAN27_2IFCnew_2019_Jun_13_1252_150,False,2019_Jun_13_1252,2IFCnew,3,WOAN27,
2IFCnew,0,0,0,0,0.367977600079,2,Yes,12.4,-1,Correct Rejection,0.767398699885,False,True,stimulusWOAN27_2IFCnew_2019_Jun_13_1252_151,stimulusWOAN27_2IFCnew_2019_Jun_13_1252_152,False,2019_Jun_13_1252,2IFCnew,3,WOAN27,
2IFCnew,1,0,1,0,0.133501699893,1,No,12.4,-1,Hit,0.600926199928,True,False,stimulusWOAN27_2IFCnew_2019_Jun_13_1252_153,stimulusWOAN27_2IFCnew_2019_Jun_13_1252_154,False,2019_Jun_13_1252,2IFCnew,3,WOAN27,
2IFCnew,2,0,2,0,0.13397309999,1,No,12.4,-1,Hit,0.534120100085,True,False,stimulusWOAN27_2IFCnew_2019_Jun_13_1252_155,stimulusWOAN27_2IFCnew_2019_Jun_13_1252_156,False,2019_Jun_13_1252,2IFCnew,3,WOAN27,
2IFCnew,3,0,3,0,0.033567499835,2,Yes,12.4,-1,Correct Rejection,0.500563699985,False,True,stimulusWOAN27_2IFCnew_2019_Jun_13_1252_157,stimulusWOAN27_2IFCnew_2019_Jun_13_1252_158,False,2019_Jun_13_1252,2IFCnew,3,WOAN27,
2IFCnew,4,0,4,0,-1,1,Yes,12.4,-1,Hit,0.401434700005,True,False,stimulusWOAN27_2IFCnew_2019_Jun_13_1252_159,stimulusWOAN27_2IFCnew_2019_Jun_13_1252_160,False,2019_Jun_13_1252,2IFCnew,3,WOAN27,
2IFCnew,5,0,5,0,0.233301599976,1,No,12.4,-1,Hit,0.535340700066,True,False,stimulusWOAN27_2IFCnew_2019_Jun_13_1252_161,stimulusWOAN27_2IFCnew_2019_Jun_13_1252_162,False,2019_Jun_13_1252,2IFCnew,3,WOAN27,
2IFCnew,6,0,6,0,0.233800000045,1,No,12.4,-1,Hit,0.700935099972,True,False,stimulusWOAN27_2IFCnew_2019_Jun_13_1252_163,stimulusWOAN27_2IFCnew_2019_Jun_13_1252_164,False,2019_Jun_13_1252,2IFCnew,3,WOAN27,
2IFCnew,7,0,7,0,0.200147400144,2,Yes,12.4,-1,Correct Rejection,0.434056899976,False,True,stimulusWOAN27_2IFCnew_2019_Jun_13_1252_165,stimulusWOAN27_2IFCnew_2019_Jun_13_1252_166,False,2019_Jun_13_1252,2IFCnew,3,WOAN27,
2IFCnew,8,0,8,0,0.165896199876,1,No,12.4,-1,Hit,0.634451400023,True,False,stimulusWOAN27_2IFCnew_2019_Jun_13_1252_167,stimulusWOAN27_2IFCnew_2019_Jun_13_1252_168,False,2019_Jun_13_1252,2IFCnew,3,WOAN27,
2IFCnew,9,0,9,0,0.0668661000673,2,Yes,12.4,-1,Correct Rejection,0.533695999999,False,True,stimulusWOAN27_2IFCnew_2019_Jun_13_1252_169,stimulusWOAN27_2IFCnew_2019_Jun_13_1252_170,False,2019_Jun_13_1252,2IFCnew,3,WOAN27,
2IFCnew,10,0,10,0,0.0991330000106,1,No,12.4,-1,Hit,0.40176560008,True,False,stimulusWOAN27_2IFCnew_2019_Jun_13_1252_171,stimulusWOAN27_2IFCnew_2019_Jun_13_1252_172,False,2019_Jun_13_1252,2IFCnew,3,WOAN27,
2IFCnew,11,0,11,0,0.200051899999,1,No,12.4,-1,Hit,0.501555699855,True,False,stimulusWOAN27_2IFCnew_2019_Jun_13_1252_173,stimulusWOAN27_2IFCnew_2019_Jun_13_1252_174,False,2019_Jun_13_1252,2IFCnew,3,WOAN27,
2IFCnew,12,0,12,0,0.266853299923,1,No,12.4,-1,Hit,0.433697200147,True,False,stimulusWOAN27_2IFCnew_2019_Jun_13_1252_175,stimulusWOAN27_2IFCnew_2019_Jun_13_1252_176,False,2019_Jun_13_1252,2IFCnew,3,WOAN27,
2IFCnew,13,0,13,0,0.134101800155,2,Yes,12.4,-1,Correct Rejection,0.434115200071,False,True,stimulusWOAN27_2IFCnew_2019_Jun_13_1252_177,stimulusWOAN27_2IFCnew_2019_Jun_13_1252_178,False,2019_Jun_13_1252,2IFCnew,3,WOAN27,
2IFCnew,14,0,14,0,0.0335409999825,1,No,12.4,-1,Hit,0.501032599946,True,False,stimulusWOAN27_2IFCnew_2019_Jun_13_1252_179,stimulusWOAN27_2IFCnew_2019_Jun_13_1252_180,False,2019_Jun_13_1252,2IFCnew,3,WOAN27,
2IFCnew,15,0,15,0,0.100523500005,2,Yes,12.4,-1,Correct Rejection,0.533855699934,False,True,stimulusWOAN27_2IFCnew_2019_Jun_13_1252_181,stimulusWOAN27_2IFCnew_2019_Jun_13_1252_182,False,2019_Jun_13_1252,2IFCnew,3,WOAN27,
2IFCnew,16,0,16,0,0.101352800149,2,Yes,12.4,-1,Correct Rejection,0.566519699991,False,True,stimulusWOAN27_2IFCnew_2019_Jun_13_1252_183,stimulusWOAN27_2IFCnew_2019_Jun_13_1252_184,False,2019_Jun_13_1252,2IFCnew,3,WOAN27,
2IFCnew,17,0,17,0,0.0346614001319,1,No,12.4,-1,Hit,0.466913599987,True,False,stimulusWOAN27_2IFCnew_2019_Jun_13_1252_185,stimulusWOAN27_2IFCnew_2019_Jun_13_1252_186,False,2019_Jun_13_1252,2IFCnew,3,WOAN27,
2IFCnew,18,0,18,0,0.134338799864,1,No,12.4,-1,Hit,0.534003499895,True,False,stimulusWOAN27_2IFCnew_2019_Jun_13_1252_187,stimulusWOAN27_2IFCnew_2019_Jun_13_1252_188,False,2019_Jun_13_1252,2IFCnew,3,WOAN27,
2IFCnew,19,0,19,0,0.03406179999,2,Yes,12.4,-1,Correct Rejection,0.533401400084,False,True,stimulusWOAN27_2IFCnew_2019_Jun_13_1252_189,stimulusWOAN27_2IFCnew_2019_Jun_13_1252_190,False,2019_Jun_13_1252,2IFCnew,3,WOAN27,
2IFCnew,20,0,20,0,0.100631400011,1,No,12.4,-1,Hit,0.502050699899,True,False,stimulusWOAN27_2IFCnew_2019_Jun_13_1252_191,stimulusWOAN27_2IFCnew_2019_Jun_13_1252_192,False,2019_Jun_13_1252,2IFCnew,3,WOAN27,
2IFCnew,21,0,21,0,0.333660499891,1,No,12.4,-1,Hit,0.764631599886,True,False,stimulusWOAN27_2IFCnew_2019_Jun_13_1252_193,stimulusWOAN27_2IFCnew_2019_Jun_13_1252_194,False,2019_Jun_13_1252,2IFCnew,3,WOAN27,
2IFCnew,22,0,22,0,0.23356730002,1,No,12.4,-1,Hit,0.800652399892,True,False,stimulusWOAN27_2IFCnew_2019_Jun_13_1252_195,stimulusWOAN27_2IFCnew_2019_Jun_13_1252_196,False,2019_Jun_13_1252,2IFCnew,3,WOAN27,
2IFCnew,23,0,23,0,0.167232100153,1,No,12.4,-1,Hit,0.635018400149,True,False,stimulusWOAN27_2IFCnew_2019_Jun_13_1252_197,stimulusWOAN27_2IFCnew_2019_Jun_13_1252_198,False,2019_Jun_13_1252,2IFCnew,3,WOAN27,
2IFCnew,24,0,24,0,0.300625699805,2,Yes,12.4,-1,Correct Rejection,0.867635200033,False,True,stimulusWOAN27_2IFCnew_2019_Jun_13_1252_199,stimulusWOAN27_2IFCnew_2019_Jun_13_1252_200,False,2019_Jun_13_1252,2IFCnew,3,WOAN27,
2IFCnew,25,0,25,0,0.133546099998,2,Yes,12.4,-1,Correct Rejection,0.633583700052,False,True,stimulusWOAN27_2IFCnew_2019_Jun_13_1252_201,stimulusWOAN27_2IFCnew_2019_Jun_13_1252_202,False,2019_Jun_13_1252,2IFCnew,3,WOAN27,
2IFCnew,26,0,26,0,0.166554700118,1,No,12.4,-1,Hit,0.466576700099,True,False,stimulusWOAN27_2IFCnew_2019_Jun_13_1252_203,stimulusWOAN27_2IFCnew_2019_Jun_13_1252_204,False,2019_Jun_13_1252,2IFCnew,3,WOAN27,
2IFCnew,27,0,27,0,0.0998035001103,2,Yes,12.4,-1,Correct Rejection,0.499221399892,False,True,stimulusWOAN27_2IFCnew_2019_Jun_13_1252_205,stimulusWOAN27_2IFCnew_2019_Jun_13_1252_206,False,2019_Jun_13_1252,2IFCnew,3,WOAN27,
2IFCnew,28,0,28,0,0.133259199793,2,Yes,12.4,-1,Correct Rejection,0.533606000012,False,True,stimulusWOAN27_2IFCnew_2019_Jun_13_1252_207,stimulusWOAN27_2IFCnew_2019_Jun_13_1252_208,False,2019_Jun_13_1252,2IFCnew,3,WOAN27,
2IFCnew,29,0,29,0,0.133163999999,1,No,12.4,-1,Hit,0.498313199962,True,False,stimulusWOAN27_2IFCnew_2019_Jun_13_1252_209,stimulusWOAN27_2IFCnew_2019_Jun_13_1252_210,False,2019_Jun_13_1252,2IFCnew,3,WOAN27,
2IFCnew,30,0,30,0,0.233566699782,2,Yes,12.4,-1,Correct Rejection,0.50048050005,False,True,stimulusWOAN27_2IFCnew_2019_Jun_13_1252_211,stimulusWOAN27_2IFCnew_2019_Jun_13_1252_212,False,2019_Jun_13_1252,2IFCnew,3,WOAN27,
2IFCnew,31,0,31,0,0.0681746997871,1,No,12.4,-1,Hit,0.434802100062,True,False,stimulusWOAN27_2IFCnew_2019_Jun_13_1252_213,stimulusWOAN27_2IFCnew_2019_Jun_13_1252_214,False,2019_Jun_13_1252,2IFCnew,3,WOAN27,
2IFCnew,32,0,32,0,0.033550000051,2,Yes,12.4,-1,Correct Rejection,0.534024600172,False,True,stimulusWOAN27_2IFCnew_2019_Jun_13_1252_215,stimulusWOAN27_2IFCnew_2019_Jun_13_1252_216,False,2019_Jun_13_1252,2IFCnew,3,WOAN27,
2IFCnew,33,0,33,0,0.533344099997,6,No,12.4,-1,Miss,0.667742700083,True,False,stimulusWOAN27_2IFCnew_2019_Jun_13_1252_217,stimulusWOAN27_2IFCnew_2019_Jun_13_1252_218,False,2019_Jun_13_1252,2IFCnew,3,WOAN27,
2IFCnew,34,0,34,0,0.0999469999224,1,No,12.4,-1,Hit,0.566826599883,True,False,stimulusWOAN27_2IFCnew_2019_Jun_13_1252_219,stimulusWOAN27_2IFCnew_2019_Jun_13_1252_220,False,2019_Jun_13_1252,2IFCnew,3,WOAN27,
2IFCnew,35,0,35,0,0.132200299995,1,No,12.4,-1,Hit,0.467352000065,True,False,stimulusWOAN27_2IFCnew_2019_Jun_13_1252_221,stimulusWOAN27_2IFCnew_2019_Jun_13_1252_222,False,2019_Jun_13_1252,2IFCnew,3,WOAN27,
2IFCnew,36,0,36,0,0.33397789998,2,Yes,12.4,-1,Correct Rejection,0.567087800009,False,True,stimulusWOAN27_2IFCnew_2019_Jun_13_1252_223,stimulusWOAN27_2IFCnew_2019_Jun_13_1252_224,False,2019_Jun_13_1252,2IFCnew,3,WOAN27,
2IFCnew,37,0,37,0,0.16721330001,2,Yes,12.4,-1,Correct Rejection,0.63593930006,False,True,stimulusWOAN27_2IFCnew_2019_Jun_13_1252_225,stimulusWOAN27_2IFCnew_2019_Jun_13_1252_226,False,2019_Jun_13_1252,2IFCnew,3,WOAN27,
2IFCnew,38,0,38,0,0.165876000188,2,Yes,12.4,-1,Correct Rejection,0.601249299943,False,True,stimulusWOAN27_2IFCnew_2019_Jun_13_1252_227,stimulusWOAN27_2IFCnew_2019_Jun_13_1252_228,False,2019_Jun_13_1252,2IFCnew,3,WOAN27,
2IFCnew,39,0,39,0,0.133129499853,1,No,12.4,-1,Hit,0.567493299954,True,False,stimulusWOAN27_2IFCnew_2019_Jun_13_1252_229,stimulusWOAN27_2IFCnew_2019_Jun_13_1252_230,False,2019_Jun_13_1252,2IFCnew,3,WOAN27,
2IFCnew,40,0,40,0,0.100177099928,2,Yes,12.4,-1,Correct Rejection,0.533923800103,False,True,stimulusWOAN27_2IFCnew_2019_Jun_13_1252_231,stimulusWOAN27_2IFCnew_2019_Jun_13_1252_232,False,2019_Jun_13_1252,2IFCnew,3,WOAN27,
2IFCnew,41,0,41,0,0.233654600102,1,No,12.4,-1,Hit,0.467335100053,True,False,stimulusWOAN27_2IFCnew_2019_Jun_13_1252_233,stimulusWOAN27_2IFCnew_2019_Jun_13_1252_234,False,2019_Jun_13_1252,2IFCnew,3,WOAN27,
2IFCnew,42,0,42,0,0.133063500049,2,Yes,12.4,-1,Correct Rejection,0.535499399994,False,True,stimulusWOAN27_2IFCnew_2019_Jun_13_1252_235,stimulusWOAN27_2IFCnew_2019_Jun_13_1252_236,False,2019_Jun_13_1252,2IFCnew,3,WOAN27,
2IFCnew,43,0,43,0,0.367367000086,3,No,12.4,-1,False Alarm,0.533378300024,False,True,stimulusWOAN27_2IFCnew_2019_Jun_13_1252_237,stimulusWOAN27_2IFCnew_2019_Jun_13_1252_238,False,2019_Jun_13_1252,2IFCnew,3,WOAN27,
2IFCnew,44,0,44,0,0.0337263999972,2,Yes,12.4,-1,Correct Rejection,0.535299200099,False,True,stimulusWOAN27_2IFCnew_2019_Jun_13_1252_239,stimulusWOAN27_2IFCnew_2019_Jun_13_1252_240,False,2019_Jun_13_1252,2IFCnew,3,WOAN27,
2IFCnew,45,0,45,0,0.0325875999406,2,Yes,12.4,-1,Correct Rejection,0.500678499928,False,True,stimulusWOAN27_2IFCnew_2019_Jun_13_1252_241,stimulusWOAN27_2IFCnew_2019_Jun_13_1252_242,False,2019_Jun_13_1252,2IFCnew,3,WOAN27,
2IFCnew,46,0,46,0,0.100475399988,1,No,12.4,-1,Hit,0.46728360001,True,False,stimulusWOAN27_2IFCnew_2019_Jun_13_1252_243,stimulusWOAN27_2IFCnew_2019_Jun_13_1252_244,False,2019_Jun_13_1252,2IFCnew,3,WOAN27,
2IFCnew,47,0,47,0,0.066434300039,1,No,12.4,-1,Hit,0.500980800018,True,False,stimulusWOAN27_2IFCnew_2019_Jun_13_1252_245,stimulusWOAN27_2IFCnew_2019_Jun_13_1252_246,False,2019_Jun_13_1252,2IFCnew,3,WOAN27,
2IFCnew,48,0,48,0,0.101136600133,2,Yes,12.4,-1,Correct Rejection,0.568056500051,False,True,stimulusWOAN27_2IFCnew_2019_Jun_13_1252_247,stimulusWOAN27_2IFCnew_2019_Jun_13_1252_248,False,2019_Jun_13_1252,2IFCnew,3,WOAN27,
2IFCnew,49,0,49,0,0.133475899929,1,No,12.4,-1,Hit,0.467706799973,True,False,stimulusWOAN27_2IFCnew_2019_Jun_13_1252_249,stimulusWOAN27_2IFCnew_2019_Jun_13_1252_250,False,2019_Jun_13_1252,2IFCnew,3,WOAN27,
2IFCnew,50,0,50,0,0.267101699952,1,No,12.4,-1,Hit,0.733152400004,True,False,stimulusWOAN27_2IFCnew_2019_Jun_13_1252_251,stimulusWOAN27_2IFCnew_2019_Jun_13_1252_252,False,2019_Jun_13_1252,2IFCnew,3,WOAN27,
2IFCnew,51,0,51,0,-1,3,No,12.4,-1,Correct Rejection,0.499874699861,False,True,stimulusWOAN27_2IFCnew_2019_Jun_13_1252_253,stimulusWOAN27_2IFCnew_2019_Jun_13_1252_254,False,2019_Jun_13_1252,2IFCnew,3,WOAN27,
2IFCnew,52,0,52,0,0.100293399999,1,No,12.4,-1,Hit,0.467429400189,True,False,stimulusWOAN27_2IFCnew_2019_Jun_13_1252_255,stimulusWOAN27_2IFCnew_2019_Jun_13_1252_256,False,2019_Jun_13_1252,2IFCnew,3,WOAN27,
2IFCnew,53,0,53,0,0.100215299986,2,Yes,12.4,-1,Correct Rejection,0.566993999993,False,True,stimulusWOAN27_2IFCnew_2019_Jun_13_1252_257,stimulusWOAN27_2IFCnew_2019_Jun_13_1252_258,False,2019_Jun_13_1252,2IFCnew,3,WOAN27,
2IFCnew,54,0,54,0,0.133540199837,1,No,12.4,-1,Hit,0.500734700123,True,False,stimulusWOAN27_2IFCnew_2019_Jun_13_1252_259,stimulusWOAN27_2IFCnew_2019_Jun_13_1252_260,False,2019_Jun_13_1252,2IFCnew,3,WOAN27,
2IFCnew,55,0,55,0,0.13421160006,2,Yes,12.4,-1,Correct Rejection,0.567182000028,False,True,stimulusWOAN27_2IFCnew_2019_Jun_13_1252_261,stimulusWOAN27_2IFCnew_2019_Jun_13_1252_262,False,2019_Jun_13_1252,2IFCnew,3,WOAN27,
2IFCnew,56,0,56,0,0.268643900054,1,No,12.4,-1,Hit,0.568625799846,True,False,stimulusWOAN27_2IFCnew_2019_Jun_13_1252_263,stimulusWOAN27_2IFCnew_2019_Jun_13_1252_264,False,2019_Jun_13_1252,2IFCnew,3,WOAN27,
2IFCnew,57,0,57,0,0.133865799988,1,No,12.4,-1,Hit,0.466460299911,True,False,stimulusWOAN27_2IFCnew_2019_Jun_13_1252_265,stimulusWOAN27_2IFCnew_2019_Jun_13_1252_266,False,2019_Jun_13_1252,2IFCnew,3,WOAN27,
2IFCnew,58,0,58,0,0.166321499972,1,No,12.4,-1,Hit,0.433241300052,True,False,stimulusWOAN27_2IFCnew_2019_Jun_13_1252_267,stimulusWOAN27_2IFCnew_2019_Jun_13_1252_268,False,2019_Jun_13_1252,2IFCnew,3,WOAN27,
2IFCnew,59,0,59,0,0.133353700163,2,Yes,12.4,-1,Correct Rejection,0.535398600157,False,True,stimulusWOAN27_2IFCnew_2019_Jun_13_1252_269,stimulusWOAN27_2IFCnew_2019_Jun_13_1252_270,False,2019_Jun_13_1252,2IFCnew,3,WOAN27,
2IFCnew,60,0,60,0,0.199418100063,1,No,12.4,-1,Hit,0.499466700014,True,False,stimulusWOAN27_2IFCnew_2019_Jun_13_1252_271,stimulusWOAN27_2IFCnew_2019_Jun_13_1252_272,False,2019_Jun_13_1252,2IFCnew,3,WOAN27,
2IFCnew,61,0,61,0,0.233285499969,2,Yes,12.4,-1,Correct Rejection,0.634830299998,False,True,stimulusWOAN27_2IFCnew_2019_Jun_13_1252_273,stimulusWOAN27_2IFCnew_2019_Jun_13_1252_274,False,2019_Jun_13_1252,2IFCnew,3,WOAN27,
2IFCnew,62,0,62,0,0.133235200075,2,Yes,12.4,-1,Correct Rejection,0.534679500153,False,True,stimulusWOAN27_2IFCnew_2019_Jun_13_1252_275,stimulusWOAN27_2IFCnew_2019_Jun_13_1252_276,False,2019_Jun_13_1252,2IFCnew,3,WOAN27,
2IFCnew,63,0,63,0,0.132627899991,1,No,12.4,-1,Hit,0.56758139981,True,False,stimulusWOAN27_2IFCnew_2019_Jun_13_1252_277,stimulusWOAN27_2IFCnew_2019_Jun_13_1252_278,False,2019_Jun_13_1252,2IFCnew,3,WOAN27,
2IFCnew,64,0,64,0,-1,3,No,12.4,-1,Correct Rejection,0.468976299977,False,True,stimulusWOAN27_2IFCnew_2019_Jun_13_1252_279,stimulusWOAN27_2IFCnew_2019_Jun_13_1252_280,False,2019_Jun_13_1252,2IFCnew,3,WOAN27,
2IFCnew,65,0,65,0,0.166530000046,1,No,12.4,-1,Hit,0.43440430006,True,False,stimulusWOAN27_2IFCnew_2019_Jun_13_1252_281,stimulusWOAN27_2IFCnew_2019_Jun_13_1252_282,False,2019_Jun_13_1252,2IFCnew,3,WOAN27,
2IFCnew,66,0,66,0,0.23388269986,2,Yes,12.4,-1,Correct Rejection,0.666313900147,False,True,stimulusWOAN27_2IFCnew_2019_Jun_13_1252_283,stimulusWOAN27_2IFCnew_2019_Jun_13_1252_284,False,2019_Jun_13_1252,2IFCnew,3,WOAN27,
2IFCnew,67,0,67,0,0.133362999884,1,No,12.4,-1,Hit,0.434657700127,True,False,stimulusWOAN27_2IFCnew_2019_Jun_13_1252_285,stimulusWOAN27_2IFCnew_2019_Jun_13_1252_286,False,2019_Jun_13_1252,2IFCnew,3,WOAN27,
2IFCnew,68,0,68,0,0.100086599821,2,Yes,12.4,-1,Correct Rejection,0.534603100037,False,True,stimulusWOAN27_2IFCnew_2019_Jun_13_1252_287,stimulusWOAN27_2IFCnew_2019_Jun_13_1252_288,False,2019_Jun_13_1252,2IFCnew,3,WOAN27,
2IFCnew,69,0,69,0,0.133356200065,2,Yes,12.4,-1,Correct Rejection,0.5667349,False,True,stimulusWOAN27_2IFCnew_2019_Jun_13_1252_289,stimulusWOAN27_2IFCnew_2019_Jun_13_1252_290,False,2019_Jun_13_1252,2IFCnew,3,WOAN27,
2IFCnew,70,0,70,0,0.100650500041,1,No,12.4,-1,Hit,0.567289700033,True,False,stimulusWOAN27_2IFCnew_2019_Jun_13_1252_291,stimulusWOAN27_2IFCnew_2019_Jun_13_1252_292,False,2019_Jun_13_1252,2IFCnew,3,WOAN27,
2IFCnew,71,0,71,0,0.166555699892,2,Yes,12.4,-1,Correct Rejection,0.467830299865,False,True,stimulusWOAN27_2IFCnew_2019_Jun_13_1252_293,stimulusWOAN27_2IFCnew_2019_Jun_13_1252_294,False,2019_Jun_13_1252,2IFCnew,3,WOAN27,
2IFCnew,72,0,72,0,0.0664729999844,2,Yes,12.4,-1,Correct Rejection,0.467149399919,False,True,stimulusWOAN27_2IFCnew_2019_Jun_13_1252_295,stimulusWOAN27_2IFCnew_2019_Jun_13_1252_296,False,2019_Jun_13_1252,2IFCnew,3,WOAN27,
2IFCnew,73,0,73,0,0.0671275998466,2,Yes,12.4,-1,Correct Rejection,0.566620599944,False,True,stimulusWOAN27_2IFCnew_2019_Jun_13_1252_297,stimulusWOAN27_2IFCnew_2019_Jun_13_1252_298,False,2019_Jun_13_1252,2IFCnew,3,WOAN27,
2IFCnew,74,0,74,0,0.133199000033,2,Yes,12.4,-1,Correct Rejection,0.533414199948,False,True,stimulusWOAN27_2IFCnew_2019_Jun_13_1252_299,stimulusWOAN27_2IFCnew_2019_Jun_13_1252_300,False,2019_Jun_13_1252,2IFCnew,3,WOAN27,
2IFCnew,0,0,0,0,0.336228499888,8,No,3.8,-1,Correct Rejection,0.601122700144,False,True,stimulusWOAN27_2IFCnew_2019_Jun_13_1252_301,stimulusWOAN27_2IFCnew_2019_Jun_13_1252_302,False,2019_Jun_13_1252,2IFCnew,3,WOAN27,
2IFCnew,1,0,1,0,0.333548400085,2,Yes,3.8,-1,Correct Rejection,0.500914199976,False,True,stimulusWOAN27_2IFCnew_2019_Jun_13_1252_303,stimulusWOAN27_2IFCnew_2019_Jun_13_1252_304,False,2019_Jun_13_1252,2IFCnew,3,WOAN27,
2IFCnew,2,0,2,0,-1,3,Yes,3.8,-1,Correct Rejection,0.501203800086,False,True,stimulusWOAN27_2IFCnew_2019_Jun_13_1252_305,stimulusWOAN27_2IFCnew_2019_Jun_13_1252_306,False,2019_Jun_13_1252,2IFCnew,3,WOAN27,
2IFCnew,3,0,3,0,0.133198400028,1,No,3.8,-1,Hit,0.602216999978,True,False,stimulusWOAN27_2IFCnew_2019_Jun_13_1252_307,stimulusWOAN27_2IFCnew_2019_Jun_13_1252_308,False,2019_Jun_13_1252,2IFCnew,3,WOAN27,
2IFCnew,4,0,4,0,0.367108499864,6,No,3.8,-1,Miss,0.601475100033,True,False,stimulusWOAN27_2IFCnew_2019_Jun_13_1252_309,stimulusWOAN27_2IFCnew_2019_Jun_13_1252_310,False,2019_Jun_13_1252,2IFCnew,3,WOAN27,
2IFCnew,5,0,5,0,0.533106800169,6,No,3.8,-1,Miss,0.468408499844,True,False,stimulusWOAN27_2IFCnew_2019_Jun_13_1252_311,stimulusWOAN27_2IFCnew_2019_Jun_13_1252_312,False,2019_Jun_13_1252,2IFCnew,3,WOAN27,
2IFCnew,6,0,6,0,0.400619300082,8,No,3.8,-1,Correct Rejection,0.534177999943,False,True,stimulusWOAN27_2IFCnew_2019_Jun_13_1252_313,stimulusWOAN27_2IFCnew_2019_Jun_13_1252_314,False,2019_Jun_13_1252,2IFCnew,3,WOAN27,
2IFCnew,7,0,7,0,0.0664643000346,2,Yes,3.8,-1,Correct Rejection,0.567250600085,False,True,stimulusWOAN27_2IFCnew_2019_Jun_13_1252_315,stimulusWOAN27_2IFCnew_2019_Jun_13_1252_316,False,2019_Jun_13_1252,2IFCnew,3,WOAN27,
2IFCnew,8,0,8,0,0.333434399916,6,No,3.8,-1,Miss,0.668262199964,True,False,stimulusWOAN27_2IFCnew_2019_Jun_13_1252_317,stimulusWOAN27_2IFCnew_2019_Jun_13_1252_318,False,2019_Jun_13_1252,2IFCnew,3,WOAN27,
2IFCnew,9,0,9,0,0.335990899941,6,No,3.8,-1,Miss,0.534090799978,True,False,stimulusWOAN27_2IFCnew_2019_Jun_13_1252_319,stimulusWOAN27_2IFCnew_2019_Jun_13_1252_320,False,2019_Jun_13_1252,2IFCnew,3,WOAN27,
2IFCnew,10,0,10,0,-1,4,No,3.8,-1,Miss,0.467663200106,True,False,stimulusWOAN27_2IFCnew_2019_Jun_13_1252_321,stimulusWOAN27_2IFCnew_2019_Jun_13_1252_322,False,2019_Jun_13_1252,2IFCnew,3,WOAN27,
2IFCnew,11,0,11,0,-1,3,No,3.8,-1,Correct Rejection,0.900105600012,False,True,stimulusWOAN27_2IFCnew_2019_Jun_13_1252_323,stimulusWOAN27_2IFCnew_2019_Jun_13_1252_324,False,2019_Jun_13_1252,2IFCnew,3,WOAN27,
2IFCnew,12,0,12,0,0.333434500033,8,No,3.8,-1,Correct Rejection,0.734884900041,False,True,stimulusWOAN27_2IFCnew_2019_Jun_13_1252_325,stimulusWOAN27_2IFCnew_2019_Jun_13_1252_326,False,2019_Jun_13_1252,2IFCnew,3,WOAN27,
2IFCnew,13,0,13,0,0.500734000001,6,No,3.8,-1,Miss,0.866318299901,True,False,stimulusWOAN27_2IFCnew_2019_Jun_13_1252_327,stimulusWOAN27_2IFCnew_2019_Jun_13_1252_328,False,2019_Jun_13_1252,2IFCnew,3,WOAN27,
2IFCnew,14,0,14,0,0.1001559,8,No,3.8,-1,Correct Rejection,0.300158500206,False,True,stimulusWOAN27_2IFCnew_2019_Jun_13_1252_329,stimulusWOAN27_2IFCnew_2019_Jun_13_1252_330,False,2019_Jun_13_1252,2IFCnew,3,WOAN27,
2IFCnew,15,0,15,0,-1,0,No,3.8,-1,No Answer,-1,True,False,stimulusWOAN27_2IFCnew_2019_Jun_13_1252_331,stimulusWOAN27_2IFCnew_2019_Jun_13_1252_332,False,2019_Jun_13_1252,2IFCnew,3,WOAN27,
2IFCnew,16,0,16,0,-1,4,No,3.8,-1,Miss,0.566332400078,True,False,stimulusWOAN27_2IFCnew_2019_Jun_13_1252_333,stimulusWOAN27_2IFCnew_2019_Jun_13_1252_334,False,2019_Jun_13_1252,2IFCnew,3,WOAN27,
2IFCnew,17,0,17,0,-1,3,No,3.8,-1,Correct Rejection,0.533263499849,False,True,stimulusWOAN27_2IFCnew_2019_Jun_13_1252_335,stimulusWOAN27_2IFCnew_2019_Jun_13_1252_336,False,2019_Jun_13_1252,2IFCnew,3,WOAN27,
2IFCnew,18,0,18,0,0.133804199984,1,No,3.8,-1,Hit,0.633508599829,True,False,stimulusWOAN27_2IFCnew_2019_Jun_13_1252_337,stimulusWOAN27_2IFCnew_2019_Jun_13_1252_338,False,2019_Jun_13_1252,2IFCnew,3,WOAN27,
2IFCnew,19,0,19,0,0.10125359986,2,Yes,3.8,-1,Correct Rejection,0.600799500011,False,True,stimulusWOAN27_2IFCnew_2019_Jun_13_1252_339,stimulusWOAN27_2IFCnew_2019_Jun_13_1252_340,False,2019_Jun_13_1252,2IFCnew,3,WOAN27,
2IFCnew,20,0,20,0,0.167163799983,6,No,3.8,-1,Miss,0.900891100056,True,False,stimulusWOAN27_2IFCnew_2019_Jun_13_1252_341,stimulusWOAN27_2IFCnew_2019_Jun_13_1252_342,False,2019_Jun_13_1252,2IFCnew,3,WOAN27,
2IFCnew,21,0,21,0,0.132661700016,2,Yes,3.8,-1,Correct Rejection,0.567451799987,False,True,stimulusWOAN27_2IFCnew_2019_Jun_13_1252_343,stimulusWOAN27_2IFCnew_2019_Jun_13_1252_344,False,2019_Jun_13_1252,2IFCnew,3,WOAN27,
2IFCnew,22,0,22,0,0.200033599976,4,Yes,3.8,-1,Miss,0.734592299908,True,False,stimulusWOAN27_2IFCnew_2019_Jun_13_1252_345,stimulusWOAN27_2IFCnew_2019_Jun_13_1252_346,False,2019_Jun_13_1252,2IFCnew,3,WOAN27,
2IFCnew,23,0,23,0,0.166608499829,4,Yes,3.8,-1,Miss,0.635105900001,True,False,stimulusWOAN27_2IFCnew_2019_Jun_13_1252_347,stimulusWOAN27_2IFCnew_2019_Jun_13_1252_348,False,2019_Jun_13_1252,2IFCnew,3,WOAN27,
2IFCnew,24,0,24,0,0.433854900068,1,No,3.8,-1,Hit,0.301909900038,True,False,stimulusWOAN27_2IFCnew_2019_Jun_13_1252_349,stimulusWOAN27_2IFCnew_2019_Jun_13_1252_350,False,2019_Jun_13_1252,2IFCnew,3,WOAN27,
2IFCnew,25,0,25,0,0.0668966001831,4,Yes,3.8,-1,Miss,0.534049900016,True,False,stimulusWOAN27_2IFCnew_2019_Jun_13_1252_351,stimulusWOAN27_2IFCnew_2019_Jun_13_1252_352,False,2019_Jun_13_1252,2IFCnew,3,WOAN27,
2IFCnew,26,0,26,0,0.201273099985,3,No,3.8,-1,False Alarm,0.734431100078,False,True,stimulusWOAN27_2IFCnew_2019_Jun_13_1252_353,stimulusWOAN27_2IFCnew_2019_Jun_13_1252_354,False,2019_Jun_13_1252,2IFCnew,3,WOAN27,
2IFCnew,27,0,27,0,0.0339047000743,2,Yes,3.8,-1,Correct Rejection,0.533399500186,False,True,stimulusWOAN27_2IFCnew_2019_Jun_13_1252_355,stimulusWOAN27_2IFCnew_2019_Jun_13_1252_356,False,2019_Jun_13_1252,2IFCnew,3,WOAN27,
2IFCnew,28,0,28,0,-1,4,Yes,3.8,-1,Miss,0.534834200051,True,False,stimulusWOAN27_2IFCnew_2019_Jun_13_1252_357,stimulusWOAN27_2IFCnew_2019_Jun_13_1252_358,False,2019_Jun_13_1252,2IFCnew,3,WOAN27,
2IFCnew,29,0,29,0,-1,1,Yes,3.8,-1,Hit,0.133860199945,True,False,stimulusWOAN27_2IFCnew_2019_Jun_13_1252_359,stimulusWOAN27_2IFCnew_2019_Jun_13_1252_360,False,2019_Jun_13_1252,2IFCnew,3,WOAN27,
2IFCnew,30,0,30,0,0.200290800072,4,Yes,3.8,-1,Miss,0.633235199843,True,False,stimulusWOAN27_2IFCnew_2019_Jun_13_1252_361,stimulusWOAN27_2IFCnew_2019_Jun_13_1252_362,False,2019_Jun_13_1252,2IFCnew,3,WOAN27,
2IFCnew,31,0,31,0,-1,2,Yes,3.8,-1,False Alarm,0.19951210008,False,True,stimulusWOAN27_2IFCnew_2019_Jun_13_1252_363,stimulusWOAN27_2IFCnew_2019_Jun_13_1252_364,False,2019_Jun_13_1252,2IFCnew,3,WOAN27,
2IFCnew,32,0,32,0,0.300329300109,2,Yes,3.8,-1,Correct Rejection,0.500055900076,False,True,stimulusWOAN27_2IFCnew_2019_Jun_13_1252_365,stimulusWOAN27_2IFCnew_2019_Jun_13_1252_366,False,2019_Jun_13_1252,2IFCnew,3,WOAN27,
2IFCnew,33,0,33,0,0.0328025999479,4,Yes,3.8,-1,Miss,0.567988999886,True,False,stimulusWOAN27_2IFCnew_2019_Jun_13_1252_367,stimulusWOAN27_2IFCnew_2019_Jun_13_1252_368,False,2019_Jun_13_1252,2IFCnew,3,WOAN27,
2IFCnew,34,0,34,0,-1,1,Yes,3.8,-1,Hit,0.268333400134,True,False,stimulusWOAN27_2IFCnew_2019_Jun_13_1252_369,stimulusWOAN27_2IFCnew_2019_Jun_13_1252_370,False,2019_Jun_13_1252,2IFCnew,3,WOAN27,
2IFCnew,35,0,35,0,0.167278100038,2,Yes,3.8,-1,Correct Rejection,0.66567180003,False,True,stimulusWOAN27_2IFCnew_2019_Jun_13_1252_371,stimulusWOAN27_2IFCnew_2019_Jun_13_1252_372,False,2019_Jun_13_1252,2IFCnew,3,WOAN27,
2IFCnew,36,0,36,0,0.133326099953,1,No,3.8,-1,Hit,0.533831499983,True,False,stimulusWOAN27_2IFCnew_2019_Jun_13_1252_373,stimulusWOAN27_2IFCnew_2019_Jun_13_1252_374,False,2019_Jun_13_1252,2IFCnew,3,WOAN27,
2IFCnew,37,0,37,0,0.167636499973,4,Yes,3.8,-1,Miss,0.634683199925,True,False,stimulusWOAN27_2IFCnew_2019_Jun_13_1252_375,stimulusWOAN27_2IFCnew_2019_Jun_13_1252_376,False,2019_Jun_13_1252,2IFCnew,3,WOAN27,
2IFCnew,38,0,38,0,-1,1,Yes,3.8,-1,Hit,0.266102100024,True,False,stimulusWOAN27_2IFCnew_2019_Jun_13_1252_377,stimulusWOAN27_2IFCnew_2019_Jun_13_1252_378,False,2019_Jun_13_1252,2IFCnew,3,WOAN27,
2IFCnew,39,0,39,0,0.200356899993,1,No,3.8,-1,Hit,0.667439700104,True,False,stimulusWOAN27_2IFCnew_2019_Jun_13_1252_379,stimulusWOAN27_2IFCnew_2019_Jun_13_1252_380,False,2019_Jun_13_1252,2IFCnew,3,WOAN27,
2IFCnew,40,0,40,0,0.13302040007,1,No,3.8,-1,Hit,0.567701900145,True,False,stimulusWOAN27_2IFCnew_2019_Jun_13_1252_381,stimulusWOAN27_2IFCnew_2019_Jun_13_1252_382,False,2019_Jun_13_1252,2IFCnew,3,WOAN27,
2IFCnew,41,0,41,0,0.0637749999296,2,Yes,3.8,-1,Correct Rejection,0.56715350016,False,True,stimulusWOAN27_2IFCnew_2019_Jun_13_1252_383,stimulusWOAN27_2IFCnew_2019_Jun_13_1252_384,False,2019_Jun_13_1252,2IFCnew,3,WOAN27,
2IFCnew,42,0,42,0,0.130986399949,2,Yes,3.8,-1,Correct Rejection,0.601764000021,False,True,stimulusWOAN27_2IFCnew_2019_Jun_13_1252_385,stimulusWOAN27_2IFCnew_2019_Jun_13_1252_386,False,2019_Jun_13_1252,2IFCnew,3,WOAN27,
2IFCnew,43,0,43,0,0.100345099811,4,Yes,3.8,-1,Miss,0.499452199787,True,False,stimulusWOAN27_2IFCnew_2019_Jun_13_1252_387,stimulusWOAN27_2IFCnew_2019_Jun_13_1252_388,False,2019_Jun_13_1252,2IFCnew,3,WOAN27,
2IFCnew,44,0,44,0,-1,1,Yes,3.8,-1,Hit,0.268134099897,True,False,stimulusWOAN27_2IFCnew_2019_Jun_13_1252_389,stimulusWOAN27_2IFCnew_2019_Jun_13_1252_390,False,2019_Jun_13_1252,2IFCnew,3,WOAN27,
2IFCnew,45,0,45,0,0.100104599958,4,Yes,3.8,-1,Miss,0.600812299876,True,False,stimulusWOAN27_2IFCnew_2019_Jun_13_1252_391,stimulusWOAN27_2IFCnew_2019_Jun_13_1252_392,False,2019_Jun_13_1252,2IFCnew,3,WOAN27,
2IFCnew,46,0,46,0,-1,1,Yes,3.8,-1,Hit,0.133888300043,True,False,stimulusWOAN27_2IFCnew_2019_Jun_13_1252_393,stimulusWOAN27_2IFCnew_2019_Jun_13_1252_394,False,2019_Jun_13_1252,2IFCnew,3,WOAN27,
2IFCnew,47,0,47,0,0.19994150009,1,No,3.8,-1,Hit,0.567302200012,True,False,stimulusWOAN27_2IFCnew_2019_Jun_13_1252_395,stimulusWOAN27_2IFCnew_2019_Jun_13_1252_396,False,2019_Jun_13_1252,2IFCnew,3,WOAN27,
2IFCnew,48,0,48,0,-1,1,No,3.8,-1,Hit,0.433875399875,True,False,stimulusWOAN27_2IFCnew_2019_Jun_13_1252_397,stimulusWOAN27_2IFCnew_2019_Jun_13_1252_398,False,2019_Jun_13_1252,2IFCnew,3,WOAN27,
2IFCnew,49,0,49,0,0.0674041998573,2,Yes,3.8,-1,Correct Rejection,0.500696700066,False,True,stimulusWOAN27_2IFCnew_2019_Jun_13_1252_399,stimulusWOAN27_2IFCnew_2019_Jun_13_1252_400,False,2019_Jun_13_1252,2IFCnew,3,WOAN27,
2IFCnew,50,0,50,0,0.233739899937,4,Yes,3.8,-1,Miss,0.700938499998,True,False,stimulusWOAN27_2IFCnew_2019_Jun_13_1252_401,stimulusWOAN27_2IFCnew_2019_Jun_13_1252_402,False,2019_Jun_13_1252,2IFCnew,3,WOAN27,
2IFCnew,51,0,51,0,-1,2,Yes,3.8,-1,False Alarm,0.266833600122,False,True,stimulusWOAN27_2IFCnew_2019_Jun_13_1252_403,stimulusWOAN27_2IFCnew_2019_Jun_13_1252_404,False,2019_Jun_13_1252,2IFCnew,3,WOAN27,
2IFCnew,52,0,52,0,-1,3,Yes,3.8,-1,Correct Rejection,0.235135299852,False,True,stimulusWOAN27_2IFCnew_2019_Jun_13_1252_405,stimulusWOAN27_2IFCnew_2019_Jun_13_1252_406,False,2019_Jun_13_1252,2IFCnew,3,WOAN27,
2IFCnew,53,0,53,0,0.266883699922,2,Yes,3.8,-1,Correct Rejection,0.766733599827,False,True,stimulusWOAN27_2IFCnew_2019_Jun_13_1252_407,stimulusWOAN27_2IFCnew_2019_Jun_13_1252_408,False,2019_Jun_13_1252,2IFCnew,3,WOAN27,
2IFCnew,54,0,54,0,0.200108899968,4,Yes,3.8,-1,Miss,0.734317600029,True,False,stimulusWOAN27_2IFCnew_2019_Jun_13_1252_409,stimulusWOAN27_2IFCnew_2019_Jun_13_1252_410,False,2019_Jun_13_1252,2IFCnew,3,WOAN27,
2IFCnew,55,0,55,0,-1,1,Yes,3.8,-1,Hit,0.268287400017,True,False,stimulusWOAN27_2IFCnew_2019_Jun_13_1252_411,stimulusWOAN27_2IFCnew_2019_Jun_13_1252_412,False,2019_Jun_13_1252,2IFCnew,3,WOAN27,
2IFCnew,56,0,56,0,0.200523699867,1,No,3.8,-1,Hit,0.602879100014,True,False,stimulusWOAN27_2IFCnew_2019_Jun_13_1252_413,stimulusWOAN27_2IFCnew_2019_Jun_13_1252_414,False,2019_Jun_13_1252,2IFCnew,3,WOAN27,
2IFCnew,57,0,57,0,0.167606699979,2,Yes,3.8,-1,Correct Rejection,0.63396040001,False,True,stimulusWOAN27_2IFCnew_2019_Jun_13_1252_415,stimulusWOAN27_2IFCnew_2019_Jun_13_1252_416,False,2019_Jun_13_1252,2IFCnew,3,WOAN27,
2IFCnew,58,0,58,0,0.133536099922,4,Yes,3.8,-1,Miss,0.601002299925,True,False,stimulusWOAN27_2IFCnew_2019_Jun_13_1252_417,stimulusWOAN27_2IFCnew_2019_Jun_13_1252_418,False,2019_Jun_13_1252,2IFCnew,3,WOAN27,
2IFCnew,59,0,59,0,-1,1,Yes,3.8,-1,Hit,0.300518699922,True,False,stimulusWOAN27_2IFCnew_2019_Jun_13_1252_419,stimulusWOAN27_2IFCnew_2019_Jun_13_1252_420,False,2019_Jun_13_1252,2IFCnew,3,WOAN27,
2IFCnew,60,0,60,0,0.200372100109,1,No,3.8,-1,Hit,0.667414299911,True,False,stimulusWOAN27_2IFCnew_2019_Jun_13_1252_421,stimulusWOAN27_2IFCnew_2019_Jun_13_1252_422,False,2019_Jun_13_1252,2IFCnew,3,WOAN27,
2IFCnew,61,0,61,0,0.167054499965,1,No,3.8,-1,Hit,0.600709999911,True,False,stimulusWOAN27_2IFCnew_2019_Jun_13_1252_423,stimulusWOAN27_2IFCnew_2019_Jun_13_1252_424,False,2019_Jun_13_1252,2IFCnew,3,WOAN27,
2IFCnew,62,0,62,0,0.101497899974,1,No,3.8,-1,Hit,0.502443600213,True,False,stimulusWOAN27_2IFCnew_2019_Jun_13_1252_425,stimulusWOAN27_2IFCnew_2019_Jun_13_1252_426,False,2019_Jun_13_1252,2IFCnew,3,WOAN27,
2IFCnew,63,0,63,0,0.100616700016,1,No,3.8,-1,Hit,0.462644699961,True,False,stimulusWOAN27_2IFCnew_2019_Jun_13_1252_427,stimulusWOAN27_2IFCnew_2019_Jun_13_1252_428,False,2019_Jun_13_1252,2IFCnew,3,WOAN27,
2IFCnew,64,0,64,0,0.0666436001193,3,No,3.8,-1,False Alarm,0.467119500041,False,True,stimulusWOAN27_2IFCnew_2019_Jun_13_1252_429,stimulusWOAN27_2IFCnew_2019_Jun_13_1252_430,False,2019_Jun_13_1252,2IFCnew,3,WOAN27,
2IFCnew,65,0,65,0,-1,3,No,3.8,-1,Correct Rejection,0.300477999961,False,True,stimulusWOAN27_2IFCnew_2019_Jun_13_1252_431,stimulusWOAN27_2IFCnew_2019_Jun_13_1252_432,False,2019_Jun_13_1252,2IFCnew,3,WOAN27,
2IFCnew,66,0,66,0,0.267047100002,3,No,3.8,-1,False Alarm,0.800764500163,False,True,stimulusWOAN27_2IFCnew_2019_Jun_13_1252_433,stimulusWOAN27_2IFCnew_2019_Jun_13_1252_434,False,2019_Jun_13_1252,2IFCnew,3,WOAN27,
2IFCnew,67,0,67,0,0.133722100174,4,Yes,3.8,-1,Miss,0.498924199957,True,False,stimulusWOAN27_2IFCnew_2019_Jun_13_1252_435,stimulusWOAN27_2IFCnew_2019_Jun_13_1252_436,False,2019_Jun_13_1252,2IFCnew,3,WOAN27,
2IFCnew,68,0,68,0,0.168236199999,6,No,3.8,-1,Miss,0.39908959996,True,False,stimulusWOAN27_2IFCnew_2019_Jun_13_1252_437,stimulusWOAN27_2IFCnew_2019_Jun_13_1252_438,False,2019_Jun_13_1252,2IFCnew,3,WOAN27,
2IFCnew,69,0,69,0,0.0333402000833,3,No,3.8,-1,False Alarm,0.502366200089,False,True,stimulusWOAN27_2IFCnew_2019_Jun_13_1252_439,stimulusWOAN27_2IFCnew_2019_Jun_13_1252_440,False,2019_Jun_13_1252,2IFCnew,3,WOAN27,
2IFCnew,70,0,70,0,0.200596099952,4,Yes,3.8,-1,Miss,0.333067799918,True,False,stimulusWOAN27_2IFCnew_2019_Jun_13_1252_441,stimulusWOAN27_2IFCnew_2019_Jun_13_1252_442,False,2019_Jun_13_1252,2IFCnew,3,WOAN27,
2IFCnew,71,0,71,0,0.131784200203,8,No,3.8,-1,Correct Rejection,0.468679499812,False,True,stimulusWOAN27_2IFCnew_2019_Jun_13_1252_443,stimulusWOAN27_2IFCnew_2019_Jun_13_1252_444,False,2019_Jun_13_1252,2IFCnew,3,WOAN27,
2IFCnew,72,0,72,0,0.233323900029,6,No,3.8,-1,Miss,0.533823300153,True,False,stimulusWOAN27_2IFCnew_2019_Jun_13_1252_445,stimulusWOAN27_2IFCnew_2019_Jun_13_1252_446,False,2019_Jun_13_1252,2IFCnew,3,WOAN27,
2IFCnew,73,0,73,0,0.266597100068,4,Yes,3.8,-1,Miss,0.634012599941,True,False,stimulusWOAN27_2IFCnew_2019_Jun_13_1252_447,stimulusWOAN27_2IFCnew_2019_Jun_13_1252_448,False,2019_Jun_13_1252,2IFCnew,3,WOAN27,
2IFCnew,74,0,74,0,0.167722000042,1,No,3.8,-1,Hit,0.767714799847,True,False,stimulusWOAN27_2IFCnew_2019_Jun_13_1252_449,stimulusWOAN27_2IFCnew_2019_Jun_13_1252_450,False,2019_Jun_13_1252,2IFCnew,3,WOAN27,
2IFCnew,0,0,0,0,0.300384999951,6,No,10.7,-1,Miss,0.566462500021,True,False,stimulusWOAN27_2IFCnew_2019_Jun_13_1252_451,stimulusWOAN27_2IFCnew_2019_Jun_13_1252_452,False,2019_Jun_13_1252,2IFCnew,3,WOAN27,
2IFCnew,1,0,1,0,0.100217599887,1,No,10.7,-1,Hit,0.400597299915,True,False,stimulusWOAN27_2IFCnew_2019_Jun_13_1252_453,stimulusWOAN27_2IFCnew_2019_Jun_13_1252_454,False,2019_Jun_13_1252,2IFCnew,3,WOAN27,
2IFCnew,2,0,2,0,0.0672303999308,2,Yes,10.7,-1,Correct Rejection,0.567377500003,False,True,stimulusWOAN27_2IFCnew_2019_Jun_13_1252_455,stimulusWOAN27_2IFCnew_2019_Jun_13_1252_456,False,2019_Jun_13_1252,2IFCnew,3,WOAN27,
2IFCnew,3,0,3,0,0.132474200102,2,Yes,10.7,-1,Correct Rejection,0.634191199904,False,True,stimulusWOAN27_2IFCnew_2019_Jun_13_1252_457,stimulusWOAN27_2IFCnew_2019_Jun_13_1252_458,False,2019_Jun_13_1252,2IFCnew,3,WOAN27,
2IFCnew,4,0,4,0,0.100183699979,1,No,10.7,-1,Hit,0.532162099844,True,False,stimulusWOAN27_2IFCnew_2019_Jun_13_1252_459,stimulusWOAN27_2IFCnew_2019_Jun_13_1252_460,False,2019_Jun_13_1252,2IFCnew,3,WOAN27,
2IFCnew,5,0,5,0,0.13231929997,2,Yes,10.7,-1,Correct Rejection,0.468190999934,False,True,stimulusWOAN27_2IFCnew_2019_Jun_13_1252_461,stimulusWOAN27_2IFCnew_2019_Jun_13_1252_462,False,2019_Jun_13_1252,2IFCnew,3,WOAN27,
2IFCnew,6,0,6,0,0.100986300036,2,Yes,10.7,-1,Correct Rejection,0.566824200097,False,True,stimulusWOAN27_2IFCnew_2019_Jun_13_1252_463,stimulusWOAN27_2IFCnew_2019_Jun_13_1252_464,False,2019_Jun_13_1252,2IFCnew,3,WOAN27,
2IFCnew,7,0,7,0,0.132951300126,1,No,10.7,-1,Hit,0.499977899948,True,False,stimulusWOAN27_2IFCnew_2019_Jun_13_1252_465,stimulusWOAN27_2IFCnew_2019_Jun_13_1252_466,False,2019_Jun_13_1252,2IFCnew,3,WOAN27,
2IFCnew,8,0,8,0,0.133852700004,1,No,10.7,-1,Hit,0.532961599994,True,False,stimulusWOAN27_2IFCnew_2019_Jun_13_1252_467,stimulusWOAN27_2IFCnew_2019_Jun_13_1252_468,False,2019_Jun_13_1252,2IFCnew,3,WOAN27,
2IFCnew,9,0,9,0,-1,3,No,10.7,-1,Correct Rejection,0.500297899824,False,True,stimulusWOAN27_2IFCnew_2019_Jun_13_1252_469,stimulusWOAN27_2IFCnew_2019_Jun_13_1252_470,False,2019_Jun_13_1252,2IFCnew,3,WOAN27,
2IFCnew,10,0,10,0,0.233792700106,2,Yes,10.7,-1,Correct Rejection,0.53461480001,False,True,stimulusWOAN27_2IFCnew_2019_Jun_13_1252_471,stimulusWOAN27_2IFCnew_2019_Jun_13_1252_472,False,2019_Jun_13_1252,2IFCnew,3,WOAN27,
2IFCnew,11,0,11,0,0.0671467999928,2,Yes,10.7,-1,Correct Rejection,0.568562499946,False,True,stimulusWOAN27_2IFCnew_2019_Jun_13_1252_473,stimulusWOAN27_2IFCnew_2019_Jun_13_1252_474,False,2019_Jun_13_1252,2IFCnew,3,WOAN27,
2IFCnew,12,0,12,0,0.300291500054,2,Yes,10.7,-1,Correct Rejection,0.601053199964,False,True,stimulusWOAN27_2IFCnew_2019_Jun_13_1252_475,stimulusWOAN27_2IFCnew_2019_Jun_13_1252_476,False,2019_Jun_13_1252,2IFCnew,3,WOAN27,
2IFCnew,13,0,13,0,0.0358682000078,2,Yes,10.7,-1,Correct Rejection,0.534002099885,False,True,stimulusWOAN27_2IFCnew_2019_Jun_13_1252_477,stimulusWOAN27_2IFCnew_2019_Jun_13_1252_478,False,2019_Jun_13_1252,2IFCnew,3,WOAN27,
2IFCnew,14,0,14,0,0.366972499993,8,No,10.7,-1,Correct Rejection,0.666428899858,False,True,stimulusWOAN27_2IFCnew_2019_Jun_13_1252_479,stimulusWOAN27_2IFCnew_2019_Jun_13_1252_480,False,2019_Jun_13_1252,2IFCnew,3,WOAN27,
2IFCnew,15,0,15,0,0.46740059997,6,No,10.7,-1,Miss,0.600171400001,True,False,stimulusWOAN27_2IFCnew_2019_Jun_13_1252_481,stimulusWOAN27_2IFCnew_2019_Jun_13_1252_482,False,2019_Jun_13_1252,2IFCnew,3,WOAN27,
2IFCnew,16,0,16,0,0.06787860021,2,Yes,10.7,-1,Correct Rejection,0.56903750007,False,True,stimulusWOAN27_2IFCnew_2019_Jun_13_1252_483,stimulusWOAN27_2IFCnew_2019_Jun_13_1252_484,False,2019_Jun_13_1252,2IFCnew,3,WOAN27,
2IFCnew,17,0,17,0,0.132049400127,2,Yes,10.7,-1,Correct Rejection,0.50107629993,False,True,stimulusWOAN27_2IFCnew_2019_Jun_13_1252_485,stimulusWOAN27_2IFCnew_2019_Jun_13_1252_486,False,2019_Jun_13_1252,2IFCnew,3,WOAN27,
2IFCnew,18,0,18,0,0.233798300149,3,No,10.7,-1,False Alarm,0.533782999963,False,True,stimulusWOAN27_2IFCnew_2019_Jun_13_1252_487,stimulusWOAN27_2IFCnew_2019_Jun_13_1252_488,False,2019_Jun_13_1252,2IFCnew,3,WOAN27,
2IFCnew,19,0,19,0,0.300655900035,6,No,10.7,-1,Miss,0.635560699971,True,False,stimulusWOAN27_2IFCnew_2019_Jun_13_1252_489,stimulusWOAN27_2IFCnew_2019_Jun_13_1252_490,False,2019_Jun_13_1252,2IFCnew,3,WOAN27,
2IFCnew,20,0,20,0,0.0336884001736,2,Yes,10.7,-1,Correct Rejection,0.502622799948,False,True,stimulusWOAN27_2IFCnew_2019_Jun_13_1252_491,stimulusWOAN27_2IFCnew_2019_Jun_13_1252_492,False,2019_Jun_13_1252,2IFCnew,3,WOAN27,
2IFCnew,21,0,21,0,0.133609700017,1,No,10.7,-1,Hit,0.633484299993,True,False,stimulusWOAN27_2IFCnew_2019_Jun_13_1252_493,stimulusWOAN27_2IFCnew_2019_Jun_13_1252_494,False,2019_Jun_13_1252,2IFCnew,3,WOAN27,
2IFCnew,22,0,22,0,0.0673225000501,2,Yes,10.7,-1,Correct Rejection,0.600637000054,False,True,stimulusWOAN27_2IFCnew_2019_Jun_13_1252_495,stimulusWOAN27_2IFCnew_2019_Jun_13_1252_496,False,2019_Jun_13_1252,2IFCnew,3,WOAN27,
2IFCnew,23,0,23,0,0.0675248000771,2,Yes,10.7,-1,Correct Rejection,0.603668200085,False,True,stimulusWOAN27_2IFCnew_2019_Jun_13_1252_497,stimulusWOAN27_2IFCnew_2019_Jun_13_1252_498,False,2019_Jun_13_1252,2IFCnew,3,WOAN27,
2IFCnew,24,0,24,0,0.0668417001143,1,No,10.7,-1,Hit,0.567170999944,True,False,stimulusWOAN27_2IFCnew_2019_Jun_13_1252_499,stimulusWOAN27_2IFCnew_2019_Jun_13_1252_500,False,2019_Jun_13_1252,2IFCnew,3,WOAN27,
2IFCnew,25,0,25,0,0.333982900018,6,No,10.7,-1,Miss,0.468792499974,True,False,stimulusWOAN27_2IFCnew_2019_Jun_13_1252_501,stimulusWOAN27_2IFCnew_2019_Jun_13_1252_502,False,2019_Jun_13_1252,2IFCnew,3,WOAN27,
2IFCnew,26,0,26,0,0.133638800122,1,No,10.7,-1,Hit,0.400764900027,True,False,stimulusWOAN27_2IFCnew_2019_Jun_13_1252_503,stimulusWOAN27_2IFCnew_2019_Jun_13_1252_504,False,2019_Jun_13_1252,2IFCnew,3,WOAN27,
2IFCnew,27,0,27,0,0.166931200074,1,No,10.7,-1,Hit,0.43409590004,True,False,stimulusWOAN27_2IFCnew_2019_Jun_13_1252_505,stimulusWOAN27_2IFCnew_2019_Jun_13_1252_506,False,2019_Jun_13_1252,2IFCnew,3,WOAN27,
2IFCnew,28,0,28,0,0.0713869000319,2,Yes,10.7,-1,Correct Rejection,0.501117700012,False,True,stimulusWOAN27_2IFCnew_2019_Jun_13_1252_507,stimulusWOAN27_2IFCnew_2019_Jun_13_1252_508,False,2019_Jun_13_1252,2IFCnew,3,WOAN27,
2IFCnew,29,0,29,0,0.132798000006,1,No,10.7,-1,Hit,0.567550200038,True,False,stimulusWOAN27_2IFCnew_2019_Jun_13_1252_509,stimulusWOAN27_2IFCnew_2019_Jun_13_1252_510,False,2019_Jun_13_1252,2IFCnew,3,WOAN27,
2IFCnew,30,0,30,0,0.0334695000201,2,Yes,10.7,-1,Correct Rejection,0.532648499822,False,True,stimulusWOAN27_2IFCnew_2019_Jun_13_1252_511,stimulusWOAN27_2IFCnew_2019_Jun_13_1252_512,False,2019_Jun_13_1252,2IFCnew,3,WOAN27,
2IFCnew,31,0,31,0,0.167032200145,1,No,10.7,-1,Hit,0.533976399805,True,False,stimulusWOAN27_2IFCnew_2019_Jun_13_1252_513,stimulusWOAN27_2IFCnew_2019_Jun_13_1252_514,False,2019_Jun_13_1252,2IFCnew,3,WOAN27,
2IFCnew,32,0,32,0,0.100292300107,2,Yes,10.7,-1,Correct Rejection,0.536548800068,False,True,stimulusWOAN27_2IFCnew_2019_Jun_13_1252_515,stimulusWOAN27_2IFCnew_2019_Jun_13_1252_516,False,2019_Jun_13_1252,2IFCnew,3,WOAN27,
2IFCnew,33,0,33,0,0.0331959999166,6,No,10.7,-1,Miss,0.635503900005,True,False,stimulusWOAN27_2IFCnew_2019_Jun_13_1252_517,stimulusWOAN27_2IFCnew_2019_Jun_13_1252_518,False,2019_Jun_13_1252,2IFCnew,3,WOAN27,
2IFCnew,34,0,34,0,0.16731849988,2,Yes,10.7,-1,Correct Rejection,0.534039800055,False,True,stimulusWOAN27_2IFCnew_2019_Jun_13_1252_519,stimulusWOAN27_2IFCnew_2019_Jun_13_1252_520,False,2019_Jun_13_1252,2IFCnew,3,WOAN27,
2IFCnew,35,0,35,0,0.0665210001171,1,No,10.7,-1,Hit,0.401544100139,True,False,stimulusWOAN27_2IFCnew_2019_Jun_13_1252_521,stimulusWOAN27_2IFCnew_2019_Jun_13_1252_522,False,2019_Jun_13_1252,2IFCnew,3,WOAN27,
2IFCnew,36,0,36,0,0.0669402000494,1,No,10.7,-1,Hit,0.432336200029,True,False,stimulusWOAN27_2IFCnew_2019_Jun_13_1252_523,stimulusWOAN27_2IFCnew_2019_Jun_13_1252_524,False,2019_Jun_13_1252,2IFCnew,3,WOAN27,
2IFCnew,37,0,37,0,0.06777279987,2,Yes,10.7,-1,Correct Rejection,0.501989600016,False,True,stimulusWOAN27_2IFCnew_2019_Jun_13_1252_525,stimulusWOAN27_2IFCnew_2019_Jun_13_1252_526,False,2019_Jun_13_1252,2IFCnew,3,WOAN27,
2IFCnew,38,0,38,0,0.233884100104,2,Yes,10.7,-1,Correct Rejection,0.50155330007,False,True,stimulusWOAN27_2IFCnew_2019_Jun_13_1252_527,stimulusWOAN27_2IFCnew_2019_Jun_13_1252_528,False,2019_Jun_13_1252,2IFCnew,3,WOAN27,
2IFCnew,39,0,39,0,0.233596900012,1,No,10.7,-1,Hit,0.76766669983,True,False,stimulusWOAN27_2IFCnew_2019_Jun_13_1252_529,stimulusWOAN27_2IFCnew_2019_Jun_13_1252_530,False,2019_Jun_13_1252,2IFCnew,3,WOAN27,
2IFCnew,40,0,40,0,0.136674100067,1,No,10.7,-1,Hit,0.535689699929,True,False,stimulusWOAN27_2IFCnew_2019_Jun_13_1252_531,stimulusWOAN27_2IFCnew_2019_Jun_13_1252_532,False,2019_Jun_13_1252,2IFCnew,3,WOAN27,
2IFCnew,41,0,41,0,0.266980699962,1,No,10.7,-1,Hit,0.53428849997,True,False,stimulusWOAN27_2IFCnew_2019_Jun_13_1252_533,stimulusWOAN27_2IFCnew_2019_Jun_13_1252_534,False,2019_Jun_13_1252,2IFCnew,3,WOAN27,
2IFCnew,42,0,42,0,-1,1,No,10.7,-1,Hit,0.43533249991,True,False,stimulusWOAN27_2IFCnew_2019_Jun_13_1252_535,stimulusWOAN27_2IFCnew_2019_Jun_13_1252_536,False,2019_Jun_13_1252,2IFCnew,3,WOAN27,
2IFCnew,43,0,43,0,0.0997249998618,2,Yes,10.7,-1,Correct Rejection,0.502013599966,False,True,stimulusWOAN27_2IFCnew_2019_Jun_13_1252_537,stimulusWOAN27_2IFCnew_2019_Jun_13_1252_538,False,2019_Jun_13_1252,2IFCnew,3,WOAN27,
2IFCnew,44,0,44,0,0.333629600005,1,No,10.7,-1,Hit,0.499977699947,True,False,stimulusWOAN27_2IFCnew_2019_Jun_13_1252_539,stimulusWOAN27_2IFCnew_2019_Jun_13_1252_540,False,2019_Jun_13_1252,2IFCnew,3,WOAN27,
2IFCnew,45,0,45,0,-1,3,No,10.7,-1,Correct Rejection,0.46673059999,False,True,stimulusWOAN27_2IFCnew_2019_Jun_13_1252_541,stimulusWOAN27_2IFCnew_2019_Jun_13_1252_542,False,2019_Jun_13_1252,2IFCnew,3,WOAN27,
2IFCnew,46,0,46,0,0.133709499845,2,Yes,10.7,-1,Correct Rejection,0.501619699877,False,True,stimulusWOAN27_2IFCnew_2019_Jun_13_1252_543,stimulusWOAN27_2IFCnew_2019_Jun_13_1252_544,False,2019_Jun_13_1252,2IFCnew,3,WOAN27,
2IFCnew,47,0,47,0,0.0672075999901,2,Yes,10.7,-1,Correct Rejection,0.534905100008,False,True,stimulusWOAN27_2IFCnew_2019_Jun_13_1252_545,stimulusWOAN27_2IFCnew_2019_Jun_13_1252_546,False,2019_Jun_13_1252,2IFCnew,3,WOAN27,
2IFCnew,48,0,48,0,-1,3,Yes,10.7,-1,Correct Rejection,0.502025900176,False,True,stimulusWOAN27_2IFCnew_2019_Jun_13_1252_547,stimulusWOAN27_2IFCnew_2019_Jun_13_1252_548,False,2019_Jun_13_1252,2IFCnew,3,WOAN27,
2IFCnew,49,0,49,0,0.135704899905,2,Yes,10.7,-1,Correct Rejection,0.600710999919,False,True,stimulusWOAN27_2IFCnew_2019_Jun_13_1252_549,stimulusWOAN27_2IFCnew_2019_Jun_13_1252_550,False,2019_Jun_13_1252,2IFCnew,3,WOAN27,
2IFCnew,50,0,50,0,0.100268699927,1,No,10.7,-1,Hit,0.600259599974,True,False,stimulusWOAN27_2IFCnew_2019_Jun_13_1252_551,stimulusWOAN27_2IFCnew_2019_Jun_13_1252_552,False,2019_Jun_13_1252,2IFCnew,3,WOAN27,
2IFCnew,51,0,51,0,0.599509199848,1,No,10.7,-1,Hit,0.667485499987,True,False,stimulusWOAN27_2IFCnew_2019_Jun_13_1252_553,stimulusWOAN27_2IFCnew_2019_Jun_13_1252_554,False,2019_Jun_13_1252,2IFCnew,3,WOAN27,
2IFCnew,52,0,52,0,-1,3,No,10.7,-1,Correct Rejection,0.499543000013,False,True,stimulusWOAN27_2IFCnew_2019_Jun_13_1252_555,stimulusWOAN27_2IFCnew_2019_Jun_13_1252_556,False,2019_Jun_13_1252,2IFCnew,3,WOAN27,
2IFCnew,53,0,53,0,-1,3,No,10.7,-1,Correct Rejection,0.734401399968,False,True,stimulusWOAN27_2IFCnew_2019_Jun_13_1252_557,stimulusWOAN27_2IFCnew_2019_Jun_13_1252_558,False,2019_Jun_13_1252,2IFCnew,3,WOAN27,
2IFCnew,54,0,54,0,-1,1,No,10.7,-1,Hit,0.634205800015,True,False,stimulusWOAN27_2IFCnew_2019_Jun_13_1252_559,stimulusWOAN27_2IFCnew_2019_Jun_13_1252_560,False,2019_Jun_13_1252,2IFCnew,3,WOAN27,
2IFCnew,55,0,55,0,0.265620399965,2,Yes,10.7,-1,Correct Rejection,0.500731399981,False,True,stimulusWOAN27_2IFCnew_2019_Jun_13_1252_561,stimulusWOAN27_2IFCnew_2019_Jun_13_1252_562,False,2019_Jun_13_1252,2IFCnew,3,WOAN27,
2IFCnew,56,0,56,0,0.267765500117,2,Yes,10.7,-1,Correct Rejection,0.702316200128,False,True,stimulusWOAN27_2IFCnew_2019_Jun_13_1252_563,stimulusWOAN27_2IFCnew_2019_Jun_13_1252_564,False,2019_Jun_13_1252,2IFCnew,3,WOAN27,
2IFCnew,57,0,57,0,0.367121599847,2,Yes,10.7,-1,Correct Rejection,0.566719699884,False,True,stimulusWOAN27_2IFCnew_2019_Jun_13_1252_565,stimulusWOAN27_2IFCnew_2019_Jun_13_1252_566,False,2019_Jun_13_1252,2IFCnew,3,WOAN27,
2IFCnew,58,0,58,0,0.0672428000253,1,No,10.7,-1,Hit,0.434033599915,True,False,stimulusWOAN27_2IFCnew_2019_Jun_13_1252_567,stimulusWOAN27_2IFCnew_2019_Jun_13_1252_568,False,2019_Jun_13_1252,2IFCnew,3,WOAN27,
2IFCnew,59,0,59,0,0.134374700021,1,No,10.7,-1,Hit,0.534098899923,True,False,stimulusWOAN27_2IFCnew_2019_Jun_13_1252_569,stimulusWOAN27_2IFCnew_2019_Jun_13_1252_570,False,2019_Jun_13_1252,2IFCnew,3,WOAN27,
2IFCnew,60,0,60,0,0.800537999952,8,No,10.7,-1,Correct Rejection,0.765520400135,False,True,stimulusWOAN27_2IFCnew_2019_Jun_13_1252_571,stimulusWOAN27_2IFCnew_2019_Jun_13_1252_572,False,2019_Jun_13_1252,2IFCnew,3,WOAN27,
2IFCnew,61,0,61,0,0.100893900031,2,Yes,10.7,-1,Correct Rejection,0.533324799966,False,True,stimulusWOAN27_2IFCnew_2019_Jun_13_1252_573,stimulusWOAN27_2IFCnew_2019_Jun_13_1252_574,False,2019_Jun_13_1252,2IFCnew,3,WOAN27,
2IFCnew,62,0,62,0,0.201148899971,1,No,10.7,-1,Hit,0.367104599951,True,False,stimulusWOAN27_2IFCnew_2019_Jun_13_1252_575,stimulusWOAN27_2IFCnew_2019_Jun_13_1252_576,False,2019_Jun_13_1252,2IFCnew,3,WOAN27,
2IFCnew,63,0,63,0,-1,3,No,10.7,-1,Correct Rejection,0.499781500082,False,True,stimulusWOAN27_2IFCnew_2019_Jun_13_1252_577,stimulusWOAN27_2IFCnew_2019_Jun_13_1252_578,False,2019_Jun_13_1252,2IFCnew,3,WOAN27,
2IFCnew,64,0,64,0,0.0337185999379,1,No,10.7,-1,Hit,0.467333600158,True,False,stimulusWOAN27_2IFCnew_2019_Jun_13_1252_579,stimulusWOAN27_2IFCnew_2019_Jun_13_1252_580,False,2019_Jun_13_1252,2IFCnew,3,WOAN27,
2IFCnew,65,0,65,0,0.134538700106,1,No,10.7,-1,Hit,0.500230799895,True,False,stimulusWOAN27_2IFCnew_2019_Jun_13_1252_581,stimulusWOAN27_2IFCnew_2019_Jun_13_1252_582,False,2019_Jun_13_1252,2IFCnew,3,WOAN27,
2IFCnew,66,0,66,0,0.0671792000066,2,Yes,10.7,-1,Correct Rejection,0.534523299895,False,True,stimulusWOAN27_2IFCnew_2019_Jun_13_1252_583,stimulusWOAN27_2IFCnew_2019_Jun_13_1252_584,False,2019_Jun_13_1252,2IFCnew,3,WOAN27,
2IFCnew,67,0,67,0,0.0686869001947,2,Yes,10.7,-1,Correct Rejection,0.500736000016,False,True,stimulusWOAN27_2IFCnew_2019_Jun_13_1252_585,stimulusWOAN27_2IFCnew_2019_Jun_13_1252_586,False,2019_Jun_13_1252,2IFCnew,3,WOAN27,
2IFCnew,68,0,68,0,0.133586900076,1,No,10.7,-1,Hit,0.467477899976,True,False,stimulusWOAN27_2IFCnew_2019_Jun_13_1252_587,stimulusWOAN27_2IFCnew_2019_Jun_13_1252_588,False,2019_Jun_13_1252,2IFCnew,3,WOAN27,
2IFCnew,69,0,69,0,0.16672720015,2,Yes,10.7,-1,Correct Rejection,0.500754300039,False,True,stimulusWOAN27_2IFCnew_2019_Jun_13_1252_589,stimulusWOAN27_2IFCnew_2019_Jun_13_1252_590,False,2019_Jun_13_1252,2IFCnew,3,WOAN27,
2IFCnew,70,0,70,0,0.0991705998313,2,Yes,10.7,-1,Correct Rejection,0.567906500073,False,True,stimulusWOAN27_2IFCnew_2019_Jun_13_1252_591,stimulusWOAN27_2IFCnew_2019_Jun_13_1252_592,False,2019_Jun_13_1252,2IFCnew,3,WOAN27,
2IFCnew,71,0,71,0,0.100390400039,1,No,10.7,-1,Hit,0.432374499971,True,False,stimulusWOAN27_2IFCnew_2019_Jun_13_1252_593,stimulusWOAN27_2IFCnew_2019_Jun_13_1252_594,False,2019_Jun_13_1252,2IFCnew,3,WOAN27,
2IFCnew,72,0,72,0,0.0334910000674,2,Yes,10.7,-1,Correct Rejection,0.433958000038,False,True,stimulusWOAN27_2IFCnew_2019_Jun_13_1252_595,stimulusWOAN27_2IFCnew_2019_Jun_13_1252_596,False,2019_Jun_13_1252,2IFCnew,3,WOAN27,
2IFCnew,73,0,73,0,0.133397399914,1,No,10.7,-1,Hit,0.500659000129,True,False,stimulusWOAN27_2IFCnew_2019_Jun_13_1252_597,stimulusWOAN27_2IFCnew_2019_Jun_13_1252_598,False,2019_Jun_13_1252,2IFCnew,3,WOAN27,
2IFCnew,74,0,74,0,0.134390000021,2,Yes,10.7,-1,Correct Rejection,0.532340599922,False,True,stimulusWOAN27_2IFCnew_2019_Jun_13_1252_599,stimulusWOAN27_2IFCnew_2019_Jun_13_1252_600,False,2019_Jun_13_1252,2IFCnew,3,WOAN27,
2IFCnew,0,0,0,0,0.400504699908,6,No,5.8,-1,Miss,0.667023999849,True,False,stimulusWOAN27_2IFCnew_2019_Jun_13_1252_601,stimulusWOAN27_2IFCnew_2019_Jun_13_1252_602,False,2019_Jun_13_1252,2IFCnew,3,WOAN27,
2IFCnew,1,0,1,0,-1,3,No,5.8,-1,Correct Rejection,0.467240200145,False,True,stimulusWOAN27_2IFCnew_2019_Jun_13_1252_603,stimulusWOAN27_2IFCnew_2019_Jun_13_1252_604,False,2019_Jun_13_1252,2IFCnew,3,WOAN27,
2IFCnew,2,0,2,0,0.266336099943,2,Yes,5.8,-1,Correct Rejection,0.734134600032,False,True,stimulusWOAN27_2IFCnew_2019_Jun_13_1252_605,stimulusWOAN27_2IFCnew_2019_Jun_13_1252_606,False,2019_Jun_13_1252,2IFCnew,3,WOAN27,
2IFCnew,3,0,3,0,0.334124499932,8,No,5.8,-1,Correct Rejection,0.767355499789,False,True,stimulusWOAN27_2IFCnew_2019_Jun_13_1252_607,stimulusWOAN27_2IFCnew_2019_Jun_13_1252_608,False,2019_Jun_13_1252,2IFCnew,3,WOAN27,
2IFCnew,4,0,4,0,-1,3,No,5.8,-1,Correct Rejection,0.434015400009,False,True,stimulusWOAN27_2IFCnew_2019_Jun_13_1252_609,stimulusWOAN27_2IFCnew_2019_Jun_13_1252_610,False,2019_Jun_13_1252,2IFCnew,3,WOAN27,
2IFCnew,5,0,5,0,0.134814599995,1,No,5.8,-1,Hit,0.530137100024,True,False,stimulusWOAN27_2IFCnew_2019_Jun_13_1252_611,stimulusWOAN27_2IFCnew_2019_Jun_13_1252_612,False,2019_Jun_13_1252,2IFCnew,3,WOAN27,
2IFCnew,6,0,6,0,0.167138499906,1,No,5.8,-1,Hit,0.66700139991,True,False,stimulusWOAN27_2IFCnew_2019_Jun_13_1252_613,stimulusWOAN27_2IFCnew_2019_Jun_13_1252_614,False,2019_Jun_13_1252,2IFCnew,3,WOAN27,
2IFCnew,7,0,7,0,-1,3,No,5.8,-1,Correct Rejection,0.467258900171,False,True,stimulusWOAN27_2IFCnew_2019_Jun_13_1252_615,stimulusWOAN27_2IFCnew_2019_Jun_13_1252_616,False,2019_Jun_13_1252,2IFCnew,3,WOAN27,
2IFCnew,8,0,8,0,0.133314499864,2,Yes,5.8,-1,Correct Rejection,0.500506399898,False,True,stimulusWOAN27_2IFCnew_2019_Jun_13_1252_617,stimulusWOAN27_2IFCnew_2019_Jun_13_1252_618,False,2019_Jun_13_1252,2IFCnew,3,WOAN27,
2IFCnew,9,0,9,0,0.133704799926,4,Yes,5.8,-1,Miss,0.667388400063,True,False,stimulusWOAN27_2IFCnew_2019_Jun_13_1252_619,stimulusWOAN27_2IFCnew_2019_Jun_13_1252_620,False,2019_Jun_13_1252,2IFCnew,3,WOAN27,
2IFCnew,10,0,10,0,0.0681209999602,2,Yes,5.8,-1,Correct Rejection,0.56725959992,False,True,stimulusWOAN27_2IFCnew_2019_Jun_13_1252_621,stimulusWOAN27_2IFCnew_2019_Jun_13_1252_622,False,2019_Jun_13_1252,2IFCnew,3,WOAN27,
2IFCnew,11,0,11,0,0.134761399822,2,Yes,5.8,-1,Correct Rejection,0.666672999971,False,True,stimulusWOAN27_2IFCnew_2019_Jun_13_1252_623,stimulusWOAN27_2IFCnew_2019_Jun_13_1252_624,False,2019_Jun_13_1252,2IFCnew,3,WOAN27,
2IFCnew,12,0,12,0,0.26688260003,2,Yes,5.8,-1,Correct Rejection,0.769059899962,False,True,stimulusWOAN27_2IFCnew_2019_Jun_13_1252_625,stimulusWOAN27_2IFCnew_2019_Jun_13_1252_626,False,2019_Jun_13_1252,2IFCnew,3,WOAN27,
2IFCnew,13,0,13,0,0.333249299787,1,No,5.8,-1,Hit,0.90112480009,True,False,stimulusWOAN27_2IFCnew_2019_Jun_13_1252_627,stimulusWOAN27_2IFCnew_2019_Jun_13_1252_628,False,2019_Jun_13_1252,2IFCnew,3,WOAN27,
2IFCnew,14,0,14,0,0.0998756000772,3,No,5.8,-1,False Alarm,0.634388500126,False,True,stimulusWOAN27_2IFCnew_2019_Jun_13_1252_629,stimulusWOAN27_2IFCnew_2019_Jun_13_1252_630,False,2019_Jun_13_1252,2IFCnew,3,WOAN27,
2IFCnew,15,0,15,0,-1,4,No,5.8,-1,Miss,0.434032300021,True,False,stimulusWOAN27_2IFCnew_2019_Jun_13_1252_631,stimulusWOAN27_2IFCnew_2019_Jun_13_1252_632,False,2019_Jun_13_1252,2IFCnew,3,WOAN27,
2IFCnew,16,0,16,0,0.232620300027,6,No,5.8,-1,Miss,0.567400899949,True,False,stimulusWOAN27_2IFCnew_2019_Jun_13_1252_633,stimulusWOAN27_2IFCnew_2019_Jun_13_1252_634,False,2019_Jun_13_1252,2IFCnew,3,WOAN27,
2IFCnew,17,0,17,0,0.766527900007,8,No,5.8,-1,Correct Rejection,0.500876900041,False,True,stimulusWOAN27_2IFCnew_2019_Jun_13_1252_635,stimulusWOAN27_2IFCnew_2019_Jun_13_1252_636,False,2019_Jun_13_1252,2IFCnew,3,WOAN27,
2IFCnew,18,0,18,0,0.466756599955,2,Yes,5.8,-1,Correct Rejection,0.602590200026,False,True,stimulusWOAN27_2IFCnew_2019_Jun_13_1252_637,stimulusWOAN27_2IFCnew_2019_Jun_13_1252_638,False,2019_Jun_13_1252,2IFCnew,3,WOAN27,
2IFCnew,19,0,19,0,0.267183599994,2,Yes,5.8,-1,Correct Rejection,0.533581000054,False,True,stimulusWOAN27_2IFCnew_2019_Jun_13_1252_639,stimulusWOAN27_2IFCnew_2019_Jun_13_1252_640,False,2019_Jun_13_1252,2IFCnew,3,WOAN27,
2IFCnew,20,0,20,0,0.0342232000548,1,No,5.8,-1,Hit,0.504978399957,True,False,stimulusWOAN27_2IFCnew_2019_Jun_13_1252_641,stimulusWOAN27_2IFCnew_2019_Jun_13_1252_642,False,2019_Jun_13_1252,2IFCnew,3,WOAN27,
2IFCnew,21,0,21,0,0.0670548998751,2,Yes,5.8,-1,Correct Rejection,0.500724799931,False,True,stimulusWOAN27_2IFCnew_2019_Jun_13_1252_643,stimulusWOAN27_2IFCnew_2019_Jun_13_1252_644,False,2019_Jun_13_1252,2IFCnew,3,WOAN27,
2IFCnew,22,0,22,0,0.267081899801,6,No,5.8,-1,Miss,0.467008699896,True,False,stimulusWOAN27_2IFCnew_2019_Jun_13_1252_645,stimulusWOAN27_2IFCnew_2019_Jun_13_1252_646,False,2019_Jun_13_1252,2IFCnew,3,WOAN27,
2IFCnew,23,0,23,0,0.0996083999053,2,Yes,5.8,-1,Correct Rejection,0.567043500021,False,True,stimulusWOAN27_2IFCnew_2019_Jun_13_1252_647,stimulusWOAN27_2IFCnew_2019_Jun_13_1252_648,False,2019_Jun_13_1252,2IFCnew,3,WOAN27,
2IFCnew,24,0,24,0,0.200431700097,1,No,5.8,-1,Hit,0.701133399969,True,False,stimulusWOAN27_2IFCnew_2019_Jun_13_1252_649,stimulusWOAN27_2IFCnew_2019_Jun_13_1252_650,False,2019_Jun_13_1252,2IFCnew,3,WOAN27,
2IFCnew,25,0,25,0,-1,3,No,5.8,-1,Correct Rejection,0.502113500144,False,True,stimulusWOAN27_2IFCnew_2019_Jun_13_1252_651,stimulusWOAN27_2IFCnew_2019_Jun_13_1252_652,False,2019_Jun_13_1252,2IFCnew,3,WOAN27,
2IFCnew,26,0,26,0,0.199762899894,1,No,5.8,-1,Hit,0.634507599985,True,False,stimulusWOAN27_2IFCnew_2019_Jun_13_1252_653,stimulusWOAN27_2IFCnew_2019_Jun_13_1252_654,False,2019_Jun_13_1252,2IFCnew,3,WOAN27,
2IFCnew,27,0,27,0,0.2004342,1,No,5.8,-1,Hit,0.701808499871,True,False,stimulusWOAN27_2IFCnew_2019_Jun_13_1252_655,stimulusWOAN27_2IFCnew_2019_Jun_13_1252_656,False,2019_Jun_13_1252,2IFCnew,3,WOAN27,
2IFCnew,28,0,28,0,0.201694200048,1,No,5.8,-1,Hit,0.534451799933,True,False,stimulusWOAN27_2IFCnew_2019_Jun_13_1252_657,stimulusWOAN27_2IFCnew_2019_Jun_13_1252_658,False,2019_Jun_13_1252,2IFCnew,3,WOAN27,
2IFCnew,29,0,29,0,0.133244300028,1,No,5.8,-1,Hit,0.535260099918,True,False,stimulusWOAN27_2IFCnew_2019_Jun_13_1252_659,stimulusWOAN27_2IFCnew_2019_Jun_13_1252_660,False,2019_Jun_13_1252,2IFCnew,3,WOAN27,
2IFCnew,30,0,30,0,0.100372799905,4,Yes,5.8,-1,Miss,0.534655400086,True,False,stimulusWOAN27_2IFCnew_2019_Jun_13_1252_661,stimulusWOAN27_2IFCnew_2019_Jun_13_1252_662,False,2019_Jun_13_1252,2IFCnew,3,WOAN27,
2IFCnew,31,0,31,0,0.0336595999543,1,No,5.8,-1,Hit,0.534169299994,True,False,stimulusWOAN27_2IFCnew_2019_Jun_13_1252_663,stimulusWOAN27_2IFCnew_2019_Jun_13_1252_664,False,2019_Jun_13_1252,2IFCnew,3,WOAN27,
2IFCnew,32,0,32,0,0.0362468999811,2,Yes,5.8,-1,Correct Rejection,0.533532999922,False,True,stimulusWOAN27_2IFCnew_2019_Jun_13_1252_665,stimulusWOAN27_2IFCnew_2019_Jun_13_1252_666,False,2019_Jun_13_1252,2IFCnew,3,WOAN27,
2IFCnew,33,0,33,0,0.0338993000332,4,Yes,5.8,-1,Miss,0.567075199913,True,False,stimulusWOAN27_2IFCnew_2019_Jun_13_1252_667,stimulusWOAN27_2IFCnew_2019_Jun_13_1252_668,False,2019_Jun_13_1252,2IFCnew,3,WOAN27,
2IFCnew,34,0,34,0,0.0682484998833,1,No,5.8,-1,Hit,0.401070799911,True,False,stimulusWOAN27_2IFCnew_2019_Jun_13_1252_669,stimulusWOAN27_2IFCnew_2019_Jun_13_1252_670,False,2019_Jun_13_1252,2IFCnew,3,WOAN27,
2IFCnew,35,0,35,0,0.167379199993,6,No,5.8,-1,Miss,0.565943599911,True,False,stimulusWOAN27_2IFCnew_2019_Jun_13_1252_671,stimulusWOAN27_2IFCnew_2019_Jun_13_1252_672,False,2019_Jun_13_1252,2IFCnew,3,WOAN27,
2IFCnew,36,0,36,0,0.134408300044,1,No,5.8,-1,Hit,0.533569699852,True,False,stimulusWOAN27_2IFCnew_2019_Jun_13_1252_673,stimulusWOAN27_2IFCnew_2019_Jun_13_1252_674,False,2019_Jun_13_1252,2IFCnew,3,WOAN27,
2IFCnew,37,0,37,0,0.233597799903,6,No,5.8,-1,Miss,0.567589299986,True,False,stimulusWOAN27_2IFCnew_2019_Jun_13_1252_675,stimulusWOAN27_2IFCnew_2019_Jun_13_1252_676,False,2019_Jun_13_1252,2IFCnew,3,WOAN27,
2IFCnew,38,0,38,0,0.0336567000486,3,No,5.8,-1,False Alarm,0.500740100164,False,True,stimulusWOAN27_2IFCnew_2019_Jun_13_1252_677,stimulusWOAN27_2IFCnew_2019_Jun_13_1252_678,False,2019_Jun_13_1252,2IFCnew,3,WOAN27,
2IFCnew,39,0,39,0,-1,3,No,5.8,-1,Correct Rejection,0.500227899989,False,True,stimulusWOAN27_2IFCnew_2019_Jun_13_1252_679,stimulusWOAN27_2IFCnew_2019_Jun_13_1252_680,False,2019_Jun_13_1252,2IFCnew,3,WOAN27,
2IFCnew,40,0,40,0,0.266938999994,2,Yes,5.8,-1,Correct Rejection,0.534801800037,False,True,stimulusWOAN27_2IFCnew_2019_Jun_13_1252_681,stimulusWOAN27_2IFCnew_2019_Jun_13_1252_682,False,2019_Jun_13_1252,2IFCnew,3,WOAN27,
2IFCnew,41,0,41,0,0.634168699849,8,No,5.8,-1,Correct Rejection,0.601081199944,False,True,stimulusWOAN27_2IFCnew_2019_Jun_13_1252_683,stimulusWOAN27_2IFCnew_2019_Jun_13_1252_684,False,2019_Jun_13_1252,2IFCnew,3,WOAN27,
2IFCnew,42,0,42,0,0.367410099832,2,Yes,5.8,-1,Correct Rejection,0.567128299968,False,True,stimulusWOAN27_2IFCnew_2019_Jun_13_1252_685,stimulusWOAN27_2IFCnew_2019_Jun_13_1252_686,False,2019_Jun_13_1252,2IFCnew,3,WOAN27,
2IFCnew,43,0,43,0,0.13332930021,1,No,5.8,-1,Hit,0.53530410002,True,False,stimulusWOAN27_2IFCnew_2019_Jun_13_1252_687,stimulusWOAN27_2IFCnew_2019_Jun_13_1252_688,False,2019_Jun_13_1252,2IFCnew,3,WOAN27,
2IFCnew,44,0,44,0,0.167996800039,1,No,5.8,-1,Hit,0.63523730007,True,False,stimulusWOAN27_2IFCnew_2019_Jun_13_1252_689,stimulusWOAN27_2IFCnew_2019_Jun_13_1252_690,False,2019_Jun_13_1252,2IFCnew,3,WOAN27,
2IFCnew,45,0,45,0,0.133319499902,2,Yes,5.8,-1,Correct Rejection,0.567509500077,False,True,stimulusWOAN27_2IFCnew_2019_Jun_13_1252_691,stimulusWOAN27_2IFCnew_2019_Jun_13_1252_692,False,2019_Jun_13_1252,2IFCnew,3,WOAN27,
2IFCnew,46,0,46,0,0.0318040999118,1,No,5.8,-1,Hit,0.500727399951,True,False,stimulusWOAN27_2IFCnew_2019_Jun_13_1252_693,stimulusWOAN27_2IFCnew_2019_Jun_13_1252_694,False,2019_Jun_13_1252,2IFCnew,3,WOAN27,
2IFCnew,47,0,47,0,0.100367600098,2,Yes,5.8,-1,Correct Rejection,0.500722300028,False,True,stimulusWOAN27_2IFCnew_2019_Jun_13_1252_695,stimulusWOAN27_2IFCnew_2019_Jun_13_1252_696,False,2019_Jun_13_1252,2IFCnew,3,WOAN27,
2IFCnew,48,0,48,0,0.233888699906,2,Yes,5.8,-1,Correct Rejection,0.76734780008,False,True,stimulusWOAN27_2IFCnew_2019_Jun_13_1252_697,stimulusWOAN27_2IFCnew_2019_Jun_13_1252_698,False,2019_Jun_13_1252,2IFCnew,3,WOAN27,
2IFCnew,49,0,49,0,0.102001099847,3,No,5.8,-1,False Alarm,0.534467399819,False,True,stimulusWOAN27_2IFCnew_2019_Jun_13_1252_699,stimulusWOAN27_2IFCnew_2019_Jun_13_1252_700,False,2019_Jun_13_1252,2IFCnew,3,WOAN27,
2IFCnew,50,0,50,0,-1,2,No,5.8,-1,False Alarm,0.500074099982,False,True,stimulusWOAN27_2IFCnew_2019_Jun_13_1252_701,stimulusWOAN27_2IFCnew_2019_Jun_13_1252_702,False,2019_Jun_13_1252,2IFCnew,3,WOAN27,
2IFCnew,51,0,51,0,-1,3,No,5.8,-1,Correct Rejection,0.434221999953,False,True,stimulusWOAN27_2IFCnew_2019_Jun_13_1252_703,stimulusWOAN27_2IFCnew_2019_Jun_13_1252_704,False,2019_Jun_13_1252,2IFCnew,3,WOAN27,
2IFCnew,52,0,52,0,0.200325100217,1,No,5.8,-1,Hit,0.567193099996,True,False,stimulusWOAN27_2IFCnew_2019_Jun_13_1252_705,stimulusWOAN27_2IFCnew_2019_Jun_13_1252_706,False,2019_Jun_13_1252,2IFCnew,3,WOAN27,
2IFCnew,53,0,53,0,0.0665541000199,2,Yes,5.8,-1,Correct Rejection,0.568126899889,False,True,stimulusWOAN27_2IFCnew_2019_Jun_13_1252_707,stimulusWOAN27_2IFCnew_2019_Jun_13_1252_708,False,2019_Jun_13_1252,2IFCnew,3,WOAN27,
2IFCnew,54,0,54,0,0.233801699942,6,No,5.8,-1,Miss,0.701069500064,True,False,stimulusWOAN27_2IFCnew_2019_Jun_13_1252_709,stimulusWOAN27_2IFCnew_2019_Jun_13_1252_710,False,2019_Jun_13_1252,2IFCnew,3,WOAN27,
2IFCnew,55,0,55,0,-1,3,No,5.8,-1,Correct Rejection,0.734114800114,False,True,stimulusWOAN27_2IFCnew_2019_Jun_13_1252_711,stimulusWOAN27_2IFCnew_2019_Jun_13_1252_712,False,2019_Jun_13_1252,2IFCnew,3,WOAN27,
2IFCnew,56,0,56,0,0.133749300148,1,No,5.8,-1,Hit,0.56609759992,True,False,stimulusWOAN27_2IFCnew_2019_Jun_13_1252_713,stimulusWOAN27_2IFCnew_2019_Jun_13_1252_714,False,2019_Jun_13_1252,2IFCnew,3,WOAN27,
2IFCnew,57,0,57,0,0.267640399979,8,No,5.8,-1,Correct Rejection,0.668714799918,False,True,stimulusWOAN27_2IFCnew_2019_Jun_13_1252_715,stimulusWOAN27_2IFCnew_2019_Jun_13_1252_716,False,2019_Jun_13_1252,2IFCnew,3,WOAN27,
2IFCnew,58,0,58,0,0.0664830999449,2,Yes,5.8,-1,Correct Rejection,0.534286799841,False,True,stimulusWOAN27_2IFCnew_2019_Jun_13_1252_717,stimulusWOAN27_2IFCnew_2019_Jun_13_1252_718,False,2019_Jun_13_1252,2IFCnew,3,WOAN27,
2IFCnew,59,0,59,0,0.100355000002,1,No,5.8,-1,Hit,0.532761499984,True,False,stimulusWOAN27_2IFCnew_2019_Jun_13_1252_719,stimulusWOAN27_2IFCnew_2019_Jun_13_1252_720,False,2019_Jun_13_1252,2IFCnew,3,WOAN27,
2IFCnew,60,0,60,0,0.0336420999374,2,Yes,5.8,-1,Correct Rejection,0.535636000102,False,True,stimulusWOAN27_2IFCnew_2019_Jun_13_1252_721,stimulusWOAN27_2IFCnew_2019_Jun_13_1252_722,False,2019_Jun_13_1252,2IFCnew,3,WOAN27,
2IFCnew,61,0,61,0,0.100214800099,2,Yes,5.8,-1,Correct Rejection,0.631084300112,False,True,stimulusWOAN27_2IFCnew_2019_Jun_13_1252_723,stimulusWOAN27_2IFCnew_2019_Jun_13_1252_724,False,2019_Jun_13_1252,2IFCnew,3,WOAN27,
2IFCnew,62,0,62,0,0.133700900013,1,No,5.8,-1,Hit,0.533522400074,True,False,stimulusWOAN27_2IFCnew_2019_Jun_13_1252_725,stimulusWOAN27_2IFCnew_2019_Jun_13_1252_726,False,2019_Jun_13_1252,2IFCnew,3,WOAN27,
2IFCnew,63,0,63,0,0.133828199934,1,No,5.8,-1,Hit,0.600857999874,True,False,stimulusWOAN27_2IFCnew_2019_Jun_13_1252_727,stimulusWOAN27_2IFCnew_2019_Jun_13_1252_728,False,2019_Jun_13_1252,2IFCnew,3,WOAN27,
2IFCnew,64,0,64,0,0.101389099844,1,No,5.8,-1,Hit,0.50058620004,True,False,stimulusWOAN27_2IFCnew_2019_Jun_13_1252_729,stimulusWOAN27_2IFCnew_2019_Jun_13_1252_730,False,2019_Jun_13_1252,2IFCnew,3,WOAN27,
2IFCnew,65,0,65,0,0.0665974000003,2,Yes,5.8,-1,Correct Rejection,0.534488500096,False,True,stimulusWOAN27_2IFCnew_2019_Jun_13_1252_731,stimulusWOAN27_2IFCnew_2019_Jun_13_1252_732,False,2019_Jun_13_1252,2IFCnew,3,WOAN27,
2IFCnew,66,0,66,0,0.0347430999391,1,No,5.8,-1,Hit,0.502194799948,True,False,stimulusWOAN27_2IFCnew_2019_Jun_13_1252_733,stimulusWOAN27_2IFCnew_2019_Jun_13_1252_734,False,2019_Jun_13_1252,2IFCnew,3,WOAN27,
2IFCnew,67,0,67,0,0.834971300093,2,Yes,5.8,-1,Correct Rejection,0.600640899967,False,True,stimulusWOAN27_2IFCnew_2019_Jun_13_1252_735,stimulusWOAN27_2IFCnew_2019_Jun_13_1252_736,False,2019_Jun_13_1252,2IFCnew,3,WOAN27,
2IFCnew,68,0,68,0,0.0333060000557,1,No,5.8,-1,Hit,0.465067500016,True,False,stimulusWOAN27_2IFCnew_2019_Jun_13_1252_737,stimulusWOAN27_2IFCnew_2019_Jun_13_1252_738,False,2019_Jun_13_1252,2IFCnew,3,WOAN27,
2IFCnew,69,0,69,0,0.0332602998242,4,Yes,5.8,-1,Miss,0.533389399992,True,False,stimulusWOAN27_2IFCnew_2019_Jun_13_1252_739,stimulusWOAN27_2IFCnew_2019_Jun_13_1252_740,False,2019_Jun_13_1252,2IFCnew,3,WOAN27,
2IFCnew,70,0,70,0,0.0997501001693,2,Yes,5.8,-1,Correct Rejection,0.534039800055,False,True,stimulusWOAN27_2IFCnew_2019_Jun_13_1252_741,stimulusWOAN27_2IFCnew_2019_Jun_13_1252_742,False,2019_Jun_13_1252,2IFCnew,3,WOAN27,
2IFCnew,71,0,71,0,0.100239299936,1,No,5.8,-1,Hit,0.435609700158,True,False,stimulusWOAN27_2IFCnew_2019_Jun_13_1252_743,stimulusWOAN27_2IFCnew_2019_Jun_13_1252_744,False,2019_Jun_13_1252,2IFCnew,3,WOAN27,
2IFCnew,72,0,72,0,0.200610700063,1,No,5.8,-1,Hit,0.769911600044,True,False,stimulusWOAN27_2IFCnew_2019_Jun_13_1252_745,stimulusWOAN27_2IFCnew_2019_Jun_13_1252_746,False,2019_Jun_13_1252,2IFCnew,3,WOAN27,
2IFCnew,73,0,73,0,-1,3,No,5.8,-1,Correct Rejection,0.468328699935,False,True,stimulusWOAN27_2IFCnew_2019_Jun_13_1252_747,stimulusWOAN27_2IFCnew_2019_Jun_13_1252_748,False,2019_Jun_13_1252,2IFCnew,3,WOAN27,
2IFCnew,74,0,74,0,0.199319100007,6,No,5.8,-1,Miss,0.533293300075,True,False,stimulusWOAN27_2IFCnew_2019_Jun_13_1252_749,stimulusWOAN27_2IFCnew_2019_Jun_13_1252_750,False,2019_Jun_13_1252,2IFCnew,3,WOAN27,
2IFCnew,0,0,0,0,0.400839200011,6,No,9.1,-1,Miss,0.767431099899,True,False,stimulusWOAN27_2IFCnew_2019_Jun_13_1252_751,stimulusWOAN27_2IFCnew_2019_Jun_13_1252_752,False,2019_Jun_13_1252,2IFCnew,3,WOAN27,
2IFCnew,1,0,1,0,0.266847099876,6,No,9.1,-1,Miss,0.467283300124,True,False,stimulusWOAN27_2IFCnew_2019_Jun_13_1252_753,stimulusWOAN27_2IFCnew_2019_Jun_13_1252_754,False,2019_Jun_13_1252,2IFCnew,3,WOAN27,
2IFCnew,2,0,2,0,-1,3,No,9.1,-1,Correct Rejection,0.465937200002,False,True,stimulusWOAN27_2IFCnew_2019_Jun_13_1252_755,stimulusWOAN27_2IFCnew_2019_Jun_13_1252_756,False,2019_Jun_13_1252,2IFCnew,3,WOAN27,
2IFCnew,3,0,3,0,0.167040100088,1,No,9.1,-1,Hit,0.501752999844,True,False,stimulusWOAN27_2IFCnew_2019_Jun_13_1252_757,stimulusWOAN27_2IFCnew_2019_Jun_13_1252_758,False,2019_Jun_13_1252,2IFCnew,3,WOAN27,
2IFCnew,4,0,4,0,0.0672361000907,1,No,9.1,-1,Hit,0.567385199945,True,False,stimulusWOAN27_2IFCnew_2019_Jun_13_1252_759,stimulusWOAN27_2IFCnew_2019_Jun_13_1252_760,False,2019_Jun_13_1252,2IFCnew,3,WOAN27,
2IFCnew,5,0,5,0,0.1002783,2,Yes,9.1,-1,Correct Rejection,0.50062080007,False,True,stimulusWOAN27_2IFCnew_2019_Jun_13_1252_761,stimulusWOAN27_2IFCnew_2019_Jun_13_1252_762,False,2019_Jun_13_1252,2IFCnew,3,WOAN27,
2IFCnew,6,0,6,0,0.0334048999939,1,No,9.1,-1,Hit,0.46750979987,True,False,stimulusWOAN27_2IFCnew_2019_Jun_13_1252_763,stimulusWOAN27_2IFCnew_2019_Jun_13_1252_764,False,2019_Jun_13_1252,2IFCnew,3,WOAN27,
2IFCnew,7,0,7,0,-1,3,No,9.1,-1,Correct Rejection,0.533715400146,False,True,stimulusWOAN27_2IFCnew_2019_Jun_13_1252_765,stimulusWOAN27_2IFCnew_2019_Jun_13_1252_766,False,2019_Jun_13_1252,2IFCnew,3,WOAN27,
2IFCnew,8,0,8,0,-1,1,No,9.1,-1,Hit,0.398364500143,True,False,stimulusWOAN27_2IFCnew_2019_Jun_13_1252_767,stimulusWOAN27_2IFCnew_2019_Jun_13_1252_768,False,2019_Jun_13_1252,2IFCnew,3,WOAN27,
2IFCnew,9,0,9,0,0.200523300096,1,No,9.1,-1,Hit,0.434025599854,True,False,stimulusWOAN27_2IFCnew_2019_Jun_13_1252_769,stimulusWOAN27_2IFCnew_2019_Jun_13_1252_770,False,2019_Jun_13_1252,2IFCnew,3,WOAN27,
2IFCnew,10,0,10,0,-1,1,No,9.1,-1,Hit,0.56802399992,True,False,stimulusWOAN27_2IFCnew_2019_Jun_13_1252_771,stimulusWOAN27_2IFCnew_2019_Jun_13_1252_772,False,2019_Jun_13_1252,2IFCnew,3,WOAN27,
2IFCnew,11,0,11,0,-1,1,No,9.1,-1,Hit,0.63297229982,True,False,stimulusWOAN27_2IFCnew_2019_Jun_13_1252_773,stimulusWOAN27_2IFCnew_2019_Jun_13_1252_774,False,2019_Jun_13_1252,2IFCnew,3,WOAN27,
2IFCnew,12,0,12,0,-1,1,No,9.1,-1,Hit,0.634419100126,True,False,stimulusWOAN27_2IFCnew_2019_Jun_13_1252_775,stimulusWOAN27_2IFCnew_2019_Jun_13_1252_776,False,2019_Jun_13_1252,2IFCnew,3,WOAN27,
2IFCnew,13,0,13,0,-1,1,No,9.1,-1,Hit,0.43401159998,True,False,stimulusWOAN27_2IFCnew_2019_Jun_13_1252_777,stimulusWOAN27_2IFCnew_2019_Jun_13_1252_778,False,2019_Jun_13_1252,2IFCnew,3,WOAN27,
2IFCnew,14,0,14,0,-1,3,No,9.1,-1,Correct Rejection,0.800831699977,False,True,stimulusWOAN27_2IFCnew_2019_Jun_13_1252_779,stimulusWOAN27_2IFCnew_2019_Jun_13_1252_780,False,2019_Jun_13_1252,2IFCnew,3,WOAN27,
2IFCnew,15,0,15,0,-1,3,No,9.1,-1,Correct Rejection,0.802065900061,False,True,stimulusWOAN27_2IFCnew_2019_Jun_13_1252_781,stimulusWOAN27_2IFCnew_2019_Jun_13_1252_782,False,2019_Jun_13_1252,2IFCnew,3,WOAN27,
2IFCnew,16,0,16,0,-1,1,No,9.1,-1,Hit,0.533154900186,True,False,stimulusWOAN27_2IFCnew_2019_Jun_13_1252_783,stimulusWOAN27_2IFCnew_2019_Jun_13_1252_784,False,2019_Jun_13_1252,2IFCnew,3,WOAN27,
2IFCnew,17,0,17,0,-1,3,No,9.1,-1,Correct Rejection,0.46720850002,False,True,stimulusWOAN27_2IFCnew_2019_Jun_13_1252_785,stimulusWOAN27_2IFCnew_2019_Jun_13_1252_786,False,2019_Jun_13_1252,2IFCnew,3,WOAN27,
2IFCnew,18,0,18,0,-1,3,No,9.1,-1,Correct Rejection,0.769165999955,False,True,stimulusWOAN27_2IFCnew_2019_Jun_13_1252_787,stimulusWOAN27_2IFCnew_2019_Jun_13_1252_788,False,2019_Jun_13_1252,2IFCnew,3,WOAN27,
2IFCnew,19,0,19,0,0.468660900136,1,No,9.1,-1,Hit,0.666761500062,True,False,stimulusWOAN27_2IFCnew_2019_Jun_13_1252_789,stimulusWOAN27_2IFCnew_2019_Jun_13_1252_790,False,2019_Jun_13_1252,2IFCnew,3,WOAN27,
2IFCnew,20,0,20,0,-1,1,No,9.1,-1,Hit,0.366375299869,True,False,stimulusWOAN27_2IFCnew_2019_Jun_13_1252_791,stimulusWOAN27_2IFCnew_2019_Jun_13_1252_792,False,2019_Jun_13_1252,2IFCnew,3,WOAN27,
2IFCnew,21,0,21,0,0.53420939995,2,Yes,9.1,-1,Correct Rejection,0.534110500012,False,True,stimulusWOAN27_2IFCnew_2019_Jun_13_1252_793,stimulusWOAN27_2IFCnew_2019_Jun_13_1252_794,False,2019_Jun_13_1252,2IFCnew,3,WOAN27,
2IFCnew,22,0,22,0,0.367678399896,2,Yes,9.1,-1,Correct Rejection,0.467058199923,False,True,stimulusWOAN27_2IFCnew_2019_Jun_13_1252_795,stimulusWOAN27_2IFCnew_2019_Jun_13_1252_796,False,2019_Jun_13_1252,2IFCnew,3,WOAN27,
2IFCnew,23,0,23,0,0.166041899938,1,No,9.1,-1,Hit,0.53402910009,True,False,stimulusWOAN27_2IFCnew_2019_Jun_13_1252_797,stimulusWOAN27_2IFCnew_2019_Jun_13_1252_798,False,2019_Jun_13_1252,2IFCnew,3,WOAN27,
2IFCnew,24,0,24,0,0.266326500103,1,No,9.1,-1,Hit,0.533954400104,True,False,stimulusWOAN27_2IFCnew_2019_Jun_13_1252_799,stimulusWOAN27_2IFCnew_2019_Jun_13_1252_800,False,2019_Jun_13_1252,2IFCnew,3,WOAN27,
2IFCnew,25,0,25,0,0.167561599985,1,No,9.1,-1,Hit,0.50245800009,True,False,stimulusWOAN27_2IFCnew_2019_Jun_13_1252_801,stimulusWOAN27_2IFCnew_2019_Jun_13_1252_802,False,2019_Jun_13_1252,2IFCnew,3,WOAN27,
2IFCnew,26,0,26,0,0.0678283001762,3,No,9.1,-1,False Alarm,0.466901500011,False,True,stimulusWOAN27_2IFCnew_2019_Jun_13_1252_803,stimulusWOAN27_2IFCnew_2019_Jun_13_1252_804,False,2019_Jun_13_1252,2IFCnew,3,WOAN27,
2IFCnew,27,0,27,0,0.100150500191,2,Yes,9.1,-1,Correct Rejection,0.567001399817,False,True,stimulusWOAN27_2IFCnew_2019_Jun_13_1252_805,stimulusWOAN27_2IFCnew_2019_Jun_13_1252_806,False,2019_Jun_13_1252,2IFCnew,3,WOAN27,
2IFCnew,28,0,28,0,0.1338500001,1,No,9.1,-1,Hit,0.467373299878,True,False,stimulusWOAN27_2IFCnew_2019_Jun_13_1252_807,stimulusWOAN27_2IFCnew_2019_Jun_13_1252_808,False,2019_Jun_13_1252,2IFCnew,3,WOAN27,
2IFCnew,29,0,29,0,-1,3,No,9.1,-1,Correct Rejection,0.533952299971,False,True,stimulusWOAN27_2IFCnew_2019_Jun_13_1252_809,stimulusWOAN27_2IFCnew_2019_Jun_13_1252_810,False,2019_Jun_13_1252,2IFCnew,3,WOAN27,
2IFCnew,30,0,30,0,0.267100500176,1,No,9.1,-1,Hit,0.433365700068,True,False,stimulusWOAN27_2IFCnew_2019_Jun_13_1252_811,stimulusWOAN27_2IFCnew_2019_Jun_13_1252_812,False,2019_Jun_13_1252,2IFCnew,3,WOAN27,
2IFCnew,31,0,31,0,0.23507960001,6,No,9.1,-1,Miss,0.634307499975,True,False,stimulusWOAN27_2IFCnew_2019_Jun_13_1252_813,stimulusWOAN27_2IFCnew_2019_Jun_13_1252_814,False,2019_Jun_13_1252,2IFCnew,3,WOAN27,
2IFCnew,32,0,32,0,0.16555809998,2,Yes,9.1,-1,Correct Rejection,0.567609499907,False,True,stimulusWOAN27_2IFCnew_2019_Jun_13_1252_815,stimulusWOAN27_2IFCnew_2019_Jun_13_1252_816,False,2019_Jun_13_1252,2IFCnew,3,WOAN27,
2IFCnew,33,0,33,0,0.168817400001,2,Yes,9.1,-1,Correct Rejection,0.635247800034,False,True,stimulusWOAN27_2IFCnew_2019_Jun_13_1252_817,stimulusWOAN27_2IFCnew_2019_Jun_13_1252_818,False,2019_Jun_13_1252,2IFCnew,3,WOAN27,
2IFCnew,34,0,34,0,0.134037100011,1,No,9.1,-1,Hit,0.535229299916,True,False,stimulusWOAN27_2IFCnew_2019_Jun_13_1252_819,stimulusWOAN27_2IFCnew_2019_Jun_13_1252_820,False,2019_Jun_13_1252,2IFCnew,3,WOAN27,
2IFCnew,35,0,35,0,0.133035599953,1,No,9.1,-1,Hit,0.534140199888,True,False,stimulusWOAN27_2IFCnew_2019_Jun_13_1252_821,stimulusWOAN27_2IFCnew_2019_Jun_13_1252_822,False,2019_Jun_13_1252,2IFCnew,3,WOAN27,
2IFCnew,36,0,36,0,0.0669849999249,2,Yes,9.1,-1,Correct Rejection,0.50023279991,False,True,stimulusWOAN27_2IFCnew_2019_Jun_13_1252_823,stimulusWOAN27_2IFCnew_2019_Jun_13_1252_824,False,2019_Jun_13_1252,2IFCnew,3,WOAN27,
2IFCnew,37,0,37,0,-1,3,Yes,9.1,-1,Correct Rejection,0.534206599928,False,True,stimulusWOAN27_2IFCnew_2019_Jun_13_1252_825,stimulusWOAN27_2IFCnew_2019_Jun_13_1252_826,False,2019_Jun_13_1252,2IFCnew,3,WOAN27,
2IFCnew,38,0,38,0,0.200563299935,2,Yes,9.1,-1,Correct Rejection,0.600337600103,False,True,stimulusWOAN27_2IFCnew_2019_Jun_13_1252_827,stimulusWOAN27_2IFCnew_2019_Jun_13_1252_828,False,2019_Jun_13_1252,2IFCnew,3,WOAN27,
2IFCnew,39,0,39,0,0.633619599976,5,Yes,9.1,-1,False Alarm,0.53506559995,False,True,stimulusWOAN27_2IFCnew_2019_Jun_13_1252_829,stimulusWOAN27_2IFCnew_2019_Jun_13_1252_830,False,2019_Jun_13_1252,2IFCnew,3,WOAN27,
2IFCnew,40,0,40,0,0.200479500229,1,No,9.1,-1,Hit,0.599838999799,True,False,stimulusWOAN27_2IFCnew_2019_Jun_13_1252_831,stimulusWOAN27_2IFCnew_2019_Jun_13_1252_832,False,2019_Jun_13_1252,2IFCnew,3,WOAN27,
2IFCnew,41,0,41,0,-1,3,No,9.1,-1,Correct Rejection,0.500285400078,False,True,stimulusWOAN27_2IFCnew_2019_Jun_13_1252_833,stimulusWOAN27_2IFCnew_2019_Jun_13_1252_834,False,2019_Jun_13_1252,2IFCnew,3,WOAN27,
2IFCnew,42,0,42,0,0.200401100097,1,No,9.1,-1,Hit,0.433891899884,True,False,stimulusWOAN27_2IFCnew_2019_Jun_13_1252_835,stimulusWOAN27_2IFCnew_2019_Jun_13_1252_836,False,2019_Jun_13_1252,2IFCnew,3,WOAN27,
2IFCnew,43,0,43,0,0.400539800059,2,Yes,9.1,-1,Correct Rejection,0.600762500195,False,True,stimulusWOAN27_2IFCnew_2019_Jun_13_1252_837,stimulusWOAN27_2IFCnew_2019_Jun_13_1252_838,False,2019_Jun_13_1252,2IFCnew,3,WOAN27,
2IFCnew,44,0,44,0,0.133585399948,2,Yes,9.1,-1,Correct Rejection,0.600161499809,False,True,stimulusWOAN27_2IFCnew_2019_Jun_13_1252_839,stimulusWOAN27_2IFCnew_2019_Jun_13_1252_840,False,2019_Jun_13_1252,2IFCnew,3,WOAN27,
2IFCnew,45,0,45,0,-1,3,Yes,9.1,-1,Correct Rejection,0.501264899969,False,True,stimulusWOAN27_2IFCnew_2019_Jun_13_1252_841,stimulusWOAN27_2IFCnew_2019_Jun_13_1252_842,False,2019_Jun_13_1252,2IFCnew,3,WOAN27,
2IFCnew,46,0,46,0,0.166246000212,1,No,9.1,-1,Hit,0.468219399918,True,False,stimulusWOAN27_2IFCnew_2019_Jun_13_1252_843,stimulusWOAN27_2IFCnew_2019_Jun_13_1252_844,False,2019_Jun_13_1252,2IFCnew,3,WOAN27,
2IFCnew,47,0,47,0,0.100049100118,1,No,9.1,-1,Hit,0.465924500022,True,False,stimulusWOAN27_2IFCnew_2019_Jun_13_1252_845,stimulusWOAN27_2IFCnew_2019_Jun_13_1252_846,False,2019_Jun_13_1252,2IFCnew,3,WOAN27,
2IFCnew,48,0,48,0,0.0673957001418,2,Yes,9.1,-1,Correct Rejection,0.466551499907,False,True,stimulusWOAN27_2IFCnew_2019_Jun_13_1252_847,stimulusWOAN27_2IFCnew_2019_Jun_13_1252_848,False,2019_Jun_13_1252,2IFCnew,3,WOAN27,
2IFCnew,49,0,49,0,0.167106300127,1,No,9.1,-1,Hit,0.500788299832,True,False,stimulusWOAN27_2IFCnew_2019_Jun_13_1252_849,stimulusWOAN27_2IFCnew_2019_Jun_13_1252_850,False,2019_Jun_13_1252,2IFCnew,3,WOAN27,
2IFCnew,50,0,50,0,0.134530700045,1,No,9.1,-1,Hit,0.634692700114,True,False,stimulusWOAN27_2IFCnew_2019_Jun_13_1252_851,stimulusWOAN27_2IFCnew_2019_Jun_13_1252_852,False,2019_Jun_13_1252,2IFCnew,3,WOAN27,
2IFCnew,51,0,51,0,0.0664564000908,1,No,9.1,-1,Hit,0.46588620008,True,False,stimulusWOAN27_2IFCnew_2019_Jun_13_1252_853,stimulusWOAN27_2IFCnew_2019_Jun_13_1252_854,False,2019_Jun_13_1252,2IFCnew,3,WOAN27,
2IFCnew,52,0,52,0,0.0670467999298,2,Yes,9.1,-1,Correct Rejection,0.500234100036,False,True,stimulusWOAN27_2IFCnew_2019_Jun_13_1252_855,stimulusWOAN27_2IFCnew_2019_Jun_13_1252_856,False,2019_Jun_13_1252,2IFCnew,3,WOAN27,
2IFCnew,53,0,53,0,0.0996850999072,1,No,9.1,-1,Hit,0.434398700017,True,False,stimulusWOAN27_2IFCnew_2019_Jun_13_1252_857,stimulusWOAN27_2IFCnew_2019_Jun_13_1252_858,False,2019_Jun_13_1252,2IFCnew,3,WOAN27,
2IFCnew,54,0,54,0,0.364890499972,3,No,9.1,-1,False Alarm,0.902127699926,False,True,stimulusWOAN27_2IFCnew_2019_Jun_13_1252_859,stimulusWOAN27_2IFCnew_2019_Jun_13_1252_860,False,2019_Jun_13_1252,2IFCnew,3,WOAN27,
2IFCnew,55,0,55,0,-1,3,No,9.1,-1,Correct Rejection,0.531577900052,False,True,stimulusWOAN27_2IFCnew_2019_Jun_13_1252_861,stimulusWOAN27_2IFCnew_2019_Jun_13_1252_862,False,2019_Jun_13_1252,2IFCnew,3,WOAN27,
2IFCnew,56,0,56,0,0.167402100051,1,No,9.1,-1,Hit,0.6329173001,True,False,stimulusWOAN27_2IFCnew_2019_Jun_13_1252_863,stimulusWOAN27_2IFCnew_2019_Jun_13_1252_864,False,2019_Jun_13_1252,2IFCnew,3,WOAN27,
2IFCnew,57,0,57,0,0.133698000107,1,No,9.1,-1,Hit,0.534026900074,True,False,stimulusWOAN27_2IFCnew_2019_Jun_13_1252_865,stimulusWOAN27_2IFCnew_2019_Jun_13_1252_866,False,2019_Jun_13_1252,2IFCnew,3,WOAN27,
2IFCnew,58,0,58,0,0.200120300055,1,No,9.1,-1,Hit,0.733002400026,True,False,stimulusWOAN27_2IFCnew_2019_Jun_13_1252_867,stimulusWOAN27_2IFCnew_2019_Jun_13_1252_868,False,2019_Jun_13_1252,2IFCnew,3,WOAN27,
2IFCnew,59,0,59,0,0.0670549999923,2,Yes,9.1,-1,Correct Rejection,0.500826000003,False,True,stimulusWOAN27_2IFCnew_2019_Jun_13_1252_869,stimulusWOAN27_2IFCnew_2019_Jun_13_1252_870,False,2019_Jun_13_1252,2IFCnew,3,WOAN27,
2IFCnew,60,0,60,0,0.132960000075,3,No,9.1,-1,False Alarm,0.600690599997,False,True,stimulusWOAN27_2IFCnew_2019_Jun_13_1252_871,stimulusWOAN27_2IFCnew_2019_Jun_13_1252_872,False,2019_Jun_13_1252,2IFCnew,3,WOAN27,
2IFCnew,61,0,61,0,0.100184999872,2,Yes,9.1,-1,Correct Rejection,0.534019300016,False,True,stimulusWOAN27_2IFCnew_2019_Jun_13_1252_873,stimulusWOAN27_2IFCnew_2019_Jun_13_1252_874,False,2019_Jun_13_1252,2IFCnew,3,WOAN27,
2IFCnew,62,0,62,0,0.100464900024,2,Yes,9.1,-1,Correct Rejection,0.568011000054,False,True,stimulusWOAN27_2IFCnew_2019_Jun_13_1252_875,stimulusWOAN27_2IFCnew_2019_Jun_13_1252_876,False,2019_Jun_13_1252,2IFCnew,3,WOAN27,
2IFCnew,63,0,63,0,0.166990600061,2,Yes,9.1,-1,Correct Rejection,0.534218200017,False,True,stimulusWOAN27_2IFCnew_2019_Jun_13_1252_877,stimulusWOAN27_2IFCnew_2019_Jun_13_1252_878,False,2019_Jun_13_1252,2IFCnew,3,WOAN27,
2IFCnew,64,0,64,0,-1,1,Yes,9.1,-1,Hit,0.4342914999,True,False,stimulusWOAN27_2IFCnew_2019_Jun_13_1252_879,stimulusWOAN27_2IFCnew_2019_Jun_13_1252_880,False,2019_Jun_13_1252,2IFCnew,3,WOAN27,
2IFCnew,65,0,65,0,0.0670720001217,2,Yes,9.1,-1,Correct Rejection,0.567059900146,False,True,stimulusWOAN27_2IFCnew_2019_Jun_13_1252_881,stimulusWOAN27_2IFCnew_2019_Jun_13_1252_882,False,2019_Jun_13_1252,2IFCnew,3,WOAN27,
2IFCnew,66,0,66,0,-1,3,Yes,9.1,-1,Correct Rejection,0.466197999893,False,True,stimulusWOAN27_2IFCnew_2019_Jun_13_1252_883,stimulusWOAN27_2IFCnew_2019_Jun_13_1252_884,False,2019_Jun_13_1252,2IFCnew,3,WOAN27,
2IFCnew,67,0,67,0,0.0343442000449,1,No,9.1,-1,Hit,0.433851599926,True,False,stimulusWOAN27_2IFCnew_2019_Jun_13_1252_885,stimulusWOAN27_2IFCnew_2019_Jun_13_1252_886,False,2019_Jun_13_1252,2IFCnew,3,WOAN27,
2IFCnew,68,0,68,0,0.0335076001938,2,Yes,9.1,-1,Correct Rejection,0.50044380012,False,True,stimulusWOAN27_2IFCnew_2019_Jun_13_1252_887,stimulusWOAN27_2IFCnew_2019_Jun_13_1252_888,False,2019_Jun_13_1252,2IFCnew,3,WOAN27,
2IFCnew,69,0,69,0,0.23202580004,2,Yes,9.1,-1,Correct Rejection,0.467054400127,False,True,stimulusWOAN27_2IFCnew_2019_Jun_13_1252_889,stimulusWOAN27_2IFCnew_2019_Jun_13_1252_890,False,2019_Jun_13_1252,2IFCnew,3,WOAN27,
2IFCnew,70,0,70,0,0.133394900011,1,No,9.1,-1,Hit,0.534097899916,True,False,stimulusWOAN27_2IFCnew_2019_Jun_13_1252_891,stimulusWOAN27_2IFCnew_2019_Jun_13_1252_892,False,2019_Jun_13_1252,2IFCnew,3,WOAN27,
2IFCnew,71,0,71,0,0.266806100029,3,No,9.1,-1,False Alarm,0.467915599933,False,True,stimulusWOAN27_2IFCnew_2019_Jun_13_1252_893,stimulusWOAN27_2IFCnew_2019_Jun_13_1252_894,False,2019_Jun_13_1252,2IFCnew,3,WOAN27,
2IFCnew,72,0,72,0,-1,0,No,9.1,-1,No Answer,-1,True,False,stimulusWOAN27_2IFCnew_2019_Jun_13_1252_895,stimulusWOAN27_2IFCnew_2019_Jun_13_1252_896,False,2019_Jun_13_1252,2IFCnew,3,WOAN27,
2IFCnew,73,0,73,0,0.333299499936,2,Yes,9.1,-1,Correct Rejection,0.768110099947,False,True,stimulusWOAN27_2IFCnew_2019_Jun_13_1252_897,stimulusWOAN27_2IFCnew_2019_Jun_13_1252_898,False,2019_Jun_13_1252,2IFCnew,3,WOAN27,
2IFCnew,74,0,74,0,-1,1,Yes,9.1,-1,Hit,0.434583200142,True,False,stimulusWOAN27_2IFCnew_2019_Jun_13_1252_899,stimulusWOAN27_2IFCnew_2019_Jun_13_1252_900,False,2019_Jun_13_1252,2IFCnew,3,WOAN27,
2IFCnew,0,0,0,0,-1,3,Yes,1.4,-1,Correct Rejection,0.633965600049,False,True,stimulusWOAN27_2IFCnew_2019_Jun_13_1252_901,stimulusWOAN27_2IFCnew_2019_Jun_13_1252_902,False,2019_Jun_13_1252,2IFCnew,3,WOAN27,
2IFCnew,1,0,1,0,-1,3,Yes,1.4,-1,Correct Rejection,0.534413800109,False,True,stimulusWOAN27_2IFCnew_2019_Jun_13_1252_903,stimulusWOAN27_2IFCnew_2019_Jun_13_1252_904,False,2019_Jun_13_1252,2IFCnew,3,WOAN27,
2IFCnew,2,0,2,0,-1,4,Yes,1.4,-1,Miss,0.500646100147,True,False,stimulusWOAN27_2IFCnew_2019_Jun_13_1252_905,stimulusWOAN27_2IFCnew_2019_Jun_13_1252_906,False,2019_Jun_13_1252,2IFCnew,3,WOAN27,
2IFCnew,3,0,3,0,0.23248789995,4,Yes,1.4,-1,Miss,0.767843199894,True,False,stimulusWOAN27_2IFCnew_2019_Jun_13_1252_907,stimulusWOAN27_2IFCnew_2019_Jun_13_1252_908,False,2019_Jun_13_1252,2IFCnew,3,WOAN27,
2IFCnew,4,0,4,0,0.0673241999466,2,Yes,1.4,-1,Correct Rejection,0.767385599902,False,True,stimulusWOAN27_2IFCnew_2019_Jun_13_1252_909,stimulusWOAN27_2IFCnew_2019_Jun_13_1252_910,False,2019_Jun_13_1252,2IFCnew,3,WOAN27,
2IFCnew,5,0,5,0,0.0333285001107,1,No,1.4,-1,Hit,0.568073699949,True,False,stimulusWOAN27_2IFCnew_2019_Jun_13_1252_911,stimulusWOAN27_2IFCnew_2019_Jun_13_1252_912,False,2019_Jun_13_1252,2IFCnew,3,WOAN27,
2IFCnew,6,0,6,0,0.100135300076,3,No,1.4,-1,False Alarm,0.667623999994,False,True,stimulusWOAN27_2IFCnew_2019_Jun_13_1252_913,stimulusWOAN27_2IFCnew_2019_Jun_13_1252_914,False,2019_Jun_13_1252,2IFCnew,3,WOAN27,
2IFCnew,7,0,7,0,0.0337364000734,2,Yes,1.4,-1,Correct Rejection,0.499745400157,False,True,stimulusWOAN27_2IFCnew_2019_Jun_13_1252_915,stimulusWOAN27_2IFCnew_2019_Jun_13_1252_916,False,2019_Jun_13_1252,2IFCnew,3,WOAN27,
2IFCnew,8,0,8,0,0.0337974000722,2,Yes,1.4,-1,Correct Rejection,0.534888099879,False,True,stimulusWOAN27_2IFCnew_2019_Jun_13_1252_917,stimulusWOAN27_2IFCnew_2019_Jun_13_1252_918,False,2019_Jun_13_1252,2IFCnew,3,WOAN27,
2IFCnew,9,0,9,0,0.166669300059,4,Yes,1.4,-1,Miss,0.667076000012,True,False,stimulusWOAN27_2IFCnew_2019_Jun_13_1252_919,stimulusWOAN27_2IFCnew_2019_Jun_13_1252_920,False,2019_Jun_13_1252,2IFCnew,3,WOAN27,
2IFCnew,10,0,10,0,-1,1,Yes,1.4,-1,Hit,0.267917199992,True,False,stimulusWOAN27_2IFCnew_2019_Jun_13_1252_921,stimulusWOAN27_2IFCnew_2019_Jun_13_1252_922,False,2019_Jun_13_1252,2IFCnew,3,WOAN27,
2IFCnew,11,0,11,0,0.06684149988,2,Yes,1.4,-1,Correct Rejection,0.601080700057,False,True,stimulusWOAN27_2IFCnew_2019_Jun_13_1252_923,stimulusWOAN27_2IFCnew_2019_Jun_13_1252_924,False,2019_Jun_13_1252,2IFCnew,3,WOAN27,
2IFCnew,12,0,12,0,0.166501099942,3,No,1.4,-1,False Alarm,0.634110999992,False,True,stimulusWOAN27_2IFCnew_2019_Jun_13_1252_925,stimulusWOAN27_2IFCnew_2019_Jun_13_1252_926,False,2019_Jun_13_1252,2IFCnew,3,WOAN27,
2IFCnew,13,0,13,0,-1,4,No,1.4,-1,Miss,0.269583999878,True,False,stimulusWOAN27_2IFCnew_2019_Jun_13_1252_927,stimulusWOAN27_2IFCnew_2019_Jun_13_1252_928,False,2019_Jun_13_1252,2IFCnew,3,WOAN27,
2IFCnew,14,0,14,0,-1,1,No,1.4,-1,Hit,0.201898199972,True,False,stimulusWOAN27_2IFCnew_2019_Jun_13_1252_929,stimulusWOAN27_2IFCnew_2019_Jun_13_1252_930,False,2019_Jun_13_1252,2IFCnew,3,WOAN27,
2IFCnew,15,0,15,0,0.200456699822,4,Yes,1.4,-1,Miss,0.500685400097,True,False,stimulusWOAN27_2IFCnew_2019_Jun_13_1252_931,stimulusWOAN27_2IFCnew_2019_Jun_13_1252_932,False,2019_Jun_13_1252,2IFCnew,3,WOAN27,
2IFCnew,16,0,16,0,0.100088699954,1,No,1.4,-1,Hit,0.333472799975,True,False,stimulusWOAN27_2IFCnew_2019_Jun_13_1252_933,stimulusWOAN27_2IFCnew_2019_Jun_13_1252_934,False,2019_Jun_13_1252,2IFCnew,3,WOAN27,
2IFCnew,17,0,17,0,0.100335899973,1,No,1.4,-1,Hit,0.467222299892,True,False,stimulusWOAN27_2IFCnew_2019_Jun_13_1252_935,stimulusWOAN27_2IFCnew_2019_Jun_13_1252_936,False,2019_Jun_13_1252,2IFCnew,3,WOAN27,
2IFCnew,18,0,18,0,-1,2,No,1.4,-1,False Alarm,0.366818699986,False,True,stimulusWOAN27_2IFCnew_2019_Jun_13_1252_937,stimulusWOAN27_2IFCnew_2019_Jun_13_1252_938,False,2019_Jun_13_1252,2IFCnew,3,WOAN27,
2IFCnew,19,0,19,0,0.0330692999996,4,Yes,1.4,-1,Miss,0.399939599913,True,False,stimulusWOAN27_2IFCnew_2019_Jun_13_1252_939,stimulusWOAN27_2IFCnew_2019_Jun_13_1252_940,False,2019_Jun_13_1252,2IFCnew,3,WOAN27,
2IFCnew,20,0,20,0,-1,2,Yes,1.4,-1,False Alarm,0.133630200056,False,True,stimulusWOAN27_2IFCnew_2019_Jun_13_1252_941,stimulusWOAN27_2IFCnew_2019_Jun_13_1252_942,False,2019_Jun_13_1252,2IFCnew,3,WOAN27,
2IFCnew,21,0,21,0,0.0677696999628,2,Yes,1.4,-1,Correct Rejection,0.433813600102,False,True,stimulusWOAN27_2IFCnew_2019_Jun_13_1252_943,stimulusWOAN27_2IFCnew_2019_Jun_13_1252_944,False,2019_Jun_13_1252,2IFCnew,3,WOAN27,
2IFCnew,22,0,22,0,0.0670014999341,4,Yes,1.4,-1,Miss,0.467409299919,True,False,stimulusWOAN27_2IFCnew_2019_Jun_13_1252_945,stimulusWOAN27_2IFCnew_2019_Jun_13_1252_946,False,2019_Jun_13_1252,2IFCnew,3,WOAN27,
2IFCnew,23,0,23,0,0.16705960012,3,No,1.4,-1,False Alarm,0.267101900186,False,True,stimulusWOAN27_2IFCnew_2019_Jun_13_1252_947,stimulusWOAN27_2IFCnew_2019_Jun_13_1252_948,False,2019_Jun_13_1252,2IFCnew,3,WOAN27,
2IFCnew,24,0,24,0,-1,3,No,1.4,-1,Correct Rejection,0.434567000018,False,True,stimulusWOAN27_2IFCnew_2019_Jun_13_1252_949,stimulusWOAN27_2IFCnew_2019_Jun_13_1252_950,False,2019_Jun_13_1252,2IFCnew,3,WOAN27,
2IFCnew,25,0,25,0,0.167021800065,1,No,1.4,-1,Hit,0.532838199986,True,False,stimulusWOAN27_2IFCnew_2019_Jun_13_1252_951,stimulusWOAN27_2IFCnew_2019_Jun_13_1252_952,False,2019_Jun_13_1252,2IFCnew,3,WOAN27,
