Task,trials.thisRepN,trials.thisTrialN,trials.thisN,trials.thisIndex,signal_intensity,constant Value,response,time_response,signal_on_stimuluspos1,signal_on_stimuluspos2,stimulus_name_pos1,stimulus_name_pos2,random_intensity,date,expName,session,participant,
Yes-No Task,0,0,0,0,14.3,-1,No Answer,-1,True,-1,stimulus_WOAN27_Yes-No Task_2019_Jun_13_1231_1,-1,False,2019_Jun_13_1231,Yes-No Task,3,WOAN27,
Yes-No Task,1,0,1,0,14.3,-1,Hit,0.60093000019,True,-1,stimulus_WOAN27_Yes-No Task_2019_Jun_13_1231_2,-1,False,2019_Jun_13_1231,Yes-No Task,3,WOAN27,
Yes-No Task,2,0,2,0,14.3,-1,Correct Rejection,0.50071589998,False,-1,stimulus_WOAN27_Yes-No Task_2019_Jun_13_1231_3,-1,False,2019_Jun_13_1231,Yes-No Task,3,WOAN27,
Yes-No Task,3,0,3,0,14.3,-1,Correct Rejection,0.466927600093,False,-1,stimulus_WOAN27_Yes-No Task_2019_Jun_13_1231_4,-1,False,2019_Jun_13_1231,Yes-No Task,3,WOAN27,
Yes-No Task,4,0,4,0,14.3,-1,Hit,0.432920899941,True,-1,stimulus_WOAN27_Yes-No Task_2019_Jun_13_1231_5,-1,False,2019_Jun_13_1231,Yes-No Task,3,WOAN27,
Yes-No Task,5,0,5,0,14.3,-1,Correct Rejection,0.401090600062,False,-1,stimulus_WOAN27_Yes-No Task_2019_Jun_13_1231_6,-1,False,2019_Jun_13_1231,Yes-No Task,3,WOAN27,
Yes-No Task,6,0,6,0,14.3,-1,Hit,0.367170999991,True,-1,stimulus_WOAN27_Yes-No Task_2019_Jun_13_1231_7,-1,False,2019_Jun_13_1231,Yes-No Task,3,WOAN27,
Yes-No Task,7,0,7,0,14.3,-1,Hit,0.467405300122,True,-1,stimulus_WOAN27_Yes-No Task_2019_Jun_13_1231_8,-1,False,2019_Jun_13_1231,Yes-No Task,3,WOAN27,
Yes-No Task,8,0,8,0,14.3,-1,Hit,0.467303200159,True,-1,stimulus_WOAN27_Yes-No Task_2019_Jun_13_1231_9,-1,False,2019_Jun_13_1231,Yes-No Task,3,WOAN27,
Yes-No Task,9,0,9,0,14.3,-1,Correct Rejection,0.467161900131,False,-1,stimulus_WOAN27_Yes-No Task_2019_Jun_13_1231_10,-1,False,2019_Jun_13_1231,Yes-No Task,3,WOAN27,
Yes-No Task,10,0,10,0,14.3,-1,Correct Rejection,0.60057749995,False,-1,stimulus_WOAN27_Yes-No Task_2019_Jun_13_1231_11,-1,False,2019_Jun_13_1231,Yes-No Task,3,WOAN27,
Yes-No Task,11,0,11,0,14.3,-1,Hit,0.467510099988,True,-1,stimulus_WOAN27_Yes-No Task_2019_Jun_13_1231_12,-1,False,2019_Jun_13_1231,Yes-No Task,3,WOAN27,
Yes-No Task,12,0,12,0,14.3,-1,Correct Rejection,0.501415599836,False,-1,stimulus_WOAN27_Yes-No Task_2019_Jun_13_1231_13,-1,False,2019_Jun_13_1231,Yes-No Task,3,WOAN27,
Yes-No Task,13,0,13,0,14.3,-1,Correct Rejection,0.468571000034,False,-1,stimulus_WOAN27_Yes-No Task_2019_Jun_13_1231_14,-1,False,2019_Jun_13_1231,Yes-No Task,3,WOAN27,
Yes-No Task,14,0,14,0,14.3,-1,Correct Rejection,0.502906699898,False,-1,stimulus_WOAN27_Yes-No Task_2019_Jun_13_1231_15,-1,False,2019_Jun_13_1231,Yes-No Task,3,WOAN27,
Yes-No Task,15,0,15,0,14.3,-1,False Alarm,0.500776399858,False,-1,stimulus_WOAN27_Yes-No Task_2019_Jun_13_1231_16,-1,False,2019_Jun_13_1231,Yes-No Task,3,WOAN27,
Yes-No Task,16,0,16,0,14.3,-1,Correct Rejection,0.433711400023,False,-1,stimulus_WOAN27_Yes-No Task_2019_Jun_13_1231_17,-1,False,2019_Jun_13_1231,Yes-No Task,3,WOAN27,
Yes-No Task,17,0,17,0,14.3,-1,Hit,0.468223799951,True,-1,stimulus_WOAN27_Yes-No Task_2019_Jun_13_1231_18,-1,False,2019_Jun_13_1231,Yes-No Task,3,WOAN27,
Yes-No Task,18,0,18,0,14.3,-1,Correct Rejection,0.333700299961,False,-1,stimulus_WOAN27_Yes-No Task_2019_Jun_13_1231_19,-1,False,2019_Jun_13_1231,Yes-No Task,3,WOAN27,
Yes-No Task,19,0,19,0,14.3,-1,Hit,0.399878100026,True,-1,stimulus_WOAN27_Yes-No Task_2019_Jun_13_1231_20,-1,False,2019_Jun_13_1231,Yes-No Task,3,WOAN27,
Yes-No Task,20,0,20,0,14.3,-1,Miss,0.30039089988,True,-1,stimulus_WOAN27_Yes-No Task_2019_Jun_13_1231_21,-1,False,2019_Jun_13_1231,Yes-No Task,3,WOAN27,
Yes-No Task,21,0,21,0,14.3,-1,Correct Rejection,0.502355700126,False,-1,stimulus_WOAN27_Yes-No Task_2019_Jun_13_1231_22,-1,False,2019_Jun_13_1231,Yes-No Task,3,WOAN27,
Yes-No Task,22,0,22,0,14.3,-1,Hit,0.298810899956,True,-1,stimulus_WOAN27_Yes-No Task_2019_Jun_13_1231_23,-1,False,2019_Jun_13_1231,Yes-No Task,3,WOAN27,
Yes-No Task,23,0,23,0,14.3,-1,Correct Rejection,0.434616700048,False,-1,stimulus_WOAN27_Yes-No Task_2019_Jun_13_1231_24,-1,False,2019_Jun_13_1231,Yes-No Task,3,WOAN27,
Yes-No Task,24,0,24,0,14.3,-1,Correct Rejection,0.767567400122,False,-1,stimulus_WOAN27_Yes-No Task_2019_Jun_13_1231_25,-1,False,2019_Jun_13_1231,Yes-No Task,3,WOAN27,
Yes-No Task,25,0,25,0,14.3,-1,False Alarm,0.367346999934,False,-1,stimulus_WOAN27_Yes-No Task_2019_Jun_13_1231_26,-1,False,2019_Jun_13_1231,Yes-No Task,3,WOAN27,
Yes-No Task,26,0,26,0,14.3,-1,Correct Rejection,0.501449599862,False,-1,stimulus_WOAN27_Yes-No Task_2019_Jun_13_1231_27,-1,False,2019_Jun_13_1231,Yes-No Task,3,WOAN27,
Yes-No Task,27,0,27,0,14.3,-1,Correct Rejection,0.433748400072,False,-1,stimulus_WOAN27_Yes-No Task_2019_Jun_13_1231_28,-1,False,2019_Jun_13_1231,Yes-No Task,3,WOAN27,
Yes-No Task,28,0,28,0,14.3,-1,Hit,0.438179499935,True,-1,stimulus_WOAN27_Yes-No Task_2019_Jun_13_1231_29,-1,False,2019_Jun_13_1231,Yes-No Task,3,WOAN27,
Yes-No Task,29,0,29,0,14.3,-1,Hit,0.43517740001,True,-1,stimulus_WOAN27_Yes-No Task_2019_Jun_13_1231_30,-1,False,2019_Jun_13_1231,Yes-No Task,3,WOAN27,
Yes-No Task,30,0,30,0,14.3,-1,Hit,0.400760699995,True,-1,stimulus_WOAN27_Yes-No Task_2019_Jun_13_1231_31,-1,False,2019_Jun_13_1231,Yes-No Task,3,WOAN27,
Yes-No Task,31,0,31,0,14.3,-1,Correct Rejection,0.602332900045,False,-1,stimulus_WOAN27_Yes-No Task_2019_Jun_13_1231_32,-1,False,2019_Jun_13_1231,Yes-No Task,3,WOAN27,
Yes-No Task,32,0,32,0,14.3,-1,Correct Rejection,0.4007592001,False,-1,stimulus_WOAN27_Yes-No Task_2019_Jun_13_1231_33,-1,False,2019_Jun_13_1231,Yes-No Task,3,WOAN27,
Yes-No Task,33,0,33,0,14.3,-1,Correct Rejection,0.433588100132,False,-1,stimulus_WOAN27_Yes-No Task_2019_Jun_13_1231_34,-1,False,2019_Jun_13_1231,Yes-No Task,3,WOAN27,
Yes-No Task,34,0,34,0,14.3,-1,Hit,0.435638599796,True,-1,stimulus_WOAN27_Yes-No Task_2019_Jun_13_1231_35,-1,False,2019_Jun_13_1231,Yes-No Task,3,WOAN27,
Yes-No Task,35,0,35,0,14.3,-1,Correct Rejection,0.599812999833,False,-1,stimulus_WOAN27_Yes-No Task_2019_Jun_13_1231_36,-1,False,2019_Jun_13_1231,Yes-No Task,3,WOAN27,
Yes-No Task,36,0,36,0,14.3,-1,Hit,0.467272500042,True,-1,stimulus_WOAN27_Yes-No Task_2019_Jun_13_1231_37,-1,False,2019_Jun_13_1231,Yes-No Task,3,WOAN27,
Yes-No Task,37,0,37,0,14.3,-1,Hit,0.534749099985,True,-1,stimulus_WOAN27_Yes-No Task_2019_Jun_13_1231_38,-1,False,2019_Jun_13_1231,Yes-No Task,3,WOAN27,
Yes-No Task,38,0,38,0,14.3,-1,Correct Rejection,0.734279900091,False,-1,stimulus_WOAN27_Yes-No Task_2019_Jun_13_1231_39,-1,False,2019_Jun_13_1231,Yes-No Task,3,WOAN27,
Yes-No Task,39,0,39,0,14.3,-1,Hit,0.399857900105,True,-1,stimulus_WOAN27_Yes-No Task_2019_Jun_13_1231_40,-1,False,2019_Jun_13_1231,Yes-No Task,3,WOAN27,
Yes-No Task,40,0,40,0,14.3,-1,Hit,0.500975199975,True,-1,stimulus_WOAN27_Yes-No Task_2019_Jun_13_1231_41,-1,False,2019_Jun_13_1231,Yes-No Task,3,WOAN27,
Yes-No Task,41,0,41,0,14.3,-1,Correct Rejection,0.53427009983,False,-1,stimulus_WOAN27_Yes-No Task_2019_Jun_13_1231_42,-1,False,2019_Jun_13_1231,Yes-No Task,3,WOAN27,
Yes-No Task,42,0,42,0,14.3,-1,Hit,0.399900899967,True,-1,stimulus_WOAN27_Yes-No Task_2019_Jun_13_1231_43,-1,False,2019_Jun_13_1231,Yes-No Task,3,WOAN27,
Yes-No Task,43,0,43,0,14.3,-1,Miss,0.366771799978,True,-1,stimulus_WOAN27_Yes-No Task_2019_Jun_13_1231_44,-1,False,2019_Jun_13_1231,Yes-No Task,3,WOAN27,
Yes-No Task,44,0,44,0,14.3,-1,Hit,0.499585599871,True,-1,stimulus_WOAN27_Yes-No Task_2019_Jun_13_1231_45,-1,False,2019_Jun_13_1231,Yes-No Task,3,WOAN27,
Yes-No Task,45,0,45,0,14.3,-1,Hit,0.367847100133,True,-1,stimulus_WOAN27_Yes-No Task_2019_Jun_13_1231_46,-1,False,2019_Jun_13_1231,Yes-No Task,3,WOAN27,
Yes-No Task,46,0,46,0,14.3,-1,Correct Rejection,0.43427149998,False,-1,stimulus_WOAN27_Yes-No Task_2019_Jun_13_1231_47,-1,False,2019_Jun_13_1231,Yes-No Task,3,WOAN27,
Yes-No Task,47,0,47,0,14.3,-1,Correct Rejection,0.400431900052,False,-1,stimulus_WOAN27_Yes-No Task_2019_Jun_13_1231_48,-1,False,2019_Jun_13_1231,Yes-No Task,3,WOAN27,
Yes-No Task,48,0,48,0,14.3,-1,Hit,0.466302799992,True,-1,stimulus_WOAN27_Yes-No Task_2019_Jun_13_1231_49,-1,False,2019_Jun_13_1231,Yes-No Task,3,WOAN27,
Yes-No Task,49,0,49,0,14.3,-1,Correct Rejection,0.633846200071,False,-1,stimulus_WOAN27_Yes-No Task_2019_Jun_13_1231_50,-1,False,2019_Jun_13_1231,Yes-No Task,3,WOAN27,
Yes-No Task,50,0,50,0,14.3,-1,Hit,0.467105800053,True,-1,stimulus_WOAN27_Yes-No Task_2019_Jun_13_1231_51,-1,False,2019_Jun_13_1231,Yes-No Task,3,WOAN27,
Yes-No Task,51,0,51,0,14.3,-1,Hit,0.602329999907,True,-1,stimulus_WOAN27_Yes-No Task_2019_Jun_13_1231_52,-1,False,2019_Jun_13_1231,Yes-No Task,3,WOAN27,
Yes-No Task,52,0,52,0,14.3,-1,Hit,0.40050940006,True,-1,stimulus_WOAN27_Yes-No Task_2019_Jun_13_1231_53,-1,False,2019_Jun_13_1231,Yes-No Task,3,WOAN27,
Yes-No Task,53,0,53,0,14.3,-1,Correct Rejection,0.437674199929,False,-1,stimulus_WOAN27_Yes-No Task_2019_Jun_13_1231_54,-1,False,2019_Jun_13_1231,Yes-No Task,3,WOAN27,
Yes-No Task,54,0,54,0,14.3,-1,Correct Rejection,0.501238400117,False,-1,stimulus_WOAN27_Yes-No Task_2019_Jun_13_1231_55,-1,False,2019_Jun_13_1231,Yes-No Task,3,WOAN27,
Yes-No Task,55,0,55,0,14.3,-1,Hit,0.501090799924,True,-1,stimulus_WOAN27_Yes-No Task_2019_Jun_13_1231_56,-1,False,2019_Jun_13_1231,Yes-No Task,3,WOAN27,
Yes-No Task,56,0,56,0,14.3,-1,Hit,0.432552799815,True,-1,stimulus_WOAN27_Yes-No Task_2019_Jun_13_1231_57,-1,False,2019_Jun_13_1231,Yes-No Task,3,WOAN27,
Yes-No Task,57,0,57,0,14.3,-1,Hit,0.533016699832,True,-1,stimulus_WOAN27_Yes-No Task_2019_Jun_13_1231_58,-1,False,2019_Jun_13_1231,Yes-No Task,3,WOAN27,
Yes-No Task,58,0,58,0,14.3,-1,Hit,0.467243500054,True,-1,stimulus_WOAN27_Yes-No Task_2019_Jun_13_1231_59,-1,False,2019_Jun_13_1231,Yes-No Task,3,WOAN27,
Yes-No Task,59,0,59,0,14.3,-1,False Alarm,0.435215499951,False,-1,stimulus_WOAN27_Yes-No Task_2019_Jun_13_1231_60,-1,False,2019_Jun_13_1231,Yes-No Task,3,WOAN27,
Yes-No Task,60,0,60,0,14.3,-1,Correct Rejection,0.467974800151,False,-1,stimulus_WOAN27_Yes-No Task_2019_Jun_13_1231_61,-1,False,2019_Jun_13_1231,Yes-No Task,3,WOAN27,
Yes-No Task,61,0,61,0,14.3,-1,Hit,0.433814400109,True,-1,stimulus_WOAN27_Yes-No Task_2019_Jun_13_1231_62,-1,False,2019_Jun_13_1231,Yes-No Task,3,WOAN27,
Yes-No Task,62,0,62,0,14.3,-1,Hit,0.468109500129,True,-1,stimulus_WOAN27_Yes-No Task_2019_Jun_13_1231_63,-1,False,2019_Jun_13_1231,Yes-No Task,3,WOAN27,
Yes-No Task,63,0,63,0,14.3,-1,Correct Rejection,0.434216100024,False,-1,stimulus_WOAN27_Yes-No Task_2019_Jun_13_1231_64,-1,False,2019_Jun_13_1231,Yes-No Task,3,WOAN27,
Yes-No Task,64,0,64,0,14.3,-1,Correct Rejection,0.399055399932,False,-1,stimulus_WOAN27_Yes-No Task_2019_Jun_13_1231_65,-1,False,2019_Jun_13_1231,Yes-No Task,3,WOAN27,
Yes-No Task,65,0,65,0,14.3,-1,Hit,0.436217400013,True,-1,stimulus_WOAN27_Yes-No Task_2019_Jun_13_1231_66,-1,False,2019_Jun_13_1231,Yes-No Task,3,WOAN27,
Yes-No Task,66,0,66,0,14.3,-1,Hit,0.466495300177,True,-1,stimulus_WOAN27_Yes-No Task_2019_Jun_13_1231_67,-1,False,2019_Jun_13_1231,Yes-No Task,3,WOAN27,
Yes-No Task,67,0,67,0,14.3,-1,Hit,0.467344899895,True,-1,stimulus_WOAN27_Yes-No Task_2019_Jun_13_1231_68,-1,False,2019_Jun_13_1231,Yes-No Task,3,WOAN27,
Yes-No Task,68,0,68,0,14.3,-1,Hit,0.434602100169,True,-1,stimulus_WOAN27_Yes-No Task_2019_Jun_13_1231_69,-1,False,2019_Jun_13_1231,Yes-No Task,3,WOAN27,
Yes-No Task,69,0,69,0,14.3,-1,Correct Rejection,0.500687699998,False,-1,stimulus_WOAN27_Yes-No Task_2019_Jun_13_1231_70,-1,False,2019_Jun_13_1231,Yes-No Task,3,WOAN27,
Yes-No Task,70,0,70,0,14.3,-1,Correct Rejection,0.466934100026,False,-1,stimulus_WOAN27_Yes-No Task_2019_Jun_13_1231_71,-1,False,2019_Jun_13_1231,Yes-No Task,3,WOAN27,
Yes-No Task,71,0,71,0,14.3,-1,Correct Rejection,0.467178300023,False,-1,stimulus_WOAN27_Yes-No Task_2019_Jun_13_1231_72,-1,False,2019_Jun_13_1231,Yes-No Task,3,WOAN27,
Yes-No Task,72,0,72,0,14.3,-1,Correct Rejection,0.433760699816,False,-1,stimulus_WOAN27_Yes-No Task_2019_Jun_13_1231_73,-1,False,2019_Jun_13_1231,Yes-No Task,3,WOAN27,
Yes-No Task,73,0,73,0,14.3,-1,Hit,0.433267999906,True,-1,stimulus_WOAN27_Yes-No Task_2019_Jun_13_1231_74,-1,False,2019_Jun_13_1231,Yes-No Task,3,WOAN27,
Yes-No Task,74,0,74,0,14.3,-1,Correct Rejection,0.400439399993,False,-1,stimulus_WOAN27_Yes-No Task_2019_Jun_13_1231_75,-1,False,2019_Jun_13_1231,Yes-No Task,3,WOAN27,
Yes-No Task,0,0,0,0,12.4,-1,Miss,0.766794799827,True,-1,stimulus_WOAN27_Yes-No Task_2019_Jun_13_1231_76,-1,False,2019_Jun_13_1231,Yes-No Task,3,WOAN27,
Yes-No Task,1,0,1,0,12.4,-1,Correct Rejection,0.567126299953,False,-1,stimulus_WOAN27_Yes-No Task_2019_Jun_13_1231_77,-1,False,2019_Jun_13_1231,Yes-No Task,3,WOAN27,
Yes-No Task,2,0,2,0,12.4,-1,Hit,0.400658200029,True,-1,stimulus_WOAN27_Yes-No Task_2019_Jun_13_1231_78,-1,False,2019_Jun_13_1231,Yes-No Task,3,WOAN27,
Yes-No Task,3,0,3,0,12.4,-1,Hit,0.467805600027,True,-1,stimulus_WOAN27_Yes-No Task_2019_Jun_13_1231_79,-1,False,2019_Jun_13_1231,Yes-No Task,3,WOAN27,
Yes-No Task,4,0,4,0,12.4,-1,Correct Rejection,0.434834100073,False,-1,stimulus_WOAN27_Yes-No Task_2019_Jun_13_1231_80,-1,False,2019_Jun_13_1231,Yes-No Task,3,WOAN27,
Yes-No Task,5,0,5,0,12.4,-1,Correct Rejection,0.433861100115,False,-1,stimulus_WOAN27_Yes-No Task_2019_Jun_13_1231_81,-1,False,2019_Jun_13_1231,Yes-No Task,3,WOAN27,
Yes-No Task,6,0,6,0,12.4,-1,Hit,0.400141800055,True,-1,stimulus_WOAN27_Yes-No Task_2019_Jun_13_1231_82,-1,False,2019_Jun_13_1231,Yes-No Task,3,WOAN27,
Yes-No Task,7,0,7,0,12.4,-1,Correct Rejection,0.400016000029,False,-1,stimulus_WOAN27_Yes-No Task_2019_Jun_13_1231_83,-1,False,2019_Jun_13_1231,Yes-No Task,3,WOAN27,
Yes-No Task,8,0,8,0,12.4,-1,Correct Rejection,0.500941099832,False,-1,stimulus_WOAN27_Yes-No Task_2019_Jun_13_1231_84,-1,False,2019_Jun_13_1231,Yes-No Task,3,WOAN27,
Yes-No Task,9,0,9,0,12.4,-1,Correct Rejection,0.533844100079,False,-1,stimulus_WOAN27_Yes-No Task_2019_Jun_13_1231_85,-1,False,2019_Jun_13_1231,Yes-No Task,3,WOAN27,
Yes-No Task,10,0,10,0,12.4,-1,Hit,0.366201300174,True,-1,stimulus_WOAN27_Yes-No Task_2019_Jun_13_1231_86,-1,False,2019_Jun_13_1231,Yes-No Task,3,WOAN27,
Yes-No Task,11,0,11,0,12.4,-1,Hit,0.467133700149,True,-1,stimulus_WOAN27_Yes-No Task_2019_Jun_13_1231_87,-1,False,2019_Jun_13_1231,Yes-No Task,3,WOAN27,
Yes-No Task,12,0,12,0,12.4,-1,Hit,0.434240800096,True,-1,stimulus_WOAN27_Yes-No Task_2019_Jun_13_1231_88,-1,False,2019_Jun_13_1231,Yes-No Task,3,WOAN27,
Yes-No Task,13,0,13,0,12.4,-1,Hit,0.466716900002,True,-1,stimulus_WOAN27_Yes-No Task_2019_Jun_13_1231_89,-1,False,2019_Jun_13_1231,Yes-No Task,3,WOAN27,
Yes-No Task,14,0,14,0,12.4,-1,Hit,0.36707259994,True,-1,stimulus_WOAN27_Yes-No Task_2019_Jun_13_1231_90,-1,False,2019_Jun_13_1231,Yes-No Task,3,WOAN27,
Yes-No Task,15,0,15,0,12.4,-1,Hit,0.46695729997,True,-1,stimulus_WOAN27_Yes-No Task_2019_Jun_13_1231_91,-1,False,2019_Jun_13_1231,Yes-No Task,3,WOAN27,
Yes-No Task,16,0,16,0,12.4,-1,Correct Rejection,0.567371599842,False,-1,stimulus_WOAN27_Yes-No Task_2019_Jun_13_1231_92,-1,False,2019_Jun_13_1231,Yes-No Task,3,WOAN27,
Yes-No Task,17,0,17,0,12.4,-1,Correct Rejection,0.467215599958,False,-1,stimulus_WOAN27_Yes-No Task_2019_Jun_13_1231_93,-1,False,2019_Jun_13_1231,Yes-No Task,3,WOAN27,
Yes-No Task,18,0,18,0,12.4,-1,Correct Rejection,0.434601899935,False,-1,stimulus_WOAN27_Yes-No Task_2019_Jun_13_1231_94,-1,False,2019_Jun_13_1231,Yes-No Task,3,WOAN27,
Yes-No Task,19,0,19,0,12.4,-1,Hit,0.432615000056,True,-1,stimulus_WOAN27_Yes-No Task_2019_Jun_13_1231_95,-1,False,2019_Jun_13_1231,Yes-No Task,3,WOAN27,
Yes-No Task,20,0,20,0,12.4,-1,Correct Rejection,0.50100030005,False,-1,stimulus_WOAN27_Yes-No Task_2019_Jun_13_1231_96,-1,False,2019_Jun_13_1231,Yes-No Task,3,WOAN27,
Yes-No Task,21,0,21,0,12.4,-1,Correct Rejection,0.467498800019,False,-1,stimulus_WOAN27_Yes-No Task_2019_Jun_13_1231_97,-1,False,2019_Jun_13_1231,Yes-No Task,3,WOAN27,
Yes-No Task,22,0,22,0,12.4,-1,Correct Rejection,0.46695780009,False,-1,stimulus_WOAN27_Yes-No Task_2019_Jun_13_1231_98,-1,False,2019_Jun_13_1231,Yes-No Task,3,WOAN27,
Yes-No Task,23,0,23,0,12.4,-1,Hit,0.434746799991,True,-1,stimulus_WOAN27_Yes-No Task_2019_Jun_13_1231_99,-1,False,2019_Jun_13_1231,Yes-No Task,3,WOAN27,
Yes-No Task,24,0,24,0,12.4,-1,Hit,0.400682999985,True,-1,stimulus_WOAN27_Yes-No Task_2019_Jun_13_1231_100,-1,False,2019_Jun_13_1231,Yes-No Task,3,WOAN27,
Yes-No Task,25,0,25,0,12.4,-1,False Alarm,0.465951699996,False,-1,stimulus_WOAN27_Yes-No Task_2019_Jun_13_1231_101,-1,False,2019_Jun_13_1231,Yes-No Task,3,WOAN27,
Yes-No Task,26,0,26,0,12.4,-1,Hit,0.467219100101,True,-1,stimulus_WOAN27_Yes-No Task_2019_Jun_13_1231_102,-1,False,2019_Jun_13_1231,Yes-No Task,3,WOAN27,
Yes-No Task,27,0,27,0,12.4,-1,Hit,0.433994499967,True,-1,stimulus_WOAN27_Yes-No Task_2019_Jun_13_1231_103,-1,False,2019_Jun_13_1231,Yes-No Task,3,WOAN27,
Yes-No Task,28,0,28,0,12.4,-1,Hit,0.433426900068,True,-1,stimulus_WOAN27_Yes-No Task_2019_Jun_13_1231_104,-1,False,2019_Jun_13_1231,Yes-No Task,3,WOAN27,
Yes-No Task,29,0,29,0,12.4,-1,Hit,0.433643799974,True,-1,stimulus_WOAN27_Yes-No Task_2019_Jun_13_1231_105,-1,False,2019_Jun_13_1231,Yes-No Task,3,WOAN27,
Yes-No Task,30,0,30,0,12.4,-1,Correct Rejection,0.566997800022,False,-1,stimulus_WOAN27_Yes-No Task_2019_Jun_13_1231_106,-1,False,2019_Jun_13_1231,Yes-No Task,3,WOAN27,
Yes-No Task,31,0,31,0,12.4,-1,Correct Rejection,0.400029000128,False,-1,stimulus_WOAN27_Yes-No Task_2019_Jun_13_1231_107,-1,False,2019_Jun_13_1231,Yes-No Task,3,WOAN27,
Yes-No Task,32,0,32,0,12.4,-1,Correct Rejection,0.433370999992,False,-1,stimulus_WOAN27_Yes-No Task_2019_Jun_13_1231_108,-1,False,2019_Jun_13_1231,Yes-No Task,3,WOAN27,
Yes-No Task,33,0,33,0,12.4,-1,Hit,0.433948599966,True,-1,stimulus_WOAN27_Yes-No Task_2019_Jun_13_1231_109,-1,False,2019_Jun_13_1231,Yes-No Task,3,WOAN27,
Yes-No Task,34,0,34,0,12.4,-1,Correct Rejection,0.433796100086,False,-1,stimulus_WOAN27_Yes-No Task_2019_Jun_13_1231_110,-1,False,2019_Jun_13_1231,Yes-No Task,3,WOAN27,
Yes-No Task,35,0,35,0,12.4,-1,Hit,0.433306399966,True,-1,stimulus_WOAN27_Yes-No Task_2019_Jun_13_1231_111,-1,False,2019_Jun_13_1231,Yes-No Task,3,WOAN27,
Yes-No Task,36,0,36,0,12.4,-1,Hit,0.466356599936,True,-1,stimulus_WOAN27_Yes-No Task_2019_Jun_13_1231_112,-1,False,2019_Jun_13_1231,Yes-No Task,3,WOAN27,
Yes-No Task,37,0,37,0,12.4,-1,Hit,0.433254400035,True,-1,stimulus_WOAN27_Yes-No Task_2019_Jun_13_1231_113,-1,False,2019_Jun_13_1231,Yes-No Task,3,WOAN27,
Yes-No Task,38,0,38,0,12.4,-1,Correct Rejection,0.570201199967,False,-1,stimulus_WOAN27_Yes-No Task_2019_Jun_13_1231_114,-1,False,2019_Jun_13_1231,Yes-No Task,3,WOAN27,
Yes-No Task,39,0,39,0,12.4,-1,Correct Rejection,0.435754600214,False,-1,stimulus_WOAN27_Yes-No Task_2019_Jun_13_1231_115,-1,False,2019_Jun_13_1231,Yes-No Task,3,WOAN27,
Yes-No Task,40,0,40,0,12.4,-1,Correct Rejection,0.46624609991,False,-1,stimulus_WOAN27_Yes-No Task_2019_Jun_13_1231_116,-1,False,2019_Jun_13_1231,Yes-No Task,3,WOAN27,
Yes-No Task,41,0,41,0,12.4,-1,Correct Rejection,0.434604200069,False,-1,stimulus_WOAN27_Yes-No Task_2019_Jun_13_1231_117,-1,False,2019_Jun_13_1231,Yes-No Task,3,WOAN27,
Yes-No Task,42,0,42,0,12.4,-1,Correct Rejection,0.467039100127,False,-1,stimulus_WOAN27_Yes-No Task_2019_Jun_13_1231_118,-1,False,2019_Jun_13_1231,Yes-No Task,3,WOAN27,
Yes-No Task,43,0,43,0,12.4,-1,Correct Rejection,0.434084399836,False,-1,stimulus_WOAN27_Yes-No Task_2019_Jun_13_1231_119,-1,False,2019_Jun_13_1231,Yes-No Task,3,WOAN27,
Yes-No Task,44,0,44,0,12.4,-1,Correct Rejection,0.468475600006,False,-1,stimulus_WOAN27_Yes-No Task_2019_Jun_13_1231_120,-1,False,2019_Jun_13_1231,Yes-No Task,3,WOAN27,
Yes-No Task,45,0,45,0,12.4,-1,Hit,0.4668695,True,-1,stimulus_WOAN27_Yes-No Task_2019_Jun_13_1231_121,-1,False,2019_Jun_13_1231,Yes-No Task,3,WOAN27,
Yes-No Task,46,0,46,0,12.4,-1,Correct Rejection,0.533775200136,False,-1,stimulus_WOAN27_Yes-No Task_2019_Jun_13_1231_122,-1,False,2019_Jun_13_1231,Yes-No Task,3,WOAN27,
Yes-No Task,47,0,47,0,12.4,-1,Correct Rejection,0.434551800136,False,-1,stimulus_WOAN27_Yes-No Task_2019_Jun_13_1231_123,-1,False,2019_Jun_13_1231,Yes-No Task,3,WOAN27,
Yes-No Task,48,0,48,0,12.4,-1,Correct Rejection,0.468887099996,False,-1,stimulus_WOAN27_Yes-No Task_2019_Jun_13_1231_124,-1,False,2019_Jun_13_1231,Yes-No Task,3,WOAN27,
Yes-No Task,49,0,49,0,12.4,-1,Correct Rejection,0.50074999989,False,-1,stimulus_WOAN27_Yes-No Task_2019_Jun_13_1231_125,-1,False,2019_Jun_13_1231,Yes-No Task,3,WOAN27,
Yes-No Task,50,0,50,0,12.4,-1,Correct Rejection,0.633357399842,False,-1,stimulus_WOAN27_Yes-No Task_2019_Jun_13_1231_126,-1,False,2019_Jun_13_1231,Yes-No Task,3,WOAN27,
Yes-No Task,51,0,51,0,12.4,-1,Hit,0.433493799996,True,-1,stimulus_WOAN27_Yes-No Task_2019_Jun_13_1231_127,-1,False,2019_Jun_13_1231,Yes-No Task,3,WOAN27,
Yes-No Task,52,0,52,0,12.4,-1,Hit,0.470779299969,True,-1,stimulus_WOAN27_Yes-No Task_2019_Jun_13_1231_128,-1,False,2019_Jun_13_1231,Yes-No Task,3,WOAN27,
Yes-No Task,53,0,53,0,12.4,-1,Hit,0.467079899972,True,-1,stimulus_WOAN27_Yes-No Task_2019_Jun_13_1231_129,-1,False,2019_Jun_13_1231,Yes-No Task,3,WOAN27,
Yes-No Task,54,0,54,0,12.4,-1,Hit,0.400610999903,True,-1,stimulus_WOAN27_Yes-No Task_2019_Jun_13_1231_130,-1,False,2019_Jun_13_1231,Yes-No Task,3,WOAN27,
Yes-No Task,55,0,55,0,12.4,-1,Hit,0.433701399947,True,-1,stimulus_WOAN27_Yes-No Task_2019_Jun_13_1231_131,-1,False,2019_Jun_13_1231,Yes-No Task,3,WOAN27,
Yes-No Task,56,0,56,0,12.4,-1,Miss,0.367322499864,True,-1,stimulus_WOAN27_Yes-No Task_2019_Jun_13_1231_132,-1,False,2019_Jun_13_1231,Yes-No Task,3,WOAN27,
Yes-No Task,57,0,57,0,12.4,-1,Correct Rejection,0.400583399925,False,-1,stimulus_WOAN27_Yes-No Task_2019_Jun_13_1231_133,-1,False,2019_Jun_13_1231,Yes-No Task,3,WOAN27,
Yes-No Task,58,0,58,0,12.4,-1,Hit,0.466523500159,True,-1,stimulus_WOAN27_Yes-No Task_2019_Jun_13_1231_134,-1,False,2019_Jun_13_1231,Yes-No Task,3,WOAN27,
Yes-No Task,59,0,59,0,12.4,-1,Hit,0.435796199832,True,-1,stimulus_WOAN27_Yes-No Task_2019_Jun_13_1231_135,-1,False,2019_Jun_13_1231,Yes-No Task,3,WOAN27,
Yes-No Task,60,0,60,0,12.4,-1,Correct Rejection,0.46749810013,False,-1,stimulus_WOAN27_Yes-No Task_2019_Jun_13_1231_136,-1,False,2019_Jun_13_1231,Yes-No Task,3,WOAN27,
Yes-No Task,61,0,61,0,12.4,-1,Correct Rejection,0.46690670005,False,-1,stimulus_WOAN27_Yes-No Task_2019_Jun_13_1231_137,-1,False,2019_Jun_13_1231,Yes-No Task,3,WOAN27,
Yes-No Task,62,0,62,0,12.4,-1,Hit,0.500833700178,True,-1,stimulus_WOAN27_Yes-No Task_2019_Jun_13_1231_138,-1,False,2019_Jun_13_1231,Yes-No Task,3,WOAN27,
Yes-No Task,63,0,63,0,12.4,-1,Hit,0.434000800131,True,-1,stimulus_WOAN27_Yes-No Task_2019_Jun_13_1231_139,-1,False,2019_Jun_13_1231,Yes-No Task,3,WOAN27,
Yes-No Task,64,0,64,0,12.4,-1,Correct Rejection,0.534997200128,False,-1,stimulus_WOAN27_Yes-No Task_2019_Jun_13_1231_140,-1,False,2019_Jun_13_1231,Yes-No Task,3,WOAN27,
Yes-No Task,65,0,65,0,12.4,-1,Correct Rejection,0.533855599817,False,-1,stimulus_WOAN27_Yes-No Task_2019_Jun_13_1231_141,-1,False,2019_Jun_13_1231,Yes-No Task,3,WOAN27,
Yes-No Task,66,0,66,0,12.4,-1,Correct Rejection,0.533709400101,False,-1,stimulus_WOAN27_Yes-No Task_2019_Jun_13_1231_142,-1,False,2019_Jun_13_1231,Yes-No Task,3,WOAN27,
Yes-No Task,67,0,67,0,12.4,-1,Hit,0.433159600012,True,-1,stimulus_WOAN27_Yes-No Task_2019_Jun_13_1231_143,-1,False,2019_Jun_13_1231,Yes-No Task,3,WOAN27,
Yes-No Task,68,0,68,0,12.4,-1,Correct Rejection,0.467110899976,False,-1,stimulus_WOAN27_Yes-No Task_2019_Jun_13_1231_144,-1,False,2019_Jun_13_1231,Yes-No Task,3,WOAN27,
Yes-No Task,69,0,69,0,12.4,-1,Hit,0.367152599851,True,-1,stimulus_WOAN27_Yes-No Task_2019_Jun_13_1231_145,-1,False,2019_Jun_13_1231,Yes-No Task,3,WOAN27,
Yes-No Task,70,0,70,0,12.4,-1,Hit,0.467076299945,True,-1,stimulus_WOAN27_Yes-No Task_2019_Jun_13_1231_146,-1,False,2019_Jun_13_1231,Yes-No Task,3,WOAN27,
Yes-No Task,71,0,71,0,12.4,-1,Hit,0.533526999876,True,-1,stimulus_WOAN27_Yes-No Task_2019_Jun_13_1231_147,-1,False,2019_Jun_13_1231,Yes-No Task,3,WOAN27,
Yes-No Task,72,0,72,0,12.4,-1,Hit,0.366829400184,True,-1,stimulus_WOAN27_Yes-No Task_2019_Jun_13_1231_148,-1,False,2019_Jun_13_1231,Yes-No Task,3,WOAN27,
Yes-No Task,73,0,73,0,12.4,-1,Correct Rejection,0.368399099912,False,-1,stimulus_WOAN27_Yes-No Task_2019_Jun_13_1231_149,-1,False,2019_Jun_13_1231,Yes-No Task,3,WOAN27,
Yes-No Task,74,0,74,0,12.4,-1,Hit,0.500496500172,True,-1,stimulus_WOAN27_Yes-No Task_2019_Jun_13_1231_150,-1,False,2019_Jun_13_1231,Yes-No Task,3,WOAN27,
Yes-No Task,0,0,0,0,3.8,-1,No Answer,-1,False,-1,stimulus_WOAN27_Yes-No Task_2019_Jun_13_1231_151,-1,False,2019_Jun_13_1231,Yes-No Task,3,WOAN27,
Yes-No Task,1,0,1,0,3.8,-1,Correct Rejection,0.5008256,False,-1,stimulus_WOAN27_Yes-No Task_2019_Jun_13_1231_152,-1,False,2019_Jun_13_1231,Yes-No Task,3,WOAN27,
Yes-No Task,2,0,2,0,3.8,-1,Correct Rejection,0.400559299858,False,-1,stimulus_WOAN27_Yes-No Task_2019_Jun_13_1231_153,-1,False,2019_Jun_13_1231,Yes-No Task,3,WOAN27,
Yes-No Task,3,0,3,0,3.8,-1,Correct Rejection,0.4016481,False,-1,stimulus_WOAN27_Yes-No Task_2019_Jun_13_1231_154,-1,False,2019_Jun_13_1231,Yes-No Task,3,WOAN27,
Yes-No Task,4,0,4,0,3.8,-1,Correct Rejection,0.401241299929,False,-1,stimulus_WOAN27_Yes-No Task_2019_Jun_13_1231_155,-1,False,2019_Jun_13_1231,Yes-No Task,3,WOAN27,
Yes-No Task,5,0,5,0,3.8,-1,Miss,0.433565699961,True,-1,stimulus_WOAN27_Yes-No Task_2019_Jun_13_1231_156,-1,False,2019_Jun_13_1231,Yes-No Task,3,WOAN27,
Yes-No Task,6,0,6,0,3.8,-1,Correct Rejection,0.400124700041,False,-1,stimulus_WOAN27_Yes-No Task_2019_Jun_13_1231_157,-1,False,2019_Jun_13_1231,Yes-No Task,3,WOAN27,
Yes-No Task,7,0,7,0,3.8,-1,Miss,0.533837300027,True,-1,stimulus_WOAN27_Yes-No Task_2019_Jun_13_1231_158,-1,False,2019_Jun_13_1231,Yes-No Task,3,WOAN27,
Yes-No Task,8,0,8,0,3.8,-1,Correct Rejection,0.367667300161,False,-1,stimulus_WOAN27_Yes-No Task_2019_Jun_13_1231_159,-1,False,2019_Jun_13_1231,Yes-No Task,3,WOAN27,
Yes-No Task,9,0,9,0,3.8,-1,Hit,0.668912200024,True,-1,stimulus_WOAN27_Yes-No Task_2019_Jun_13_1231_160,-1,False,2019_Jun_13_1231,Yes-No Task,3,WOAN27,
Yes-No Task,10,0,10,0,3.8,-1,Hit,0.566962899873,True,-1,stimulus_WOAN27_Yes-No Task_2019_Jun_13_1231_161,-1,False,2019_Jun_13_1231,Yes-No Task,3,WOAN27,
Yes-No Task,11,0,11,0,3.8,-1,Miss,0.466240300098,True,-1,stimulus_WOAN27_Yes-No Task_2019_Jun_13_1231_162,-1,False,2019_Jun_13_1231,Yes-No Task,3,WOAN27,
Yes-No Task,12,0,12,0,3.8,-1,Miss,0.533971499885,True,-1,stimulus_WOAN27_Yes-No Task_2019_Jun_13_1231_163,-1,False,2019_Jun_13_1231,Yes-No Task,3,WOAN27,
Yes-No Task,13,0,13,0,3.8,-1,Miss,0.633880200097,True,-1,stimulus_WOAN27_Yes-No Task_2019_Jun_13_1231_164,-1,False,2019_Jun_13_1231,Yes-No Task,3,WOAN27,
Yes-No Task,14,0,14,0,3.8,-1,Correct Rejection,0.567143900087,False,-1,stimulus_WOAN27_Yes-No Task_2019_Jun_13_1231_165,-1,False,2019_Jun_13_1231,Yes-No Task,3,WOAN27,
Yes-No Task,15,0,15,0,3.8,-1,Correct Rejection,0.634632000001,False,-1,stimulus_WOAN27_Yes-No Task_2019_Jun_13_1231_166,-1,False,2019_Jun_13_1231,Yes-No Task,3,WOAN27,
Yes-No Task,16,0,16,0,3.8,-1,False Alarm,0.76589309983,False,-1,stimulus_WOAN27_Yes-No Task_2019_Jun_13_1231_167,-1,False,2019_Jun_13_1231,Yes-No Task,3,WOAN27,
Yes-No Task,17,0,17,0,3.8,-1,No Answer,-1,True,-1,stimulus_WOAN27_Yes-No Task_2019_Jun_13_1231_168,-1,False,2019_Jun_13_1231,Yes-No Task,3,WOAN27,
Yes-No Task,18,0,18,0,3.8,-1,Miss,0.600067299791,True,-1,stimulus_WOAN27_Yes-No Task_2019_Jun_13_1231_169,-1,False,2019_Jun_13_1231,Yes-No Task,3,WOAN27,
Yes-No Task,19,0,19,0,3.8,-1,Correct Rejection,0.635107199894,False,-1,stimulus_WOAN27_Yes-No Task_2019_Jun_13_1231_170,-1,False,2019_Jun_13_1231,Yes-No Task,3,WOAN27,
Yes-No Task,20,0,20,0,3.8,-1,Hit,0.466821199981,True,-1,stimulus_WOAN27_Yes-No Task_2019_Jun_13_1231_171,-1,False,2019_Jun_13_1231,Yes-No Task,3,WOAN27,
Yes-No Task,21,0,21,0,3.8,-1,Hit,0.633968800073,True,-1,stimulus_WOAN27_Yes-No Task_2019_Jun_13_1231_172,-1,False,2019_Jun_13_1231,Yes-No Task,3,WOAN27,
Yes-No Task,22,0,22,0,3.8,-1,Miss,0.60031460016,True,-1,stimulus_WOAN27_Yes-No Task_2019_Jun_13_1231_173,-1,False,2019_Jun_13_1231,Yes-No Task,3,WOAN27,
Yes-No Task,23,0,23,0,3.8,-1,Hit,0.465912200045,True,-1,stimulus_WOAN27_Yes-No Task_2019_Jun_13_1231_174,-1,False,2019_Jun_13_1231,Yes-No Task,3,WOAN27,
Yes-No Task,24,0,24,0,3.8,-1,Hit,0.567301000003,True,-1,stimulus_WOAN27_Yes-No Task_2019_Jun_13_1231_175,-1,False,2019_Jun_13_1231,Yes-No Task,3,WOAN27,
Yes-No Task,25,0,25,0,3.8,-1,Correct Rejection,0.632397700101,False,-1,stimulus_WOAN27_Yes-No Task_2019_Jun_13_1231_176,-1,False,2019_Jun_13_1231,Yes-No Task,3,WOAN27,
Yes-No Task,26,0,26,0,3.8,-1,Hit,0.634252400137,True,-1,stimulus_WOAN27_Yes-No Task_2019_Jun_13_1231_177,-1,False,2019_Jun_13_1231,Yes-No Task,3,WOAN27,
Yes-No Task,27,0,27,0,3.8,-1,Hit,0.601621899987,True,-1,stimulus_WOAN27_Yes-No Task_2019_Jun_13_1231_178,-1,False,2019_Jun_13_1231,Yes-No Task,3,WOAN27,
Yes-No Task,28,0,28,0,3.8,-1,Correct Rejection,0.634261900093,False,-1,stimulus_WOAN27_Yes-No Task_2019_Jun_13_1231_179,-1,False,2019_Jun_13_1231,Yes-No Task,3,WOAN27,
Yes-No Task,29,0,29,0,3.8,-1,Miss,0.734001500066,True,-1,stimulus_WOAN27_Yes-No Task_2019_Jun_13_1231_180,-1,False,2019_Jun_13_1231,Yes-No Task,3,WOAN27,
Yes-No Task,30,0,30,0,3.8,-1,Correct Rejection,0.433325200109,False,-1,stimulus_WOAN27_Yes-No Task_2019_Jun_13_1231_181,-1,False,2019_Jun_13_1231,Yes-No Task,3,WOAN27,
Yes-No Task,31,0,31,0,3.8,-1,False Alarm,0.466910299845,False,-1,stimulus_WOAN27_Yes-No Task_2019_Jun_13_1231_182,-1,False,2019_Jun_13_1231,Yes-No Task,3,WOAN27,
Yes-No Task,32,0,32,0,3.8,-1,Correct Rejection,0.633726099972,False,-1,stimulus_WOAN27_Yes-No Task_2019_Jun_13_1231_183,-1,False,2019_Jun_13_1231,Yes-No Task,3,WOAN27,
Yes-No Task,33,0,33,0,3.8,-1,Miss,0.56949870009,True,-1,stimulus_WOAN27_Yes-No Task_2019_Jun_13_1231_184,-1,False,2019_Jun_13_1231,Yes-No Task,3,WOAN27,
Yes-No Task,34,0,34,0,3.8,-1,Hit,0.633924300084,True,-1,stimulus_WOAN27_Yes-No Task_2019_Jun_13_1231_185,-1,False,2019_Jun_13_1231,Yes-No Task,3,WOAN27,
Yes-No Task,35,0,35,0,3.8,-1,Miss,0.432922200067,True,-1,stimulus_WOAN27_Yes-No Task_2019_Jun_13_1231_186,-1,False,2019_Jun_13_1231,Yes-No Task,3,WOAN27,
Yes-No Task,36,0,36,0,3.8,-1,False Alarm,0.468950999901,False,-1,stimulus_WOAN27_Yes-No Task_2019_Jun_13_1231_187,-1,False,2019_Jun_13_1231,Yes-No Task,3,WOAN27,
Yes-No Task,37,0,37,0,3.8,-1,Correct Rejection,0.400517300004,False,-1,stimulus_WOAN27_Yes-No Task_2019_Jun_13_1231_188,-1,False,2019_Jun_13_1231,Yes-No Task,3,WOAN27,
Yes-No Task,38,0,38,0,3.8,-1,Correct Rejection,0.500513599953,False,-1,stimulus_WOAN27_Yes-No Task_2019_Jun_13_1231_189,-1,False,2019_Jun_13_1231,Yes-No Task,3,WOAN27,
Yes-No Task,39,0,39,0,3.8,-1,Correct Rejection,0.532870899886,False,-1,stimulus_WOAN27_Yes-No Task_2019_Jun_13_1231_190,-1,False,2019_Jun_13_1231,Yes-No Task,3,WOAN27,
Yes-No Task,40,0,40,0,3.8,-1,Correct Rejection,0.467971900012,False,-1,stimulus_WOAN27_Yes-No Task_2019_Jun_13_1231_191,-1,False,2019_Jun_13_1231,Yes-No Task,3,WOAN27,
Yes-No Task,41,0,41,0,3.8,-1,Correct Rejection,0.500901000109,False,-1,stimulus_WOAN27_Yes-No Task_2019_Jun_13_1231_192,-1,False,2019_Jun_13_1231,Yes-No Task,3,WOAN27,
Yes-No Task,42,0,42,0,3.8,-1,Hit,0.567206799984,True,-1,stimulus_WOAN27_Yes-No Task_2019_Jun_13_1231_193,-1,False,2019_Jun_13_1231,Yes-No Task,3,WOAN27,
Yes-No Task,43,0,43,0,3.8,-1,Correct Rejection,0.46769420011,False,-1,stimulus_WOAN27_Yes-No Task_2019_Jun_13_1231_194,-1,False,2019_Jun_13_1231,Yes-No Task,3,WOAN27,
Yes-No Task,44,0,44,0,3.8,-1,Miss,0.500353300013,True,-1,stimulus_WOAN27_Yes-No Task_2019_Jun_13_1231_195,-1,False,2019_Jun_13_1231,Yes-No Task,3,WOAN27,
Yes-No Task,45,0,45,0,3.8,-1,Hit,0.567558600102,True,-1,stimulus_WOAN27_Yes-No Task_2019_Jun_13_1231_196,-1,False,2019_Jun_13_1231,Yes-No Task,3,WOAN27,
Yes-No Task,46,0,46,0,3.8,-1,Miss,0.534672300098,True,-1,stimulus_WOAN27_Yes-No Task_2019_Jun_13_1231_197,-1,False,2019_Jun_13_1231,Yes-No Task,3,WOAN27,
Yes-No Task,47,0,47,0,3.8,-1,Correct Rejection,0.533588000108,False,-1,stimulus_WOAN27_Yes-No Task_2019_Jun_13_1231_198,-1,False,2019_Jun_13_1231,Yes-No Task,3,WOAN27,
Yes-No Task,48,0,48,0,3.8,-1,Hit,0.367334800074,True,-1,stimulus_WOAN27_Yes-No Task_2019_Jun_13_1231_199,-1,False,2019_Jun_13_1231,Yes-No Task,3,WOAN27,
Yes-No Task,49,0,49,0,3.8,-1,Hit,0.63328780001,True,-1,stimulus_WOAN27_Yes-No Task_2019_Jun_13_1231_200,-1,False,2019_Jun_13_1231,Yes-No Task,3,WOAN27,
Yes-No Task,50,0,50,0,3.8,-1,Miss,0.567217499949,True,-1,stimulus_WOAN27_Yes-No Task_2019_Jun_13_1231_201,-1,False,2019_Jun_13_1231,Yes-No Task,3,WOAN27,
Yes-No Task,51,0,51,0,3.8,-1,False Alarm,0.400802800199,False,-1,stimulus_WOAN27_Yes-No Task_2019_Jun_13_1231_202,-1,False,2019_Jun_13_1231,Yes-No Task,3,WOAN27,
Yes-No Task,52,0,52,0,3.8,-1,Miss,0.533719900064,True,-1,stimulus_WOAN27_Yes-No Task_2019_Jun_13_1231_203,-1,False,2019_Jun_13_1231,Yes-No Task,3,WOAN27,
Yes-No Task,53,0,53,0,3.8,-1,Correct Rejection,0.567362100119,False,-1,stimulus_WOAN27_Yes-No Task_2019_Jun_13_1231_204,-1,False,2019_Jun_13_1231,Yes-No Task,3,WOAN27,
Yes-No Task,54,0,54,0,3.8,-1,False Alarm,0.600724600023,False,-1,stimulus_WOAN27_Yes-No Task_2019_Jun_13_1231_205,-1,False,2019_Jun_13_1231,Yes-No Task,3,WOAN27,
Yes-No Task,55,0,55,0,3.8,-1,Miss,0.601391499862,True,-1,stimulus_WOAN27_Yes-No Task_2019_Jun_13_1231_206,-1,False,2019_Jun_13_1231,Yes-No Task,3,WOAN27,
Yes-No Task,56,0,56,0,3.8,-1,Hit,0.637694600038,True,-1,stimulus_WOAN27_Yes-No Task_2019_Jun_13_1231_207,-1,False,2019_Jun_13_1231,Yes-No Task,3,WOAN27,
Yes-No Task,57,0,57,0,3.8,-1,Correct Rejection,0.629642299842,False,-1,stimulus_WOAN27_Yes-No Task_2019_Jun_13_1231_208,-1,False,2019_Jun_13_1231,Yes-No Task,3,WOAN27,
Yes-No Task,58,0,58,0,3.8,-1,Hit,0.733472800115,True,-1,stimulus_WOAN27_Yes-No Task_2019_Jun_13_1231_209,-1,False,2019_Jun_13_1231,Yes-No Task,3,WOAN27,
Yes-No Task,59,0,59,0,3.8,-1,Correct Rejection,0.533182099927,False,-1,stimulus_WOAN27_Yes-No Task_2019_Jun_13_1231_210,-1,False,2019_Jun_13_1231,Yes-No Task,3,WOAN27,
Yes-No Task,60,0,60,0,3.8,-1,Miss,0.667372400174,True,-1,stimulus_WOAN27_Yes-No Task_2019_Jun_13_1231_211,-1,False,2019_Jun_13_1231,Yes-No Task,3,WOAN27,
Yes-No Task,61,0,61,0,3.8,-1,Correct Rejection,0.666522199987,False,-1,stimulus_WOAN27_Yes-No Task_2019_Jun_13_1231_212,-1,False,2019_Jun_13_1231,Yes-No Task,3,WOAN27,
Yes-No Task,62,0,62,0,3.8,-1,Hit,0.433123899857,True,-1,stimulus_WOAN27_Yes-No Task_2019_Jun_13_1231_213,-1,False,2019_Jun_13_1231,Yes-No Task,3,WOAN27,
Yes-No Task,63,0,63,0,3.8,-1,Hit,0.567586699966,True,-1,stimulus_WOAN27_Yes-No Task_2019_Jun_13_1231_214,-1,False,2019_Jun_13_1231,Yes-No Task,3,WOAN27,
Yes-No Task,64,0,64,0,3.8,-1,Hit,0.767388399923,True,-1,stimulus_WOAN27_Yes-No Task_2019_Jun_13_1231_215,-1,False,2019_Jun_13_1231,Yes-No Task,3,WOAN27,
Yes-No Task,65,0,65,0,3.8,-1,Correct Rejection,0.633705799934,False,-1,stimulus_WOAN27_Yes-No Task_2019_Jun_13_1231_216,-1,False,2019_Jun_13_1231,Yes-No Task,3,WOAN27,
Yes-No Task,66,0,66,0,3.8,-1,Correct Rejection,0.734000900062,False,-1,stimulus_WOAN27_Yes-No Task_2019_Jun_13_1231_217,-1,False,2019_Jun_13_1231,Yes-No Task,3,WOAN27,
Yes-No Task,67,0,67,0,3.8,-1,Hit,0.666132800048,True,-1,stimulus_WOAN27_Yes-No Task_2019_Jun_13_1231_218,-1,False,2019_Jun_13_1231,Yes-No Task,3,WOAN27,
Yes-No Task,68,0,68,0,3.8,-1,Miss,0.566993700108,True,-1,stimulus_WOAN27_Yes-No Task_2019_Jun_13_1231_219,-1,False,2019_Jun_13_1231,Yes-No Task,3,WOAN27,
Yes-No Task,69,0,69,0,3.8,-1,Correct Rejection,0.568102099933,False,-1,stimulus_WOAN27_Yes-No Task_2019_Jun_13_1231_220,-1,False,2019_Jun_13_1231,Yes-No Task,3,WOAN27,
Yes-No Task,70,0,70,0,3.8,-1,Correct Rejection,0.602225099923,False,-1,stimulus_WOAN27_Yes-No Task_2019_Jun_13_1231_221,-1,False,2019_Jun_13_1231,Yes-No Task,3,WOAN27,
Yes-No Task,71,0,71,0,3.8,-1,Hit,0.5011314,True,-1,stimulus_WOAN27_Yes-No Task_2019_Jun_13_1231_222,-1,False,2019_Jun_13_1231,Yes-No Task,3,WOAN27,
Yes-No Task,72,0,72,0,3.8,-1,Hit,0.567261900054,True,-1,stimulus_WOAN27_Yes-No Task_2019_Jun_13_1231_223,-1,False,2019_Jun_13_1231,Yes-No Task,3,WOAN27,
Yes-No Task,73,0,73,0,3.8,-1,Hit,0.86729009985,True,-1,stimulus_WOAN27_Yes-No Task_2019_Jun_13_1231_224,-1,False,2019_Jun_13_1231,Yes-No Task,3,WOAN27,
Yes-No Task,74,0,74,0,3.8,-1,Correct Rejection,0.567762199789,False,-1,stimulus_WOAN27_Yes-No Task_2019_Jun_13_1231_225,-1,False,2019_Jun_13_1231,Yes-No Task,3,WOAN27,
Yes-No Task,0,0,0,0,10.7,-1,Miss,0.833964399993,True,-1,stimulus_WOAN27_Yes-No Task_2019_Jun_13_1231_226,-1,False,2019_Jun_13_1231,Yes-No Task,3,WOAN27,
Yes-No Task,1,0,1,0,10.7,-1,Correct Rejection,0.366998699959,False,-1,stimulus_WOAN27_Yes-No Task_2019_Jun_13_1231_227,-1,False,2019_Jun_13_1231,Yes-No Task,3,WOAN27,
Yes-No Task,2,0,2,0,10.7,-1,Correct Rejection,0.434015200008,False,-1,stimulus_WOAN27_Yes-No Task_2019_Jun_13_1231_228,-1,False,2019_Jun_13_1231,Yes-No Task,3,WOAN27,
Yes-No Task,3,0,3,0,10.7,-1,Hit,0.667684299871,True,-1,stimulus_WOAN27_Yes-No Task_2019_Jun_13_1231_229,-1,False,2019_Jun_13_1231,Yes-No Task,3,WOAN27,
Yes-No Task,4,0,4,0,10.7,-1,Correct Rejection,0.433778400067,False,-1,stimulus_WOAN27_Yes-No Task_2019_Jun_13_1231_230,-1,False,2019_Jun_13_1231,Yes-No Task,3,WOAN27,
Yes-No Task,5,0,5,0,10.7,-1,Correct Rejection,0.433247399982,False,-1,stimulus_WOAN27_Yes-No Task_2019_Jun_13_1231_231,-1,False,2019_Jun_13_1231,Yes-No Task,3,WOAN27,
Yes-No Task,6,0,6,0,10.7,-1,Correct Rejection,0.501931400038,False,-1,stimulus_WOAN27_Yes-No Task_2019_Jun_13_1231_232,-1,False,2019_Jun_13_1231,Yes-No Task,3,WOAN27,
Yes-No Task,7,0,7,0,10.7,-1,Correct Rejection,0.433879799908,False,-1,stimulus_WOAN27_Yes-No Task_2019_Jun_13_1231_233,-1,False,2019_Jun_13_1231,Yes-No Task,3,WOAN27,
Yes-No Task,8,0,8,0,10.7,-1,False Alarm,0.467768599978,False,-1,stimulus_WOAN27_Yes-No Task_2019_Jun_13_1231_234,-1,False,2019_Jun_13_1231,Yes-No Task,3,WOAN27,
Yes-No Task,9,0,9,0,10.7,-1,Correct Rejection,0.367460800102,False,-1,stimulus_WOAN27_Yes-No Task_2019_Jun_13_1231_235,-1,False,2019_Jun_13_1231,Yes-No Task,3,WOAN27,
Yes-No Task,10,0,10,0,10.7,-1,Hit,0.600489200093,True,-1,stimulus_WOAN27_Yes-No Task_2019_Jun_13_1231_236,-1,False,2019_Jun_13_1231,Yes-No Task,3,WOAN27,
Yes-No Task,11,0,11,0,10.7,-1,Correct Rejection,0.467110000085,False,-1,stimulus_WOAN27_Yes-No Task_2019_Jun_13_1231_237,-1,False,2019_Jun_13_1231,Yes-No Task,3,WOAN27,
Yes-No Task,12,0,12,0,10.7,-1,Hit,0.468414700124,True,-1,stimulus_WOAN27_Yes-No Task_2019_Jun_13_1231_238,-1,False,2019_Jun_13_1231,Yes-No Task,3,WOAN27,
Yes-No Task,13,0,13,0,10.7,-1,Hit,0.500482700067,True,-1,stimulus_WOAN27_Yes-No Task_2019_Jun_13_1231_239,-1,False,2019_Jun_13_1231,Yes-No Task,3,WOAN27,
Yes-No Task,14,0,14,0,10.7,-1,Correct Rejection,0.434837500099,False,-1,stimulus_WOAN27_Yes-No Task_2019_Jun_13_1231_240,-1,False,2019_Jun_13_1231,Yes-No Task,3,WOAN27,
Yes-No Task,15,0,15,0,10.7,-1,Hit,0.600705499994,True,-1,stimulus_WOAN27_Yes-No Task_2019_Jun_13_1231_241,-1,False,2019_Jun_13_1231,Yes-No Task,3,WOAN27,
Yes-No Task,16,0,16,0,10.7,-1,Hit,0.468006300041,True,-1,stimulus_WOAN27_Yes-No Task_2019_Jun_13_1231_242,-1,False,2019_Jun_13_1231,Yes-No Task,3,WOAN27,
Yes-No Task,17,0,17,0,10.7,-1,Correct Rejection,0.434693700168,False,-1,stimulus_WOAN27_Yes-No Task_2019_Jun_13_1231_243,-1,False,2019_Jun_13_1231,Yes-No Task,3,WOAN27,
Yes-No Task,18,0,18,0,10.7,-1,Correct Rejection,0.468960700091,False,-1,stimulus_WOAN27_Yes-No Task_2019_Jun_13_1231_244,-1,False,2019_Jun_13_1231,Yes-No Task,3,WOAN27,
Yes-No Task,19,0,19,0,10.7,-1,Correct Rejection,0.470239100046,False,-1,stimulus_WOAN27_Yes-No Task_2019_Jun_13_1231_245,-1,False,2019_Jun_13_1231,Yes-No Task,3,WOAN27,
Yes-No Task,20,0,20,0,10.7,-1,Hit,0.464595299913,True,-1,stimulus_WOAN27_Yes-No Task_2019_Jun_13_1231_246,-1,False,2019_Jun_13_1231,Yes-No Task,3,WOAN27,
Yes-No Task,21,0,21,0,10.7,-1,Hit,0.467423100024,True,-1,stimulus_WOAN27_Yes-No Task_2019_Jun_13_1231_247,-1,False,2019_Jun_13_1231,Yes-No Task,3,WOAN27,
Yes-No Task,22,0,22,0,10.7,-1,Hit,0.433798099868,True,-1,stimulus_WOAN27_Yes-No Task_2019_Jun_13_1231_248,-1,False,2019_Jun_13_1231,Yes-No Task,3,WOAN27,
Yes-No Task,23,0,23,0,10.7,-1,Correct Rejection,0.46733120014,False,-1,stimulus_WOAN27_Yes-No Task_2019_Jun_13_1231_249,-1,False,2019_Jun_13_1231,Yes-No Task,3,WOAN27,
Yes-No Task,24,0,24,0,10.7,-1,Correct Rejection,0.46820620005,False,-1,stimulus_WOAN27_Yes-No Task_2019_Jun_13_1231_250,-1,False,2019_Jun_13_1231,Yes-No Task,3,WOAN27,
Yes-No Task,25,0,25,0,10.7,-1,Correct Rejection,0.533781700069,False,-1,stimulus_WOAN27_Yes-No Task_2019_Jun_13_1231_251,-1,False,2019_Jun_13_1231,Yes-No Task,3,WOAN27,
Yes-No Task,26,0,26,0,10.7,-1,Correct Rejection,0.400716400007,False,-1,stimulus_WOAN27_Yes-No Task_2019_Jun_13_1231_252,-1,False,2019_Jun_13_1231,Yes-No Task,3,WOAN27,
Yes-No Task,27,0,27,0,10.7,-1,Correct Rejection,0.400578100001,False,-1,stimulus_WOAN27_Yes-No Task_2019_Jun_13_1231_253,-1,False,2019_Jun_13_1231,Yes-No Task,3,WOAN27,
Yes-No Task,28,0,28,0,10.7,-1,Correct Rejection,0.401058600051,False,-1,stimulus_WOAN27_Yes-No Task_2019_Jun_13_1231_254,-1,False,2019_Jun_13_1231,Yes-No Task,3,WOAN27,
Yes-No Task,29,0,29,0,10.7,-1,Hit,0.466688900022,True,-1,stimulus_WOAN27_Yes-No Task_2019_Jun_13_1231_255,-1,False,2019_Jun_13_1231,Yes-No Task,3,WOAN27,
Yes-No Task,30,0,30,0,10.7,-1,Hit,0.501921099843,True,-1,stimulus_WOAN27_Yes-No Task_2019_Jun_13_1231_256,-1,False,2019_Jun_13_1231,Yes-No Task,3,WOAN27,
Yes-No Task,31,0,31,0,10.7,-1,Correct Rejection,0.397898899857,False,-1,stimulus_WOAN27_Yes-No Task_2019_Jun_13_1231_257,-1,False,2019_Jun_13_1231,Yes-No Task,3,WOAN27,
Yes-No Task,32,0,32,0,10.7,-1,Hit,0.499093099963,True,-1,stimulus_WOAN27_Yes-No Task_2019_Jun_13_1231_258,-1,False,2019_Jun_13_1231,Yes-No Task,3,WOAN27,
Yes-No Task,33,0,33,0,10.7,-1,Correct Rejection,0.400308300043,False,-1,stimulus_WOAN27_Yes-No Task_2019_Jun_13_1231_259,-1,False,2019_Jun_13_1231,Yes-No Task,3,WOAN27,
Yes-No Task,34,0,34,0,10.7,-1,Hit,0.500043699984,True,-1,stimulus_WOAN27_Yes-No Task_2019_Jun_13_1231_260,-1,False,2019_Jun_13_1231,Yes-No Task,3,WOAN27,
Yes-No Task,35,0,35,0,10.7,-1,Correct Rejection,0.466996800154,False,-1,stimulus_WOAN27_Yes-No Task_2019_Jun_13_1231_261,-1,False,2019_Jun_13_1231,Yes-No Task,3,WOAN27,
Yes-No Task,36,0,36,0,10.7,-1,Correct Rejection,0.46715079993,False,-1,stimulus_WOAN27_Yes-No Task_2019_Jun_13_1231_262,-1,False,2019_Jun_13_1231,Yes-No Task,3,WOAN27,
Yes-No Task,37,0,37,0,10.7,-1,Hit,0.467375000007,True,-1,stimulus_WOAN27_Yes-No Task_2019_Jun_13_1231_263,-1,False,2019_Jun_13_1231,Yes-No Task,3,WOAN27,
Yes-No Task,38,0,38,0,10.7,-1,Correct Rejection,0.466251000063,False,-1,stimulus_WOAN27_Yes-No Task_2019_Jun_13_1231_264,-1,False,2019_Jun_13_1231,Yes-No Task,3,WOAN27,
Yes-No Task,39,0,39,0,10.7,-1,Correct Rejection,0.534050100017,False,-1,stimulus_WOAN27_Yes-No Task_2019_Jun_13_1231_265,-1,False,2019_Jun_13_1231,Yes-No Task,3,WOAN27,
Yes-No Task,40,0,40,0,10.7,-1,Hit,0.467097299872,True,-1,stimulus_WOAN27_Yes-No Task_2019_Jun_13_1231_266,-1,False,2019_Jun_13_1231,Yes-No Task,3,WOAN27,
Yes-No Task,41,0,41,0,10.7,-1,Hit,0.500891600037,True,-1,stimulus_WOAN27_Yes-No Task_2019_Jun_13_1231_267,-1,False,2019_Jun_13_1231,Yes-No Task,3,WOAN27,
Yes-No Task,42,0,42,0,10.7,-1,Hit,0.40059890016,True,-1,stimulus_WOAN27_Yes-No Task_2019_Jun_13_1231_268,-1,False,2019_Jun_13_1231,Yes-No Task,3,WOAN27,
Yes-No Task,43,0,43,0,10.7,-1,Correct Rejection,0.466534900013,False,-1,stimulus_WOAN27_Yes-No Task_2019_Jun_13_1231_269,-1,False,2019_Jun_13_1231,Yes-No Task,3,WOAN27,
Yes-No Task,44,0,44,0,10.7,-1,Correct Rejection,0.468879200052,False,-1,stimulus_WOAN27_Yes-No Task_2019_Jun_13_1231_270,-1,False,2019_Jun_13_1231,Yes-No Task,3,WOAN27,
Yes-No Task,45,0,45,0,10.7,-1,Correct Rejection,0.532507800031,False,-1,stimulus_WOAN27_Yes-No Task_2019_Jun_13_1231_271,-1,False,2019_Jun_13_1231,Yes-No Task,3,WOAN27,
Yes-No Task,46,0,46,0,10.7,-1,Hit,0.467859500088,True,-1,stimulus_WOAN27_Yes-No Task_2019_Jun_13_1231_272,-1,False,2019_Jun_13_1231,Yes-No Task,3,WOAN27,
Yes-No Task,47,0,47,0,10.7,-1,Hit,0.567362200003,True,-1,stimulus_WOAN27_Yes-No Task_2019_Jun_13_1231_273,-1,False,2019_Jun_13_1231,Yes-No Task,3,WOAN27,
Yes-No Task,48,0,48,0,10.7,-1,Hit,0.500266799936,True,-1,stimulus_WOAN27_Yes-No Task_2019_Jun_13_1231_274,-1,False,2019_Jun_13_1231,Yes-No Task,3,WOAN27,
Yes-No Task,49,0,49,0,10.7,-1,Hit,0.467087199911,True,-1,stimulus_WOAN27_Yes-No Task_2019_Jun_13_1231_275,-1,False,2019_Jun_13_1231,Yes-No Task,3,WOAN27,
Yes-No Task,50,0,50,0,10.7,-1,Hit,0.467145400122,True,-1,stimulus_WOAN27_Yes-No Task_2019_Jun_13_1231_276,-1,False,2019_Jun_13_1231,Yes-No Task,3,WOAN27,
Yes-No Task,51,0,51,0,10.7,-1,Correct Rejection,0.56741899997,False,-1,stimulus_WOAN27_Yes-No Task_2019_Jun_13_1231_277,-1,False,2019_Jun_13_1231,Yes-No Task,3,WOAN27,
Yes-No Task,52,0,52,0,10.7,-1,Correct Rejection,0.433658099966,False,-1,stimulus_WOAN27_Yes-No Task_2019_Jun_13_1231_278,-1,False,2019_Jun_13_1231,Yes-No Task,3,WOAN27,
Yes-No Task,53,0,53,0,10.7,-1,Correct Rejection,0.467935999855,False,-1,stimulus_WOAN27_Yes-No Task_2019_Jun_13_1231_279,-1,False,2019_Jun_13_1231,Yes-No Task,3,WOAN27,
Yes-No Task,54,0,54,0,10.7,-1,Correct Rejection,0.399695300031,False,-1,stimulus_WOAN27_Yes-No Task_2019_Jun_13_1231_280,-1,False,2019_Jun_13_1231,Yes-No Task,3,WOAN27,
Yes-No Task,55,0,55,0,10.7,-1,Correct Rejection,0.433530800045,False,-1,stimulus_WOAN27_Yes-No Task_2019_Jun_13_1231_281,-1,False,2019_Jun_13_1231,Yes-No Task,3,WOAN27,
Yes-No Task,56,0,56,0,10.7,-1,Hit,0.500484999968,True,-1,stimulus_WOAN27_Yes-No Task_2019_Jun_13_1231_282,-1,False,2019_Jun_13_1231,Yes-No Task,3,WOAN27,
Yes-No Task,57,0,57,0,10.7,-1,False Alarm,0.498646999942,False,-1,stimulus_WOAN27_Yes-No Task_2019_Jun_13_1231_283,-1,False,2019_Jun_13_1231,Yes-No Task,3,WOAN27,
Yes-No Task,58,0,58,0,10.7,-1,Hit,0.39931160002,True,-1,stimulus_WOAN27_Yes-No Task_2019_Jun_13_1231_284,-1,False,2019_Jun_13_1231,Yes-No Task,3,WOAN27,
Yes-No Task,59,0,59,0,10.7,-1,Correct Rejection,0.400318699889,False,-1,stimulus_WOAN27_Yes-No Task_2019_Jun_13_1231_285,-1,False,2019_Jun_13_1231,Yes-No Task,3,WOAN27,
Yes-No Task,60,0,60,0,10.7,-1,Correct Rejection,0.462413399946,False,-1,stimulus_WOAN27_Yes-No Task_2019_Jun_13_1231_286,-1,False,2019_Jun_13_1231,Yes-No Task,3,WOAN27,
Yes-No Task,61,0,61,0,10.7,-1,Hit,0.467884200159,True,-1,stimulus_WOAN27_Yes-No Task_2019_Jun_13_1231_287,-1,False,2019_Jun_13_1231,Yes-No Task,3,WOAN27,
Yes-No Task,62,0,62,0,10.7,-1,Correct Rejection,0.700831100112,False,-1,stimulus_WOAN27_Yes-No Task_2019_Jun_13_1231_288,-1,False,2019_Jun_13_1231,Yes-No Task,3,WOAN27,
Yes-No Task,63,0,63,0,10.7,-1,Hit,0.432993100025,True,-1,stimulus_WOAN27_Yes-No Task_2019_Jun_13_1231_289,-1,False,2019_Jun_13_1231,Yes-No Task,3,WOAN27,
Yes-No Task,64,0,64,0,10.7,-1,Hit,0.501340699848,True,-1,stimulus_WOAN27_Yes-No Task_2019_Jun_13_1231_290,-1,False,2019_Jun_13_1231,Yes-No Task,3,WOAN27,
Yes-No Task,65,0,65,0,10.7,-1,Correct Rejection,0.598891400034,False,-1,stimulus_WOAN27_Yes-No Task_2019_Jun_13_1231_291,-1,False,2019_Jun_13_1231,Yes-No Task,3,WOAN27,
Yes-No Task,66,0,66,0,10.7,-1,Hit,0.533958300017,True,-1,stimulus_WOAN27_Yes-No Task_2019_Jun_13_1231_292,-1,False,2019_Jun_13_1231,Yes-No Task,3,WOAN27,
Yes-No Task,67,0,67,0,10.7,-1,Correct Rejection,0.467542400118,False,-1,stimulus_WOAN27_Yes-No Task_2019_Jun_13_1231_293,-1,False,2019_Jun_13_1231,Yes-No Task,3,WOAN27,
Yes-No Task,68,0,68,0,10.7,-1,Hit,0.468335499987,True,-1,stimulus_WOAN27_Yes-No Task_2019_Jun_13_1231_294,-1,False,2019_Jun_13_1231,Yes-No Task,3,WOAN27,
Yes-No Task,69,0,69,0,10.7,-1,Hit,0.500705499901,True,-1,stimulus_WOAN27_Yes-No Task_2019_Jun_13_1231_295,-1,False,2019_Jun_13_1231,Yes-No Task,3,WOAN27,
Yes-No Task,70,0,70,0,10.7,-1,Correct Rejection,0.500650699949,False,-1,stimulus_WOAN27_Yes-No Task_2019_Jun_13_1231_296,-1,False,2019_Jun_13_1231,Yes-No Task,3,WOAN27,
Yes-No Task,71,0,71,0,10.7,-1,Hit,0.399989499943,True,-1,stimulus_WOAN27_Yes-No Task_2019_Jun_13_1231_297,-1,False,2019_Jun_13_1231,Yes-No Task,3,WOAN27,
Yes-No Task,72,0,72,0,10.7,-1,Correct Rejection,0.50083080004,False,-1,stimulus_WOAN27_Yes-No Task_2019_Jun_13_1231_298,-1,False,2019_Jun_13_1231,Yes-No Task,3,WOAN27,
Yes-No Task,73,0,73,0,10.7,-1,Correct Rejection,0.500304199988,False,-1,stimulus_WOAN27_Yes-No Task_2019_Jun_13_1231_299,-1,False,2019_Jun_13_1231,Yes-No Task,3,WOAN27,
Yes-No Task,74,0,74,0,10.7,-1,Hit,0.467227199813,True,-1,stimulus_WOAN27_Yes-No Task_2019_Jun_13_1231_300,-1,False,2019_Jun_13_1231,Yes-No Task,3,WOAN27,
Yes-No Task,0,0,0,0,5.8,-1,Miss,0.500392399961,True,-1,stimulus_WOAN27_Yes-No Task_2019_Jun_13_1231_301,-1,False,2019_Jun_13_1231,Yes-No Task,3,WOAN27,
Yes-No Task,1,0,1,0,5.8,-1,Correct Rejection,0.36701539997,False,-1,stimulus_WOAN27_Yes-No Task_2019_Jun_13_1231_302,-1,False,2019_Jun_13_1231,Yes-No Task,3,WOAN27,
Yes-No Task,2,0,2,0,5.8,-1,Correct Rejection,0.434024800081,False,-1,stimulus_WOAN27_Yes-No Task_2019_Jun_13_1231_303,-1,False,2019_Jun_13_1231,Yes-No Task,3,WOAN27,
Yes-No Task,3,0,3,0,5.8,-1,Miss,0.432331699878,True,-1,stimulus_WOAN27_Yes-No Task_2019_Jun_13_1231_304,-1,False,2019_Jun_13_1231,Yes-No Task,3,WOAN27,
Yes-No Task,4,0,4,0,5.8,-1,Correct Rejection,0.267049300019,False,-1,stimulus_WOAN27_Yes-No Task_2019_Jun_13_1231_305,-1,False,2019_Jun_13_1231,Yes-No Task,3,WOAN27,
Yes-No Task,5,0,5,0,5.8,-1,Hit,0.400098500075,True,-1,stimulus_WOAN27_Yes-No Task_2019_Jun_13_1231_306,-1,False,2019_Jun_13_1231,Yes-No Task,3,WOAN27,
Yes-No Task,6,0,6,0,5.8,-1,Miss,0.433210599935,True,-1,stimulus_WOAN27_Yes-No Task_2019_Jun_13_1231_307,-1,False,2019_Jun_13_1231,Yes-No Task,3,WOAN27,
Yes-No Task,7,0,7,0,5.8,-1,Miss,0.500649200054,True,-1,stimulus_WOAN27_Yes-No Task_2019_Jun_13_1231_308,-1,False,2019_Jun_13_1231,Yes-No Task,3,WOAN27,
Yes-No Task,8,0,8,0,5.8,-1,Correct Rejection,0.333382400218,False,-1,stimulus_WOAN27_Yes-No Task_2019_Jun_13_1231_309,-1,False,2019_Jun_13_1231,Yes-No Task,3,WOAN27,
Yes-No Task,9,0,9,0,5.8,-1,Correct Rejection,0.432683299994,False,-1,stimulus_WOAN27_Yes-No Task_2019_Jun_13_1231_310,-1,False,2019_Jun_13_1231,Yes-No Task,3,WOAN27,
Yes-No Task,10,0,10,0,5.8,-1,Hit,0.499973899918,True,-1,stimulus_WOAN27_Yes-No Task_2019_Jun_13_1231_311,-1,False,2019_Jun_13_1231,Yes-No Task,3,WOAN27,
Yes-No Task,11,0,11,0,5.8,-1,Hit,0.50052900007,True,-1,stimulus_WOAN27_Yes-No Task_2019_Jun_13_1231_312,-1,False,2019_Jun_13_1231,Yes-No Task,3,WOAN27,
Yes-No Task,12,0,12,0,5.8,-1,Hit,0.40108589991,True,-1,stimulus_WOAN27_Yes-No Task_2019_Jun_13_1231_313,-1,False,2019_Jun_13_1231,Yes-No Task,3,WOAN27,
Yes-No Task,13,0,13,0,5.8,-1,Hit,0.433403000003,True,-1,stimulus_WOAN27_Yes-No Task_2019_Jun_13_1231_314,-1,False,2019_Jun_13_1231,Yes-No Task,3,WOAN27,
Yes-No Task,14,0,14,0,5.8,-1,Hit,0.500210100086,True,-1,stimulus_WOAN27_Yes-No Task_2019_Jun_13_1231_315,-1,False,2019_Jun_13_1231,Yes-No Task,3,WOAN27,
Yes-No Task,15,0,15,0,5.8,-1,Hit,0.433975600172,True,-1,stimulus_WOAN27_Yes-No Task_2019_Jun_13_1231_316,-1,False,2019_Jun_13_1231,Yes-No Task,3,WOAN27,
Yes-No Task,16,0,16,0,5.8,-1,Correct Rejection,0.567831099965,False,-1,stimulus_WOAN27_Yes-No Task_2019_Jun_13_1231_317,-1,False,2019_Jun_13_1231,Yes-No Task,3,WOAN27,
Yes-No Task,17,0,17,0,5.8,-1,False Alarm,0.400899800006,False,-1,stimulus_WOAN27_Yes-No Task_2019_Jun_13_1231_318,-1,False,2019_Jun_13_1231,Yes-No Task,3,WOAN27,
Yes-No Task,18,0,18,0,5.8,-1,Correct Rejection,0.535015899921,False,-1,stimulus_WOAN27_Yes-No Task_2019_Jun_13_1231_319,-1,False,2019_Jun_13_1231,Yes-No Task,3,WOAN27,
Yes-No Task,19,0,19,0,5.8,-1,Correct Rejection,0.467122600181,False,-1,stimulus_WOAN27_Yes-No Task_2019_Jun_13_1231_320,-1,False,2019_Jun_13_1231,Yes-No Task,3,WOAN27,
Yes-No Task,20,0,20,0,5.8,-1,Hit,0.434843200026,True,-1,stimulus_WOAN27_Yes-No Task_2019_Jun_13_1231_321,-1,False,2019_Jun_13_1231,Yes-No Task,3,WOAN27,
Yes-No Task,21,0,21,0,5.8,-1,Hit,0.400722800056,True,-1,stimulus_WOAN27_Yes-No Task_2019_Jun_13_1231_322,-1,False,2019_Jun_13_1231,Yes-No Task,3,WOAN27,
Yes-No Task,22,0,22,0,5.8,-1,Hit,0.466592899989,True,-1,stimulus_WOAN27_Yes-No Task_2019_Jun_13_1231_323,-1,False,2019_Jun_13_1231,Yes-No Task,3,WOAN27,
Yes-No Task,23,0,23,0,5.8,-1,Correct Rejection,0.50046349992,False,-1,stimulus_WOAN27_Yes-No Task_2019_Jun_13_1231_324,-1,False,2019_Jun_13_1231,Yes-No Task,3,WOAN27,
Yes-No Task,24,0,24,0,5.8,-1,Hit,0.401419000002,True,-1,stimulus_WOAN27_Yes-No Task_2019_Jun_13_1231_325,-1,False,2019_Jun_13_1231,Yes-No Task,3,WOAN27,
Yes-No Task,25,0,25,0,5.8,-1,Miss,0.500775500201,True,-1,stimulus_WOAN27_Yes-No Task_2019_Jun_13_1231_326,-1,False,2019_Jun_13_1231,Yes-No Task,3,WOAN27,
Yes-No Task,26,0,26,0,5.8,-1,Correct Rejection,0.267605199944,False,-1,stimulus_WOAN27_Yes-No Task_2019_Jun_13_1231_327,-1,False,2019_Jun_13_1231,Yes-No Task,3,WOAN27,
Yes-No Task,27,0,27,0,5.8,-1,Miss,0.398623799905,True,-1,stimulus_WOAN27_Yes-No Task_2019_Jun_13_1231_328,-1,False,2019_Jun_13_1231,Yes-No Task,3,WOAN27,
Yes-No Task,28,0,28,0,5.8,-1,Hit,0.400378499879,True,-1,stimulus_WOAN27_Yes-No Task_2019_Jun_13_1231_329,-1,False,2019_Jun_13_1231,Yes-No Task,3,WOAN27,
Yes-No Task,29,0,29,0,5.8,-1,Hit,0.400908499956,True,-1,stimulus_WOAN27_Yes-No Task_2019_Jun_13_1231_330,-1,False,2019_Jun_13_1231,Yes-No Task,3,WOAN27,
Yes-No Task,30,0,30,0,5.8,-1,Correct Rejection,0.599299900001,False,-1,stimulus_WOAN27_Yes-No Task_2019_Jun_13_1231_331,-1,False,2019_Jun_13_1231,Yes-No Task,3,WOAN27,
Yes-No Task,31,0,31,0,5.8,-1,Correct Rejection,0.434354500147,False,-1,stimulus_WOAN27_Yes-No Task_2019_Jun_13_1231_332,-1,False,2019_Jun_13_1231,Yes-No Task,3,WOAN27,
Yes-No Task,32,0,32,0,5.8,-1,Miss,0.465300800046,True,-1,stimulus_WOAN27_Yes-No Task_2019_Jun_13_1231_333,-1,False,2019_Jun_13_1231,Yes-No Task,3,WOAN27,
Yes-No Task,33,0,33,0,5.8,-1,Miss,0.267731700093,True,-1,stimulus_WOAN27_Yes-No Task_2019_Jun_13_1231_334,-1,False,2019_Jun_13_1231,Yes-No Task,3,WOAN27,
Yes-No Task,34,0,34,0,5.8,-1,Miss,0.334623100003,True,-1,stimulus_WOAN27_Yes-No Task_2019_Jun_13_1231_335,-1,False,2019_Jun_13_1231,Yes-No Task,3,WOAN27,
Yes-No Task,35,0,35,0,5.8,-1,Hit,0.435004699975,True,-1,stimulus_WOAN27_Yes-No Task_2019_Jun_13_1231_336,-1,False,2019_Jun_13_1231,Yes-No Task,3,WOAN27,
Yes-No Task,36,0,36,0,5.8,-1,Hit,0.433502000058,True,-1,stimulus_WOAN27_Yes-No Task_2019_Jun_13_1231_337,-1,False,2019_Jun_13_1231,Yes-No Task,3,WOAN27,
Yes-No Task,37,0,37,0,5.8,-1,Miss,0.501315200003,True,-1,stimulus_WOAN27_Yes-No Task_2019_Jun_13_1231_338,-1,False,2019_Jun_13_1231,Yes-No Task,3,WOAN27,
Yes-No Task,38,0,38,0,5.8,-1,Correct Rejection,0.367461999878,False,-1,stimulus_WOAN27_Yes-No Task_2019_Jun_13_1231_339,-1,False,2019_Jun_13_1231,Yes-No Task,3,WOAN27,
Yes-No Task,39,0,39,0,5.8,-1,Hit,0.36490210006,True,-1,stimulus_WOAN27_Yes-No Task_2019_Jun_13_1231_340,-1,False,2019_Jun_13_1231,Yes-No Task,3,WOAN27,
Yes-No Task,40,0,40,0,5.8,-1,Correct Rejection,0.502397800097,False,-1,stimulus_WOAN27_Yes-No Task_2019_Jun_13_1231_341,-1,False,2019_Jun_13_1231,Yes-No Task,3,WOAN27,
Yes-No Task,41,0,41,0,5.8,-1,Correct Rejection,0.400759499986,False,-1,stimulus_WOAN27_Yes-No Task_2019_Jun_13_1231_342,-1,False,2019_Jun_13_1231,Yes-No Task,3,WOAN27,
Yes-No Task,42,0,42,0,5.8,-1,Correct Rejection,0.400472400011,False,-1,stimulus_WOAN27_Yes-No Task_2019_Jun_13_1231_343,-1,False,2019_Jun_13_1231,Yes-No Task,3,WOAN27,
Yes-No Task,43,0,43,0,5.8,-1,Hit,0.533700499916,True,-1,stimulus_WOAN27_Yes-No Task_2019_Jun_13_1231_344,-1,False,2019_Jun_13_1231,Yes-No Task,3,WOAN27,
Yes-No Task,44,0,44,0,5.8,-1,Miss,0.501104599796,True,-1,stimulus_WOAN27_Yes-No Task_2019_Jun_13_1231_345,-1,False,2019_Jun_13_1231,Yes-No Task,3,WOAN27,
Yes-No Task,45,0,45,0,5.8,-1,Correct Rejection,0.468479099916,False,-1,stimulus_WOAN27_Yes-No Task_2019_Jun_13_1231_346,-1,False,2019_Jun_13_1231,Yes-No Task,3,WOAN27,
Yes-No Task,46,0,46,0,5.8,-1,Correct Rejection,0.433945500059,False,-1,stimulus_WOAN27_Yes-No Task_2019_Jun_13_1231_347,-1,False,2019_Jun_13_1231,Yes-No Task,3,WOAN27,
Yes-No Task,47,0,47,0,5.8,-1,Correct Rejection,0.400744000217,False,-1,stimulus_WOAN27_Yes-No Task_2019_Jun_13_1231_348,-1,False,2019_Jun_13_1231,Yes-No Task,3,WOAN27,
Yes-No Task,48,0,48,0,5.8,-1,Hit,0.533758000005,True,-1,stimulus_WOAN27_Yes-No Task_2019_Jun_13_1231_349,-1,False,2019_Jun_13_1231,Yes-No Task,3,WOAN27,
Yes-No Task,49,0,49,0,5.8,-1,Miss,0.534327300033,True,-1,stimulus_WOAN27_Yes-No Task_2019_Jun_13_1231_350,-1,False,2019_Jun_13_1231,Yes-No Task,3,WOAN27,
Yes-No Task,50,0,50,0,5.8,-1,Correct Rejection,0.333895600168,False,-1,stimulus_WOAN27_Yes-No Task_2019_Jun_13_1231_351,-1,False,2019_Jun_13_1231,Yes-No Task,3,WOAN27,
Yes-No Task,51,0,51,0,5.8,-1,Miss,0.701185200131,True,-1,stimulus_WOAN27_Yes-No Task_2019_Jun_13_1231_352,-1,False,2019_Jun_13_1231,Yes-No Task,3,WOAN27,
Yes-No Task,52,0,52,0,5.8,-1,Correct Rejection,0.366833599983,False,-1,stimulus_WOAN27_Yes-No Task_2019_Jun_13_1231_353,-1,False,2019_Jun_13_1231,Yes-No Task,3,WOAN27,
Yes-No Task,53,0,53,0,5.8,-1,Hit,0.435043399921,True,-1,stimulus_WOAN27_Yes-No Task_2019_Jun_13_1231_354,-1,False,2019_Jun_13_1231,Yes-No Task,3,WOAN27,
Yes-No Task,54,0,54,0,5.8,-1,Hit,0.500560599845,True,-1,stimulus_WOAN27_Yes-No Task_2019_Jun_13_1231_355,-1,False,2019_Jun_13_1231,Yes-No Task,3,WOAN27,
Yes-No Task,55,0,55,0,5.8,-1,Correct Rejection,0.50068669999,False,-1,stimulus_WOAN27_Yes-No Task_2019_Jun_13_1231_356,-1,False,2019_Jun_13_1231,Yes-No Task,3,WOAN27,
Yes-No Task,56,0,56,0,5.8,-1,Hit,0.567111399956,True,-1,stimulus_WOAN27_Yes-No Task_2019_Jun_13_1231_357,-1,False,2019_Jun_13_1231,Yes-No Task,3,WOAN27,
Yes-No Task,57,0,57,0,5.8,-1,False Alarm,0.500749500003,False,-1,stimulus_WOAN27_Yes-No Task_2019_Jun_13_1231_358,-1,False,2019_Jun_13_1231,Yes-No Task,3,WOAN27,
Yes-No Task,58,0,58,0,5.8,-1,Correct Rejection,0.499904499855,False,-1,stimulus_WOAN27_Yes-No Task_2019_Jun_13_1231_359,-1,False,2019_Jun_13_1231,Yes-No Task,3,WOAN27,
Yes-No Task,59,0,59,0,5.8,-1,Correct Rejection,0.433539699996,False,-1,stimulus_WOAN27_Yes-No Task_2019_Jun_13_1231_360,-1,False,2019_Jun_13_1231,Yes-No Task,3,WOAN27,
Yes-No Task,60,0,60,0,5.8,-1,Correct Rejection,0.433465799782,False,-1,stimulus_WOAN27_Yes-No Task_2019_Jun_13_1231_361,-1,False,2019_Jun_13_1231,Yes-No Task,3,WOAN27,
Yes-No Task,61,0,61,0,5.8,-1,Correct Rejection,0.400591399986,False,-1,stimulus_WOAN27_Yes-No Task_2019_Jun_13_1231_362,-1,False,2019_Jun_13_1231,Yes-No Task,3,WOAN27,
Yes-No Task,62,0,62,0,5.8,-1,Miss,0.466103000101,True,-1,stimulus_WOAN27_Yes-No Task_2019_Jun_13_1231_363,-1,False,2019_Jun_13_1231,Yes-No Task,3,WOAN27,
Yes-No Task,63,0,63,0,5.8,-1,Miss,0.101004200056,True,-1,stimulus_WOAN27_Yes-No Task_2019_Jun_13_1231_364,-1,False,2019_Jun_13_1231,Yes-No Task,3,WOAN27,
Yes-No Task,64,0,64,0,5.8,-1,Correct Rejection,0.36637459998,False,-1,stimulus_WOAN27_Yes-No Task_2019_Jun_13_1231_365,-1,False,2019_Jun_13_1231,Yes-No Task,3,WOAN27,
Yes-No Task,65,0,65,0,5.8,-1,Correct Rejection,0.400704199914,False,-1,stimulus_WOAN27_Yes-No Task_2019_Jun_13_1231_366,-1,False,2019_Jun_13_1231,Yes-No Task,3,WOAN27,
Yes-No Task,66,0,66,0,5.8,-1,Miss,0.468727600062,True,-1,stimulus_WOAN27_Yes-No Task_2019_Jun_13_1231_367,-1,False,2019_Jun_13_1231,Yes-No Task,3,WOAN27,
Yes-No Task,67,0,67,0,5.8,-1,Correct Rejection,0.268358400092,False,-1,stimulus_WOAN27_Yes-No Task_2019_Jun_13_1231_368,-1,False,2019_Jun_13_1231,Yes-No Task,3,WOAN27,
Yes-No Task,68,0,68,0,5.8,-1,Miss,0.500426599989,True,-1,stimulus_WOAN27_Yes-No Task_2019_Jun_13_1231_369,-1,False,2019_Jun_13_1231,Yes-No Task,3,WOAN27,
Yes-No Task,69,0,69,0,5.8,-1,Miss,0.30038619996,True,-1,stimulus_WOAN27_Yes-No Task_2019_Jun_13_1231_370,-1,False,2019_Jun_13_1231,Yes-No Task,3,WOAN27,
Yes-No Task,70,0,70,0,5.8,-1,Correct Rejection,0.50160879991,False,-1,stimulus_WOAN27_Yes-No Task_2019_Jun_13_1231_371,-1,False,2019_Jun_13_1231,Yes-No Task,3,WOAN27,
Yes-No Task,71,0,71,0,5.8,-1,Hit,0.365793900099,True,-1,stimulus_WOAN27_Yes-No Task_2019_Jun_13_1231_372,-1,False,2019_Jun_13_1231,Yes-No Task,3,WOAN27,
Yes-No Task,72,0,72,0,5.8,-1,Correct Rejection,0.499460999854,False,-1,stimulus_WOAN27_Yes-No Task_2019_Jun_13_1231_373,-1,False,2019_Jun_13_1231,Yes-No Task,3,WOAN27,
Yes-No Task,73,0,73,0,5.8,-1,Correct Rejection,0.467378899921,False,-1,stimulus_WOAN27_Yes-No Task_2019_Jun_13_1231_374,-1,False,2019_Jun_13_1231,Yes-No Task,3,WOAN27,
Yes-No Task,74,0,74,0,5.8,-1,Correct Rejection,0.434761399869,False,-1,stimulus_WOAN27_Yes-No Task_2019_Jun_13_1231_375,-1,False,2019_Jun_13_1231,Yes-No Task,3,WOAN27,
Yes-No Task,0,0,0,0,9.1,-1,Correct Rejection,0.433847399894,False,-1,stimulus_WOAN27_Yes-No Task_2019_Jun_13_1231_376,-1,False,2019_Jun_13_1231,Yes-No Task,3,WOAN27,
Yes-No Task,1,0,1,0,9.1,-1,Hit,0.433897000039,True,-1,stimulus_WOAN27_Yes-No Task_2019_Jun_13_1231_377,-1,False,2019_Jun_13_1231,Yes-No Task,3,WOAN27,
Yes-No Task,2,0,2,0,9.1,-1,Hit,0.432639400009,True,-1,stimulus_WOAN27_Yes-No Task_2019_Jun_13_1231_378,-1,False,2019_Jun_13_1231,Yes-No Task,3,WOAN27,
Yes-No Task,3,0,3,0,9.1,-1,Correct Rejection,0.434574099956,False,-1,stimulus_WOAN27_Yes-No Task_2019_Jun_13_1231_379,-1,False,2019_Jun_13_1231,Yes-No Task,3,WOAN27,
Yes-No Task,4,0,4,0,9.1,-1,False Alarm,0.36611990002,False,-1,stimulus_WOAN27_Yes-No Task_2019_Jun_13_1231_380,-1,False,2019_Jun_13_1231,Yes-No Task,3,WOAN27,
Yes-No Task,5,0,5,0,9.1,-1,Hit,0.468093300005,True,-1,stimulus_WOAN27_Yes-No Task_2019_Jun_13_1231_381,-1,False,2019_Jun_13_1231,Yes-No Task,3,WOAN27,
Yes-No Task,6,0,6,0,9.1,-1,Hit,0.400785200065,True,-1,stimulus_WOAN27_Yes-No Task_2019_Jun_13_1231_382,-1,False,2019_Jun_13_1231,Yes-No Task,3,WOAN27,
Yes-No Task,7,0,7,0,9.1,-1,Correct Rejection,0.466943599982,False,-1,stimulus_WOAN27_Yes-No Task_2019_Jun_13_1231_383,-1,False,2019_Jun_13_1231,Yes-No Task,3,WOAN27,
Yes-No Task,8,0,8,0,9.1,-1,Correct Rejection,0.433999999892,False,-1,stimulus_WOAN27_Yes-No Task_2019_Jun_13_1231_384,-1,False,2019_Jun_13_1231,Yes-No Task,3,WOAN27,
Yes-No Task,9,0,9,0,9.1,-1,Hit,0.333755499916,True,-1,stimulus_WOAN27_Yes-No Task_2019_Jun_13_1231_385,-1,False,2019_Jun_13_1231,Yes-No Task,3,WOAN27,
Yes-No Task,10,0,10,0,9.1,-1,Hit,0.400897300104,True,-1,stimulus_WOAN27_Yes-No Task_2019_Jun_13_1231_386,-1,False,2019_Jun_13_1231,Yes-No Task,3,WOAN27,
Yes-No Task,11,0,11,0,9.1,-1,Correct Rejection,0.500171300024,False,-1,stimulus_WOAN27_Yes-No Task_2019_Jun_13_1231_387,-1,False,2019_Jun_13_1231,Yes-No Task,3,WOAN27,
Yes-No Task,12,0,12,0,9.1,-1,Correct Rejection,0.533868600149,False,-1,stimulus_WOAN27_Yes-No Task_2019_Jun_13_1231_388,-1,False,2019_Jun_13_1231,Yes-No Task,3,WOAN27,
Yes-No Task,13,0,13,0,9.1,-1,Hit,0.467406899901,True,-1,stimulus_WOAN27_Yes-No Task_2019_Jun_13_1231_389,-1,False,2019_Jun_13_1231,Yes-No Task,3,WOAN27,
Yes-No Task,14,0,14,0,9.1,-1,Hit,0.433671399951,True,-1,stimulus_WOAN27_Yes-No Task_2019_Jun_13_1231_390,-1,False,2019_Jun_13_1231,Yes-No Task,3,WOAN27,
Yes-No Task,15,0,15,0,9.1,-1,Hit,0.500442299992,True,-1,stimulus_WOAN27_Yes-No Task_2019_Jun_13_1231_391,-1,False,2019_Jun_13_1231,Yes-No Task,3,WOAN27,
Yes-No Task,16,0,16,0,9.1,-1,Correct Rejection,0.533905499848,False,-1,stimulus_WOAN27_Yes-No Task_2019_Jun_13_1231_392,-1,False,2019_Jun_13_1231,Yes-No Task,3,WOAN27,
Yes-No Task,17,0,17,0,9.1,-1,Hit,0.367113200016,True,-1,stimulus_WOAN27_Yes-No Task_2019_Jun_13_1231_393,-1,False,2019_Jun_13_1231,Yes-No Task,3,WOAN27,
Yes-No Task,18,0,18,0,9.1,-1,False Alarm,0.501981400186,False,-1,stimulus_WOAN27_Yes-No Task_2019_Jun_13_1231_394,-1,False,2019_Jun_13_1231,Yes-No Task,3,WOAN27,
Yes-No Task,19,0,19,0,9.1,-1,Hit,0.400098300073,True,-1,stimulus_WOAN27_Yes-No Task_2019_Jun_13_1231_395,-1,False,2019_Jun_13_1231,Yes-No Task,3,WOAN27,
Yes-No Task,20,0,20,0,9.1,-1,Correct Rejection,0.333869900089,False,-1,stimulus_WOAN27_Yes-No Task_2019_Jun_13_1231_396,-1,False,2019_Jun_13_1231,Yes-No Task,3,WOAN27,
Yes-No Task,21,0,21,0,9.1,-1,Hit,0.500446999911,True,-1,stimulus_WOAN27_Yes-No Task_2019_Jun_13_1231_397,-1,False,2019_Jun_13_1231,Yes-No Task,3,WOAN27,
Yes-No Task,22,0,22,0,9.1,-1,Correct Rejection,0.499813500093,False,-1,stimulus_WOAN27_Yes-No Task_2019_Jun_13_1231_398,-1,False,2019_Jun_13_1231,Yes-No Task,3,WOAN27,
Yes-No Task,23,0,23,0,9.1,-1,Correct Rejection,0.500630300026,False,-1,stimulus_WOAN27_Yes-No Task_2019_Jun_13_1231_399,-1,False,2019_Jun_13_1231,Yes-No Task,3,WOAN27,
Yes-No Task,24,0,24,0,9.1,-1,Hit,0.434014300117,True,-1,stimulus_WOAN27_Yes-No Task_2019_Jun_13_1231_400,-1,False,2019_Jun_13_1231,Yes-No Task,3,WOAN27,
Yes-No Task,25,0,25,0,9.1,-1,Correct Rejection,0.499860699987,False,-1,stimulus_WOAN27_Yes-No Task_2019_Jun_13_1231_401,-1,False,2019_Jun_13_1231,Yes-No Task,3,WOAN27,
Yes-No Task,26,0,26,0,9.1,-1,Miss,0.400823799893,True,-1,stimulus_WOAN27_Yes-No Task_2019_Jun_13_1231_402,-1,False,2019_Jun_13_1231,Yes-No Task,3,WOAN27,
Yes-No Task,27,0,27,0,9.1,-1,Miss,0.266176499892,True,-1,stimulus_WOAN27_Yes-No Task_2019_Jun_13_1231_403,-1,False,2019_Jun_13_1231,Yes-No Task,3,WOAN27,
Yes-No Task,28,0,28,0,9.1,-1,Miss,0.333532100078,True,-1,stimulus_WOAN27_Yes-No Task_2019_Jun_13_1231_404,-1,False,2019_Jun_13_1231,Yes-No Task,3,WOAN27,
Yes-No Task,29,0,29,0,9.1,-1,Hit,0.499821899924,True,-1,stimulus_WOAN27_Yes-No Task_2019_Jun_13_1231_405,-1,False,2019_Jun_13_1231,Yes-No Task,3,WOAN27,
Yes-No Task,30,0,30,0,9.1,-1,Correct Rejection,0.500627799891,False,-1,stimulus_WOAN27_Yes-No Task_2019_Jun_13_1231_406,-1,False,2019_Jun_13_1231,Yes-No Task,3,WOAN27,
Yes-No Task,31,0,31,0,9.1,-1,Correct Rejection,0.50118770008,False,-1,stimulus_WOAN27_Yes-No Task_2019_Jun_13_1231_407,-1,False,2019_Jun_13_1231,Yes-No Task,3,WOAN27,
Yes-No Task,32,0,32,0,9.1,-1,Correct Rejection,0.532898399979,False,-1,stimulus_WOAN27_Yes-No Task_2019_Jun_13_1231_408,-1,False,2019_Jun_13_1231,Yes-No Task,3,WOAN27,
Yes-No Task,33,0,33,0,9.1,-1,Correct Rejection,0.392447900027,False,-1,stimulus_WOAN27_Yes-No Task_2019_Jun_13_1231_409,-1,False,2019_Jun_13_1231,Yes-No Task,3,WOAN27,
Yes-No Task,34,0,34,0,9.1,-1,Hit,0.465838900069,True,-1,stimulus_WOAN27_Yes-No Task_2019_Jun_13_1231_410,-1,False,2019_Jun_13_1231,Yes-No Task,3,WOAN27,
Yes-No Task,35,0,35,0,9.1,-1,Hit,0.500744599849,True,-1,stimulus_WOAN27_Yes-No Task_2019_Jun_13_1231_411,-1,False,2019_Jun_13_1231,Yes-No Task,3,WOAN27,
Yes-No Task,36,0,36,0,9.1,-1,Correct Rejection,0.600579400081,False,-1,stimulus_WOAN27_Yes-No Task_2019_Jun_13_1231_412,-1,False,2019_Jun_13_1231,Yes-No Task,3,WOAN27,
Yes-No Task,37,0,37,0,9.1,-1,Hit,0.433778199833,True,-1,stimulus_WOAN27_Yes-No Task_2019_Jun_13_1231_413,-1,False,2019_Jun_13_1231,Yes-No Task,3,WOAN27,
Yes-No Task,38,0,38,0,9.1,-1,Correct Rejection,0.567174300086,False,-1,stimulus_WOAN27_Yes-No Task_2019_Jun_13_1231_414,-1,False,2019_Jun_13_1231,Yes-No Task,3,WOAN27,
Yes-No Task,39,0,39,0,9.1,-1,Hit,0.433049299987,True,-1,stimulus_WOAN27_Yes-No Task_2019_Jun_13_1231_415,-1,False,2019_Jun_13_1231,Yes-No Task,3,WOAN27,
Yes-No Task,40,0,40,0,9.1,-1,Hit,0.467152399942,True,-1,stimulus_WOAN27_Yes-No Task_2019_Jun_13_1231_416,-1,False,2019_Jun_13_1231,Yes-No Task,3,WOAN27,
Yes-No Task,41,0,41,0,9.1,-1,Hit,0.467268100008,True,-1,stimulus_WOAN27_Yes-No Task_2019_Jun_13_1231_417,-1,False,2019_Jun_13_1231,Yes-No Task,3,WOAN27,
Yes-No Task,42,0,42,0,9.1,-1,Hit,0.434048499912,True,-1,stimulus_WOAN27_Yes-No Task_2019_Jun_13_1231_418,-1,False,2019_Jun_13_1231,Yes-No Task,3,WOAN27,
Yes-No Task,43,0,43,0,9.1,-1,Correct Rejection,0.767245800002,False,-1,stimulus_WOAN27_Yes-No Task_2019_Jun_13_1231_419,-1,False,2019_Jun_13_1231,Yes-No Task,3,WOAN27,
Yes-No Task,44,0,44,0,9.1,-1,Correct Rejection,0.468095500022,False,-1,stimulus_WOAN27_Yes-No Task_2019_Jun_13_1231_420,-1,False,2019_Jun_13_1231,Yes-No Task,3,WOAN27,
Yes-No Task,45,0,45,0,9.1,-1,Miss,0.400817499962,True,-1,stimulus_WOAN27_Yes-No Task_2019_Jun_13_1231_421,-1,False,2019_Jun_13_1231,Yes-No Task,3,WOAN27,
Yes-No Task,46,0,46,0,9.1,-1,Miss,0.299652599962,True,-1,stimulus_WOAN27_Yes-No Task_2019_Jun_13_1231_422,-1,False,2019_Jun_13_1231,Yes-No Task,3,WOAN27,
Yes-No Task,47,0,47,0,9.1,-1,Hit,0.433999100002,True,-1,stimulus_WOAN27_Yes-No Task_2019_Jun_13_1231_423,-1,False,2019_Jun_13_1231,Yes-No Task,3,WOAN27,
Yes-No Task,48,0,48,0,9.1,-1,Hit,0.400648700073,True,-1,stimulus_WOAN27_Yes-No Task_2019_Jun_13_1231_424,-1,False,2019_Jun_13_1231,Yes-No Task,3,WOAN27,
Yes-No Task,49,0,49,0,9.1,-1,Hit,0.432977000019,True,-1,stimulus_WOAN27_Yes-No Task_2019_Jun_13_1231_425,-1,False,2019_Jun_13_1231,Yes-No Task,3,WOAN27,
Yes-No Task,50,0,50,0,9.1,-1,Hit,0.467457200168,True,-1,stimulus_WOAN27_Yes-No Task_2019_Jun_13_1231_426,-1,False,2019_Jun_13_1231,Yes-No Task,3,WOAN27,
Yes-No Task,51,0,51,0,9.1,-1,Correct Rejection,0.500569100026,False,-1,stimulus_WOAN27_Yes-No Task_2019_Jun_13_1231_427,-1,False,2019_Jun_13_1231,Yes-No Task,3,WOAN27,
Yes-No Task,52,0,52,0,9.1,-1,Hit,0.433515699813,True,-1,stimulus_WOAN27_Yes-No Task_2019_Jun_13_1231_428,-1,False,2019_Jun_13_1231,Yes-No Task,3,WOAN27,
Yes-No Task,53,0,53,0,9.1,-1,False Alarm,0.399446900003,False,-1,stimulus_WOAN27_Yes-No Task_2019_Jun_13_1231_429,-1,False,2019_Jun_13_1231,Yes-No Task,3,WOAN27,
Yes-No Task,54,0,54,0,9.1,-1,Correct Rejection,0.267065600026,False,-1,stimulus_WOAN27_Yes-No Task_2019_Jun_13_1231_430,-1,False,2019_Jun_13_1231,Yes-No Task,3,WOAN27,
Yes-No Task,55,0,55,0,9.1,-1,Hit,0.433759699808,True,-1,stimulus_WOAN27_Yes-No Task_2019_Jun_13_1231_431,-1,False,2019_Jun_13_1231,Yes-No Task,3,WOAN27,
Yes-No Task,56,0,56,0,9.1,-1,Hit,0.467196600046,True,-1,stimulus_WOAN27_Yes-No Task_2019_Jun_13_1231_432,-1,False,2019_Jun_13_1231,Yes-No Task,3,WOAN27,
Yes-No Task,57,0,57,0,9.1,-1,Correct Rejection,0.633028900018,False,-1,stimulus_WOAN27_Yes-No Task_2019_Jun_13_1231_433,-1,False,2019_Jun_13_1231,Yes-No Task,3,WOAN27,
Yes-No Task,58,0,58,0,9.1,-1,Correct Rejection,0.500575500075,False,-1,stimulus_WOAN27_Yes-No Task_2019_Jun_13_1231_434,-1,False,2019_Jun_13_1231,Yes-No Task,3,WOAN27,
Yes-No Task,59,0,59,0,9.1,-1,Hit,0.434397900011,True,-1,stimulus_WOAN27_Yes-No Task_2019_Jun_13_1231_435,-1,False,2019_Jun_13_1231,Yes-No Task,3,WOAN27,
Yes-No Task,60,0,60,0,9.1,-1,Hit,0.433164499933,True,-1,stimulus_WOAN27_Yes-No Task_2019_Jun_13_1231_436,-1,False,2019_Jun_13_1231,Yes-No Task,3,WOAN27,
Yes-No Task,61,0,61,0,9.1,-1,Hit,0.667349300114,True,-1,stimulus_WOAN27_Yes-No Task_2019_Jun_13_1231_437,-1,False,2019_Jun_13_1231,Yes-No Task,3,WOAN27,
Yes-No Task,62,0,62,0,9.1,-1,Hit,0.433914600173,True,-1,stimulus_WOAN27_Yes-No Task_2019_Jun_13_1231_438,-1,False,2019_Jun_13_1231,Yes-No Task,3,WOAN27,
Yes-No Task,63,0,63,0,9.1,-1,Correct Rejection,0.600108899875,False,-1,stimulus_WOAN27_Yes-No Task_2019_Jun_13_1231_439,-1,False,2019_Jun_13_1231,Yes-No Task,3,WOAN27,
Yes-No Task,64,0,64,0,9.1,-1,Hit,0.500630599912,True,-1,stimulus_WOAN27_Yes-No Task_2019_Jun_13_1231_440,-1,False,2019_Jun_13_1231,Yes-No Task,3,WOAN27,
Yes-No Task,65,0,65,0,9.1,-1,Hit,0.466920499923,True,-1,stimulus_WOAN27_Yes-No Task_2019_Jun_13_1231_441,-1,False,2019_Jun_13_1231,Yes-No Task,3,WOAN27,
Yes-No Task,66,0,66,0,9.1,-1,Hit,0.46732549998,True,-1,stimulus_WOAN27_Yes-No Task_2019_Jun_13_1231_442,-1,False,2019_Jun_13_1231,Yes-No Task,3,WOAN27,
Yes-No Task,67,0,67,0,9.1,-1,Hit,0.433845800115,True,-1,stimulus_WOAN27_Yes-No Task_2019_Jun_13_1231_443,-1,False,2019_Jun_13_1231,Yes-No Task,3,WOAN27,
Yes-No Task,68,0,68,0,9.1,-1,Correct Rejection,0.501656500157,False,-1,stimulus_WOAN27_Yes-No Task_2019_Jun_13_1231_444,-1,False,2019_Jun_13_1231,Yes-No Task,3,WOAN27,
Yes-No Task,69,0,69,0,9.1,-1,Hit,0.400679900078,True,-1,stimulus_WOAN27_Yes-No Task_2019_Jun_13_1231_445,-1,False,2019_Jun_13_1231,Yes-No Task,3,WOAN27,
Yes-No Task,70,0,70,0,9.1,-1,Hit,0.434181499993,True,-1,stimulus_WOAN27_Yes-No Task_2019_Jun_13_1231_446,-1,False,2019_Jun_13_1231,Yes-No Task,3,WOAN27,
Yes-No Task,71,0,71,0,9.1,-1,Hit,0.436158500146,True,-1,stimulus_WOAN27_Yes-No Task_2019_Jun_13_1231_447,-1,False,2019_Jun_13_1231,Yes-No Task,3,WOAN27,
Yes-No Task,72,0,72,0,9.1,-1,Hit,0.43472540006,True,-1,stimulus_WOAN27_Yes-No Task_2019_Jun_13_1231_448,-1,False,2019_Jun_13_1231,Yes-No Task,3,WOAN27,
Yes-No Task,73,0,73,0,9.1,-1,Correct Rejection,0.434006900061,False,-1,stimulus_WOAN27_Yes-No Task_2019_Jun_13_1231_449,-1,False,2019_Jun_13_1231,Yes-No Task,3,WOAN27,
Yes-No Task,74,0,74,0,9.1,-1,False Alarm,0.400603000075,False,-1,stimulus_WOAN27_Yes-No Task_2019_Jun_13_1231_450,-1,False,2019_Jun_13_1231,Yes-No Task,3,WOAN27,
Yes-No Task,0,0,0,0,1.4,-1,Miss,0.40067129978,True,-1,stimulus_WOAN27_Yes-No Task_2019_Jun_13_1231_451,-1,False,2019_Jun_13_1231,Yes-No Task,3,WOAN27,
Yes-No Task,1,0,1,0,1.4,-1,Miss,0.366901600035,True,-1,stimulus_WOAN27_Yes-No Task_2019_Jun_13_1231_452,-1,False,2019_Jun_13_1231,Yes-No Task,3,WOAN27,
Yes-No Task,2,0,2,0,1.4,-1,Miss,0.268182300031,True,-1,stimulus_WOAN27_Yes-No Task_2019_Jun_13_1231_453,-1,False,2019_Jun_13_1231,Yes-No Task,3,WOAN27,
Yes-No Task,3,0,3,0,1.4,-1,Correct Rejection,0.367155899992,False,-1,stimulus_WOAN27_Yes-No Task_2019_Jun_13_1231_454,-1,False,2019_Jun_13_1231,Yes-No Task,3,WOAN27,
Yes-No Task,4,0,4,0,1.4,-1,Correct Rejection,0.566568000009,False,-1,stimulus_WOAN27_Yes-No Task_2019_Jun_13_1231_455,-1,False,2019_Jun_13_1231,Yes-No Task,3,WOAN27,
Yes-No Task,5,0,5,0,1.4,-1,Hit,0.501454900019,True,-1,stimulus_WOAN27_Yes-No Task_2019_Jun_13_1231_456,-1,False,2019_Jun_13_1231,Yes-No Task,3,WOAN27,
Yes-No Task,6,0,6,0,1.4,-1,Miss,0.433059599949,True,-1,stimulus_WOAN27_Yes-No Task_2019_Jun_13_1231_457,-1,False,2019_Jun_13_1231,Yes-No Task,3,WOAN27,
Yes-No Task,7,0,7,0,1.4,-1,Correct Rejection,0.300770999864,False,-1,stimulus_WOAN27_Yes-No Task_2019_Jun_13_1231_458,-1,False,2019_Jun_13_1231,Yes-No Task,3,WOAN27,
Yes-No Task,8,0,8,0,1.4,-1,Miss,0.43521200004,True,-1,stimulus_WOAN27_Yes-No Task_2019_Jun_13_1231_459,-1,False,2019_Jun_13_1231,Yes-No Task,3,WOAN27,
Yes-No Task,9,0,9,0,1.4,-1,Miss,0.367170799989,True,-1,stimulus_WOAN27_Yes-No Task_2019_Jun_13_1231_460,-1,False,2019_Jun_13_1231,Yes-No Task,3,WOAN27,
Yes-No Task,10,0,10,0,1.4,-1,Correct Rejection,0.467536400072,False,-1,stimulus_WOAN27_Yes-No Task_2019_Jun_13_1231_461,-1,False,2019_Jun_13_1231,Yes-No Task,3,WOAN27,
Yes-No Task,11,0,11,0,1.4,-1,Hit,0.399772499921,True,-1,stimulus_WOAN27_Yes-No Task_2019_Jun_13_1231_462,-1,False,2019_Jun_13_1231,Yes-No Task,3,WOAN27,
Yes-No Task,12,0,12,0,1.4,-1,Correct Rejection,0.601453899872,False,-1,stimulus_WOAN27_Yes-No Task_2019_Jun_13_1231_463,-1,False,2019_Jun_13_1231,Yes-No Task,3,WOAN27,
Yes-No Task,13,0,13,0,1.4,-1,Correct Rejection,0.500641199993,False,-1,stimulus_WOAN27_Yes-No Task_2019_Jun_13_1231_464,-1,False,2019_Jun_13_1231,Yes-No Task,3,WOAN27,
Yes-No Task,14,0,14,0,1.4,-1,Miss,0.500696499832,True,-1,stimulus_WOAN27_Yes-No Task_2019_Jun_13_1231_465,-1,False,2019_Jun_13_1231,Yes-No Task,3,WOAN27,
Yes-No Task,15,0,15,0,1.4,-1,Correct Rejection,0.333497799933,False,-1,stimulus_WOAN27_Yes-No Task_2019_Jun_13_1231_466,-1,False,2019_Jun_13_1231,Yes-No Task,3,WOAN27,
Yes-No Task,16,0,16,0,1.4,-1,Correct Rejection,0.433820499806,False,-1,stimulus_WOAN27_Yes-No Task_2019_Jun_13_1231_467,-1,False,2019_Jun_13_1231,Yes-No Task,3,WOAN27,
Yes-No Task,17,0,17,0,1.4,-1,Hit,0.43377829995,True,-1,stimulus_WOAN27_Yes-No Task_2019_Jun_13_1231_468,-1,False,2019_Jun_13_1231,Yes-No Task,3,WOAN27,
Yes-No Task,18,0,18,0,1.4,-1,Hit,0.568722900003,True,-1,stimulus_WOAN27_Yes-No Task_2019_Jun_13_1231_469,-1,False,2019_Jun_13_1231,Yes-No Task,3,WOAN27,
Yes-No Task,19,0,19,0,1.4,-1,Miss,0.333223699825,True,-1,stimulus_WOAN27_Yes-No Task_2019_Jun_13_1231_470,-1,False,2019_Jun_13_1231,Yes-No Task,3,WOAN27,
Yes-No Task,20,0,20,0,1.4,-1,Correct Rejection,0.500606099842,False,-1,stimulus_WOAN27_Yes-No Task_2019_Jun_13_1231_471,-1,False,2019_Jun_13_1231,Yes-No Task,3,WOAN27,
Yes-No Task,21,0,21,0,1.4,-1,False Alarm,0.335627599852,False,-1,stimulus_WOAN27_Yes-No Task_2019_Jun_13_1231_472,-1,False,2019_Jun_13_1231,Yes-No Task,3,WOAN27,
Yes-No Task,22,0,22,0,1.4,-1,Miss,0.23425349989,True,-1,stimulus_WOAN27_Yes-No Task_2019_Jun_13_1231_473,-1,False,2019_Jun_13_1231,Yes-No Task,3,WOAN27,
Yes-No Task,23,0,23,0,1.4,-1,Correct Rejection,0.400525300065,False,-1,stimulus_WOAN27_Yes-No Task_2019_Jun_13_1231_474,-1,False,2019_Jun_13_1231,Yes-No Task,3,WOAN27,
Yes-No Task,24,0,24,0,1.4,-1,Miss,0.400849899976,True,-1,stimulus_WOAN27_Yes-No Task_2019_Jun_13_1231_475,-1,False,2019_Jun_13_1231,Yes-No Task,3,WOAN27,
Yes-No Task,25,0,25,0,1.4,-1,Correct Rejection,0.399521599989,False,-1,stimulus_WOAN27_Yes-No Task_2019_Jun_13_1231_476,-1,False,2019_Jun_13_1231,Yes-No Task,3,WOAN27,
Yes-No Task,26,0,26,0,1.4,-1,Miss,0.400393199874,True,-1,stimulus_WOAN27_Yes-No Task_2019_Jun_13_1231_477,-1,False,2019_Jun_13_1231,Yes-No Task,3,WOAN27,
Yes-No Task,27,0,27,0,1.4,-1,Correct Rejection,0.534762199968,False,-1,stimulus_WOAN27_Yes-No Task_2019_Jun_13_1231_478,-1,False,2019_Jun_13_1231,Yes-No Task,3,WOAN27,
Yes-No Task,28,0,28,0,1.4,-1,False Alarm,0.400602600072,False,-1,stimulus_WOAN27_Yes-No Task_2019_Jun_13_1231_479,-1,False,2019_Jun_13_1231,Yes-No Task,3,WOAN27,
Yes-No Task,29,0,29,0,1.4,-1,Correct Rejection,0.234256200027,False,-1,stimulus_WOAN27_Yes-No Task_2019_Jun_13_1231_480,-1,False,2019_Jun_13_1231,Yes-No Task,3,WOAN27,
Yes-No Task,30,0,30,0,1.4,-1,Correct Rejection,0.400249799946,False,-1,stimulus_WOAN27_Yes-No Task_2019_Jun_13_1231_481,-1,False,2019_Jun_13_1231,Yes-No Task,3,WOAN27,
Yes-No Task,31,0,31,0,1.4,-1,Correct Rejection,0.468151300214,False,-1,stimulus_WOAN27_Yes-No Task_2019_Jun_13_1231_482,-1,False,2019_Jun_13_1231,Yes-No Task,3,WOAN27,
Yes-No Task,32,0,32,0,1.4,-1,Hit,0.468710600166,True,-1,stimulus_WOAN27_Yes-No Task_2019_Jun_13_1231_483,-1,False,2019_Jun_13_1231,Yes-No Task,3,WOAN27,
Yes-No Task,33,0,33,0,1.4,-1,Correct Rejection,0.533362200018,False,-1,stimulus_WOAN27_Yes-No Task_2019_Jun_13_1231_484,-1,False,2019_Jun_13_1231,Yes-No Task,3,WOAN27,
Yes-No Task,34,0,34,0,1.4,-1,Hit,0.49953739997,True,-1,stimulus_WOAN27_Yes-No Task_2019_Jun_13_1231_485,-1,False,2019_Jun_13_1231,Yes-No Task,3,WOAN27,
Yes-No Task,35,0,35,0,1.4,-1,Miss,0.500430500135,True,-1,stimulus_WOAN27_Yes-No Task_2019_Jun_13_1231_486,-1,False,2019_Jun_13_1231,Yes-No Task,3,WOAN27,
Yes-No Task,36,0,36,0,1.4,-1,Miss,0.400702199899,True,-1,stimulus_WOAN27_Yes-No Task_2019_Jun_13_1231_487,-1,False,2019_Jun_13_1231,Yes-No Task,3,WOAN27,
Yes-No Task,37,0,37,0,1.4,-1,Hit,0.46762209991,True,-1,stimulus_WOAN27_Yes-No Task_2019_Jun_13_1231_488,-1,False,2019_Jun_13_1231,Yes-No Task,3,WOAN27,
Yes-No Task,38,0,38,0,1.4,-1,False Alarm,0.40042020008,False,-1,stimulus_WOAN27_Yes-No Task_2019_Jun_13_1231_489,-1,False,2019_Jun_13_1231,Yes-No Task,3,WOAN27,
Yes-No Task,39,0,39,0,1.4,-1,Miss,0.200204299996,True,-1,stimulus_WOAN27_Yes-No Task_2019_Jun_13_1231_490,-1,False,2019_Jun_13_1231,Yes-No Task,3,WOAN27,
Yes-No Task,40,0,40,0,1.4,-1,Hit,0.432401500177,True,-1,stimulus_WOAN27_Yes-No Task_2019_Jun_13_1231_491,-1,False,2019_Jun_13_1231,Yes-No Task,3,WOAN27,
Yes-No Task,41,0,41,0,1.4,-1,Miss,0.433902200079,True,-1,stimulus_WOAN27_Yes-No Task_2019_Jun_13_1231_492,-1,False,2019_Jun_13_1231,Yes-No Task,3,WOAN27,
Yes-No Task,42,0,42,0,1.4,-1,False Alarm,0.233383799903,False,-1,stimulus_WOAN27_Yes-No Task_2019_Jun_13_1231_493,-1,False,2019_Jun_13_1231,Yes-No Task,3,WOAN27,
Yes-No Task,43,0,43,0,1.4,-1,Miss,0.398410300026,True,-1,stimulus_WOAN27_Yes-No Task_2019_Jun_13_1231_494,-1,False,2019_Jun_13_1231,Yes-No Task,3,WOAN27,
Yes-No Task,44,0,44,0,1.4,-1,Miss,0.262766300002,True,-1,stimulus_WOAN27_Yes-No Task_2019_Jun_13_1231_495,-1,False,2019_Jun_13_1231,Yes-No Task,3,WOAN27,
Yes-No Task,45,0,45,0,1.4,-1,Correct Rejection,0.334394099889,False,-1,stimulus_WOAN27_Yes-No Task_2019_Jun_13_1231_496,-1,False,2019_Jun_13_1231,Yes-No Task,3,WOAN27,
Yes-No Task,46,0,46,0,1.4,-1,Hit,0.400638499996,True,-1,stimulus_WOAN27_Yes-No Task_2019_Jun_13_1231_497,-1,False,2019_Jun_13_1231,Yes-No Task,3,WOAN27,
Yes-No Task,47,0,47,0,1.4,-1,Miss,0.335554099875,True,-1,stimulus_WOAN27_Yes-No Task_2019_Jun_13_1231_498,-1,False,2019_Jun_13_1231,Yes-No Task,3,WOAN27,
Yes-No Task,48,0,48,0,1.4,-1,Hit,0.499878899893,True,-1,stimulus_WOAN27_Yes-No Task_2019_Jun_13_1231_499,-1,False,2019_Jun_13_1231,Yes-No Task,3,WOAN27,
Yes-No Task,49,0,49,0,1.4,-1,Miss,0.234040400013,True,-1,stimulus_WOAN27_Yes-No Task_2019_Jun_13_1231_500,-1,False,2019_Jun_13_1231,Yes-No Task,3,WOAN27,
Yes-No Task,50,0,50,0,1.4,-1,False Alarm,0.334016999928,False,-1,stimulus_WOAN27_Yes-No Task_2019_Jun_13_1231_501,-1,False,2019_Jun_13_1231,Yes-No Task,3,WOAN27,
Yes-No Task,51,0,51,0,1.4,-1,Miss,0.0667757999618,True,-1,stimulus_WOAN27_Yes-No Task_2019_Jun_13_1231_502,-1,False,2019_Jun_13_1231,Yes-No Task,3,WOAN27,
Yes-No Task,52,0,52,0,1.4,-1,Miss,0.300316900015,True,-1,stimulus_WOAN27_Yes-No Task_2019_Jun_13_1231_503,-1,False,2019_Jun_13_1231,Yes-No Task,3,WOAN27,
Yes-No Task,53,0,53,0,1.4,-1,Correct Rejection,0.434724199818,False,-1,stimulus_WOAN27_Yes-No Task_2019_Jun_13_1231_504,-1,False,2019_Jun_13_1231,Yes-No Task,3,WOAN27,
Yes-No Task,54,0,54,0,1.4,-1,Miss,0.301143200137,True,-1,stimulus_WOAN27_Yes-No Task_2019_Jun_13_1231_505,-1,False,2019_Jun_13_1231,Yes-No Task,3,WOAN27,
Yes-No Task,55,0,55,0,1.4,-1,Miss,0.2341763,True,-1,stimulus_WOAN27_Yes-No Task_2019_Jun_13_1231_506,-1,False,2019_Jun_13_1231,Yes-No Task,3,WOAN27,
Yes-No Task,56,0,56,0,1.4,-1,Miss,0.268258200027,True,-1,stimulus_WOAN27_Yes-No Task_2019_Jun_13_1231_507,-1,False,2019_Jun_13_1231,Yes-No Task,3,WOAN27,
Yes-No Task,57,0,57,0,1.4,-1,Correct Rejection,0.167754699942,False,-1,stimulus_WOAN27_Yes-No Task_2019_Jun_13_1231_508,-1,False,2019_Jun_13_1231,Yes-No Task,3,WOAN27,
Yes-No Task,58,0,58,0,1.4,-1,False Alarm,0.266750999959,False,-1,stimulus_WOAN27_Yes-No Task_2019_Jun_13_1231_509,-1,False,2019_Jun_13_1231,Yes-No Task,3,WOAN27,
Yes-No Task,59,0,59,0,1.4,-1,Correct Rejection,0.300587699981,False,-1,stimulus_WOAN27_Yes-No Task_2019_Jun_13_1231_510,-1,False,2019_Jun_13_1231,Yes-No Task,3,WOAN27,
Yes-No Task,60,0,60,0,1.4,-1,Correct Rejection,0.433735299855,False,-1,stimulus_WOAN27_Yes-No Task_2019_Jun_13_1231_511,-1,False,2019_Jun_13_1231,Yes-No Task,3,WOAN27,
Yes-No Task,61,0,61,0,1.4,-1,Miss,0.43434570008,True,-1,stimulus_WOAN27_Yes-No Task_2019_Jun_13_1231_512,-1,False,2019_Jun_13_1231,Yes-No Task,3,WOAN27,
Yes-No Task,62,0,62,0,1.4,-1,Correct Rejection,0.432868100004,False,-1,stimulus_WOAN27_Yes-No Task_2019_Jun_13_1231_513,-1,False,2019_Jun_13_1231,Yes-No Task,3,WOAN27,
Yes-No Task,63,0,63,0,1.4,-1,Correct Rejection,0.500564299989,False,-1,stimulus_WOAN27_Yes-No Task_2019_Jun_13_1231_514,-1,False,2019_Jun_13_1231,Yes-No Task,3,WOAN27,
Yes-No Task,64,0,64,0,1.4,-1,False Alarm,0.367343200138,False,-1,stimulus_WOAN27_Yes-No Task_2019_Jun_13_1231_515,-1,False,2019_Jun_13_1231,Yes-No Task,3,WOAN27,
Yes-No Task,65,0,65,0,1.4,-1,Correct Rejection,0.166982199997,False,-1,stimulus_WOAN27_Yes-No Task_2019_Jun_13_1231_516,-1,False,2019_Jun_13_1231,Yes-No Task,3,WOAN27,
Yes-No Task,66,0,66,0,1.4,-1,Miss,0.199257900007,True,-1,stimulus_WOAN27_Yes-No Task_2019_Jun_13_1231_517,-1,False,2019_Jun_13_1231,Yes-No Task,3,WOAN27,
Yes-No Task,67,0,67,0,1.4,-1,Miss,0.267080000136,True,-1,stimulus_WOAN27_Yes-No Task_2019_Jun_13_1231_518,-1,False,2019_Jun_13_1231,Yes-No Task,3,WOAN27,
Yes-No Task,68,0,68,0,1.4,-1,Correct Rejection,0.434792499989,False,-1,stimulus_WOAN27_Yes-No Task_2019_Jun_13_1231_519,-1,False,2019_Jun_13_1231,Yes-No Task,3,WOAN27,
Yes-No Task,69,0,69,0,1.4,-1,Correct Rejection,0.400495599955,False,-1,stimulus_WOAN27_Yes-No Task_2019_Jun_13_1231_520,-1,False,2019_Jun_13_1231,Yes-No Task,3,WOAN27,
Yes-No Task,70,0,70,0,1.4,-1,Miss,0.366813000059,True,-1,stimulus_WOAN27_Yes-No Task_2019_Jun_13_1231_521,-1,False,2019_Jun_13_1231,Yes-No Task,3,WOAN27,
Yes-No Task,71,0,71,0,1.4,-1,Correct Rejection,0.166560899932,False,-1,stimulus_WOAN27_Yes-No Task_2019_Jun_13_1231_522,-1,False,2019_Jun_13_1231,Yes-No Task,3,WOAN27,
Yes-No Task,72,0,72,0,1.4,-1,Correct Rejection,0.333753000014,False,-1,stimulus_WOAN27_Yes-No Task_2019_Jun_13_1231_523,-1,False,2019_Jun_13_1231,Yes-No Task,3,WOAN27,
Yes-No Task,73,0,73,0,1.4,-1,Miss,0.267179500079,True,-1,stimulus_WOAN27_Yes-No Task_2019_Jun_13_1231_524,-1,False,2019_Jun_13_1231,Yes-No Task,3,WOAN27,
Yes-No Task,74,0,74,0,1.4,-1,Miss,0.433660899987,True,-1,stimulus_WOAN27_Yes-No Task_2019_Jun_13_1231_525,-1,False,2019_Jun_13_1231,Yes-No Task,3,WOAN27,
Yes-No Task,0,0,0,0,7.5,-1,Correct Rejection,0.700703199953,False,-1,stimulus_WOAN27_Yes-No Task_2019_Jun_13_1231_526,-1,False,2019_Jun_13_1231,Yes-No Task,3,WOAN27,
Yes-No Task,1,0,1,0,7.5,-1,Correct Rejection,0.433858100092,False,-1,stimulus_WOAN27_Yes-No Task_2019_Jun_13_1231_527,-1,False,2019_Jun_13_1231,Yes-No Task,3,WOAN27,
Yes-No Task,2,0,2,0,7.5,-1,Miss,0.400734199909,True,-1,stimulus_WOAN27_Yes-No Task_2019_Jun_13_1231_528,-1,False,2019_Jun_13_1231,Yes-No Task,3,WOAN27,
Yes-No Task,3,0,3,0,7.5,-1,Miss,0.332104899921,True,-1,stimulus_WOAN27_Yes-No Task_2019_Jun_13_1231_529,-1,False,2019_Jun_13_1231,Yes-No Task,3,WOAN27,
Yes-No Task,4,0,4,0,7.5,-1,Hit,0.534285499947,True,-1,stimulus_WOAN27_Yes-No Task_2019_Jun_13_1231_530,-1,False,2019_Jun_13_1231,Yes-No Task,3,WOAN27,
Yes-No Task,5,0,5,0,7.5,-1,Correct Rejection,0.467482400127,False,-1,stimulus_WOAN27_Yes-No Task_2019_Jun_13_1231_531,-1,False,2019_Jun_13_1231,Yes-No Task,3,WOAN27,
Yes-No Task,6,0,6,0,7.5,-1,Hit,0.367776799947,True,-1,stimulus_WOAN27_Yes-No Task_2019_Jun_13_1231_532,-1,False,2019_Jun_13_1231,Yes-No Task,3,WOAN27,
Yes-No Task,7,0,7,0,7.5,-1,Correct Rejection,0.500665700063,False,-1,stimulus_WOAN27_Yes-No Task_2019_Jun_13_1231_533,-1,False,2019_Jun_13_1231,Yes-No Task,3,WOAN27,
Yes-No Task,8,0,8,0,7.5,-1,Correct Rejection,0.434764999896,False,-1,stimulus_WOAN27_Yes-No Task_2019_Jun_13_1231_534,-1,False,2019_Jun_13_1231,Yes-No Task,3,WOAN27,
Yes-No Task,9,0,9,0,7.5,-1,Hit,0.667766700033,True,-1,stimulus_WOAN27_Yes-No Task_2019_Jun_13_1231_535,-1,False,2019_Jun_13_1231,Yes-No Task,3,WOAN27,
Yes-No Task,10,0,10,0,7.5,-1,Correct Rejection,0.333845800022,False,-1,stimulus_WOAN27_Yes-No Task_2019_Jun_13_1231_536,-1,False,2019_Jun_13_1231,Yes-No Task,3,WOAN27,
Yes-No Task,11,0,11,0,7.5,-1,Correct Rejection,0.432766299928,False,-1,stimulus_WOAN27_Yes-No Task_2019_Jun_13_1231_537,-1,False,2019_Jun_13_1231,Yes-No Task,3,WOAN27,
Yes-No Task,12,0,12,0,7.5,-1,Correct Rejection,0.400452400092,False,-1,stimulus_WOAN27_Yes-No Task_2019_Jun_13_1231_538,-1,False,2019_Jun_13_1231,Yes-No Task,3,WOAN27,
Yes-No Task,13,0,13,0,7.5,-1,Hit,0.434159900062,True,-1,stimulus_WOAN27_Yes-No Task_2019_Jun_13_1231_539,-1,False,2019_Jun_13_1231,Yes-No Task,3,WOAN27,
Yes-No Task,14,0,14,0,7.5,-1,Correct Rejection,0.400021099951,False,-1,stimulus_WOAN27_Yes-No Task_2019_Jun_13_1231_540,-1,False,2019_Jun_13_1231,Yes-No Task,3,WOAN27,
Yes-No Task,15,0,15,0,7.5,-1,Hit,0.501729599899,True,-1,stimulus_WOAN27_Yes-No Task_2019_Jun_13_1231_541,-1,False,2019_Jun_13_1231,Yes-No Task,3,WOAN27,
Yes-No Task,16,0,16,0,7.5,-1,Correct Rejection,0.400885700015,False,-1,stimulus_WOAN27_Yes-No Task_2019_Jun_13_1231_542,-1,False,2019_Jun_13_1231,Yes-No Task,3,WOAN27,
Yes-No Task,17,0,17,0,7.5,-1,Correct Rejection,0.533937999979,False,-1,stimulus_WOAN27_Yes-No Task_2019_Jun_13_1231_543,-1,False,2019_Jun_13_1231,Yes-No Task,3,WOAN27,
Yes-No Task,18,0,18,0,7.5,-1,Correct Rejection,0.402362599969,False,-1,stimulus_WOAN27_Yes-No Task_2019_Jun_13_1231_544,-1,False,2019_Jun_13_1231,Yes-No Task,3,WOAN27,
Yes-No Task,19,0,19,0,7.5,-1,Hit,0.568777999841,True,-1,stimulus_WOAN27_Yes-No Task_2019_Jun_13_1231_545,-1,False,2019_Jun_13_1231,Yes-No Task,3,WOAN27,
Yes-No Task,20,0,20,0,7.5,-1,Miss,0.466049199924,True,-1,stimulus_WOAN27_Yes-No Task_2019_Jun_13_1231_546,-1,False,2019_Jun_13_1231,Yes-No Task,3,WOAN27,
Yes-No Task,21,0,21,0,7.5,-1,Miss,0.331123500131,True,-1,stimulus_WOAN27_Yes-No Task_2019_Jun_13_1231_547,-1,False,2019_Jun_13_1231,Yes-No Task,3,WOAN27,
Yes-No Task,22,0,22,0,7.5,-1,Correct Rejection,0.400576400105,False,-1,stimulus_WOAN27_Yes-No Task_2019_Jun_13_1231_548,-1,False,2019_Jun_13_1231,Yes-No Task,3,WOAN27,
Yes-No Task,23,0,23,0,7.5,-1,Hit,0.36726660002,True,-1,stimulus_WOAN27_Yes-No Task_2019_Jun_13_1231_549,-1,False,2019_Jun_13_1231,Yes-No Task,3,WOAN27,
Yes-No Task,24,0,24,0,7.5,-1,Correct Rejection,0.468109600013,False,-1,stimulus_WOAN27_Yes-No Task_2019_Jun_13_1231_550,-1,False,2019_Jun_13_1231,Yes-No Task,3,WOAN27,
Yes-No Task,25,0,25,0,7.5,-1,Hit,0.367035500007,True,-1,stimulus_WOAN27_Yes-No Task_2019_Jun_13_1231_551,-1,False,2019_Jun_13_1231,Yes-No Task,3,WOAN27,
Yes-No Task,26,0,26,0,7.5,-1,Hit,0.433823799947,True,-1,stimulus_WOAN27_Yes-No Task_2019_Jun_13_1231_552,-1,False,2019_Jun_13_1231,Yes-No Task,3,WOAN27,
Yes-No Task,27,0,27,0,7.5,-1,Hit,0.600784299895,True,-1,stimulus_WOAN27_Yes-No Task_2019_Jun_13_1231_553,-1,False,2019_Jun_13_1231,Yes-No Task,3,WOAN27,
Yes-No Task,28,0,28,0,7.5,-1,Correct Rejection,0.301048699999,False,-1,stimulus_WOAN27_Yes-No Task_2019_Jun_13_1231_554,-1,False,2019_Jun_13_1231,Yes-No Task,3,WOAN27,
Yes-No Task,29,0,29,0,7.5,-1,False Alarm,0.333884200081,False,-1,stimulus_WOAN27_Yes-No Task_2019_Jun_13_1231_555,-1,False,2019_Jun_13_1231,Yes-No Task,3,WOAN27,
Yes-No Task,30,0,30,0,7.5,-1,Hit,0.333323600003,True,-1,stimulus_WOAN27_Yes-No Task_2019_Jun_13_1231_556,-1,False,2019_Jun_13_1231,Yes-No Task,3,WOAN27,
Yes-No Task,31,0,31,0,7.5,-1,Correct Rejection,0.567186399829,False,-1,stimulus_WOAN27_Yes-No Task_2019_Jun_13_1231_557,-1,False,2019_Jun_13_1231,Yes-No Task,3,WOAN27,
Yes-No Task,32,0,32,0,7.5,-1,Hit,0.502101900056,True,-1,stimulus_WOAN27_Yes-No Task_2019_Jun_13_1231_558,-1,False,2019_Jun_13_1231,Yes-No Task,3,WOAN27,
Yes-No Task,33,0,33,0,7.5,-1,Hit,0.434607699979,True,-1,stimulus_WOAN27_Yes-No Task_2019_Jun_13_1231_559,-1,False,2019_Jun_13_1231,Yes-No Task,3,WOAN27,
Yes-No Task,34,0,34,0,7.5,-1,Hit,0.434995800024,True,-1,stimulus_WOAN27_Yes-No Task_2019_Jun_13_1231_560,-1,False,2019_Jun_13_1231,Yes-No Task,3,WOAN27,
Yes-No Task,35,0,35,0,7.5,-1,Correct Rejection,0.467139399843,False,-1,stimulus_WOAN27_Yes-No Task_2019_Jun_13_1231_561,-1,False,2019_Jun_13_1231,Yes-No Task,3,WOAN27,
Yes-No Task,36,0,36,0,7.5,-1,Correct Rejection,0.467046999838,False,-1,stimulus_WOAN27_Yes-No Task_2019_Jun_13_1231_562,-1,False,2019_Jun_13_1231,Yes-No Task,3,WOAN27,
Yes-No Task,37,0,37,0,7.5,-1,Correct Rejection,0.401601399994,False,-1,stimulus_WOAN27_Yes-No Task_2019_Jun_13_1231_563,-1,False,2019_Jun_13_1231,Yes-No Task,3,WOAN27,
Yes-No Task,38,0,38,0,7.5,-1,Correct Rejection,0.500716299983,False,-1,stimulus_WOAN27_Yes-No Task_2019_Jun_13_1231_564,-1,False,2019_Jun_13_1231,Yes-No Task,3,WOAN27,
Yes-No Task,39,0,39,0,7.5,-1,Hit,0.467177599901,True,-1,stimulus_WOAN27_Yes-No Task_2019_Jun_13_1231_565,-1,False,2019_Jun_13_1231,Yes-No Task,3,WOAN27,
Yes-No Task,40,0,40,0,7.5,-1,Correct Rejection,0.533119000029,False,-1,stimulus_WOAN27_Yes-No Task_2019_Jun_13_1231_566,-1,False,2019_Jun_13_1231,Yes-No Task,3,WOAN27,
Yes-No Task,41,0,41,0,7.5,-1,Hit,0.501344999997,True,-1,stimulus_WOAN27_Yes-No Task_2019_Jun_13_1231_567,-1,False,2019_Jun_13_1231,Yes-No Task,3,WOAN27,
Yes-No Task,42,0,42,0,7.5,-1,Correct Rejection,0.500503800111,False,-1,stimulus_WOAN27_Yes-No Task_2019_Jun_13_1231_568,-1,False,2019_Jun_13_1231,Yes-No Task,3,WOAN27,
Yes-No Task,43,0,43,0,7.5,-1,Correct Rejection,0.400311599951,False,-1,stimulus_WOAN27_Yes-No Task_2019_Jun_13_1231_569,-1,False,2019_Jun_13_1231,Yes-No Task,3,WOAN27,
Yes-No Task,44,0,44,0,7.5,-1,Correct Rejection,0.400476499926,False,-1,stimulus_WOAN27_Yes-No Task_2019_Jun_13_1231_570,-1,False,2019_Jun_13_1231,Yes-No Task,3,WOAN27,
Yes-No Task,45,0,45,0,7.5,-1,Hit,0.467868500156,True,-1,stimulus_WOAN27_Yes-No Task_2019_Jun_13_1231_571,-1,False,2019_Jun_13_1231,Yes-No Task,3,WOAN27,
Yes-No Task,46,0,46,0,7.5,-1,Hit,0.468588599935,True,-1,stimulus_WOAN27_Yes-No Task_2019_Jun_13_1231_572,-1,False,2019_Jun_13_1231,Yes-No Task,3,WOAN27,
Yes-No Task,47,0,47,0,7.5,-1,Hit,0.431702000089,True,-1,stimulus_WOAN27_Yes-No Task_2019_Jun_13_1231_573,-1,False,2019_Jun_13_1231,Yes-No Task,3,WOAN27,
Yes-No Task,48,0,48,0,7.5,-1,Hit,0.466561699985,True,-1,stimulus_WOAN27_Yes-No Task_2019_Jun_13_1231_574,-1,False,2019_Jun_13_1231,Yes-No Task,3,WOAN27,
Yes-No Task,49,0,49,0,7.5,-1,Hit,0.501355699962,True,-1,stimulus_WOAN27_Yes-No Task_2019_Jun_13_1231_575,-1,False,2019_Jun_13_1231,Yes-No Task,3,WOAN27,
Yes-No Task,50,0,50,0,7.5,-1,Correct Rejection,0.500665999949,False,-1,stimulus_WOAN27_Yes-No Task_2019_Jun_13_1231_576,-1,False,2019_Jun_13_1231,Yes-No Task,3,WOAN27,
Yes-No Task,51,0,51,0,7.5,-1,Miss,0.433882200159,True,-1,stimulus_WOAN27_Yes-No Task_2019_Jun_13_1231_577,-1,False,2019_Jun_13_1231,Yes-No Task,3,WOAN27,
Yes-No Task,52,0,52,0,7.5,-1,Correct Rejection,0.335484400159,False,-1,stimulus_WOAN27_Yes-No Task_2019_Jun_13_1231_578,-1,False,2019_Jun_13_1231,Yes-No Task,3,WOAN27,
Yes-No Task,53,0,53,0,7.5,-1,Hit,0.566890799906,True,-1,stimulus_WOAN27_Yes-No Task_2019_Jun_13_1231_579,-1,False,2019_Jun_13_1231,Yes-No Task,3,WOAN27,
Yes-No Task,54,0,54,0,7.5,-1,Miss,0.467342099873,True,-1,stimulus_WOAN27_Yes-No Task_2019_Jun_13_1231_580,-1,False,2019_Jun_13_1231,Yes-No Task,3,WOAN27,
Yes-No Task,55,0,55,0,7.5,-1,False Alarm,0.466601500055,False,-1,stimulus_WOAN27_Yes-No Task_2019_Jun_13_1231_581,-1,False,2019_Jun_13_1231,Yes-No Task,3,WOAN27,
Yes-No Task,56,0,56,0,7.5,-1,Correct Rejection,0.501319600036,False,-1,stimulus_WOAN27_Yes-No Task_2019_Jun_13_1231_582,-1,False,2019_Jun_13_1231,Yes-No Task,3,WOAN27,
Yes-No Task,57,0,57,0,7.5,-1,Hit,0.466186600039,True,-1,stimulus_WOAN27_Yes-No Task_2019_Jun_13_1231_583,-1,False,2019_Jun_13_1231,Yes-No Task,3,WOAN27,
Yes-No Task,58,0,58,0,7.5,-1,Hit,0.401108799968,True,-1,stimulus_WOAN27_Yes-No Task_2019_Jun_13_1231_584,-1,False,2019_Jun_13_1231,Yes-No Task,3,WOAN27,
Yes-No Task,59,0,59,0,7.5,-1,Hit,0.536396600073,True,-1,stimulus_WOAN27_Yes-No Task_2019_Jun_13_1231_585,-1,False,2019_Jun_13_1231,Yes-No Task,3,WOAN27,
Yes-No Task,60,0,60,0,7.5,-1,Correct Rejection,0.466514899861,False,-1,stimulus_WOAN27_Yes-No Task_2019_Jun_13_1231_586,-1,False,2019_Jun_13_1231,Yes-No Task,3,WOAN27,
Yes-No Task,61,0,61,0,7.5,-1,Hit,0.567032299936,True,-1,stimulus_WOAN27_Yes-No Task_2019_Jun_13_1231_587,-1,False,2019_Jun_13_1231,Yes-No Task,3,WOAN27,
Yes-No Task,62,0,62,0,7.5,-1,Correct Rejection,0.466095100157,False,-1,stimulus_WOAN27_Yes-No Task_2019_Jun_13_1231_588,-1,False,2019_Jun_13_1231,Yes-No Task,3,WOAN27,
Yes-No Task,63,0,63,0,7.5,-1,Correct Rejection,0.433420100017,False,-1,stimulus_WOAN27_Yes-No Task_2019_Jun_13_1231_589,-1,False,2019_Jun_13_1231,Yes-No Task,3,WOAN27,
Yes-No Task,64,0,64,0,7.5,-1,Hit,0.500644000014,True,-1,stimulus_WOAN27_Yes-No Task_2019_Jun_13_1231_590,-1,False,2019_Jun_13_1231,Yes-No Task,3,WOAN27,
Yes-No Task,65,0,65,0,7.5,-1,Hit,0.667507899925,True,-1,stimulus_WOAN27_Yes-No Task_2019_Jun_13_1231_591,-1,False,2019_Jun_13_1231,Yes-No Task,3,WOAN27,
Yes-No Task,66,0,66,0,7.5,-1,Correct Rejection,0.567266000202,False,-1,stimulus_WOAN27_Yes-No Task_2019_Jun_13_1231_592,-1,False,2019_Jun_13_1231,Yes-No Task,3,WOAN27,
Yes-No Task,67,0,67,0,7.5,-1,Hit,0.467067299876,True,-1,stimulus_WOAN27_Yes-No Task_2019_Jun_13_1231_593,-1,False,2019_Jun_13_1231,Yes-No Task,3,WOAN27,
Yes-No Task,68,0,68,0,7.5,-1,Correct Rejection,0.433702499839,False,-1,stimulus_WOAN27_Yes-No Task_2019_Jun_13_1231_594,-1,False,2019_Jun_13_1231,Yes-No Task,3,WOAN27,
Yes-No Task,69,0,69,0,7.5,-1,Hit,0.469293499831,True,-1,stimulus_WOAN27_Yes-No Task_2019_Jun_13_1231_595,-1,False,2019_Jun_13_1231,Yes-No Task,3,WOAN27,
Yes-No Task,70,0,70,0,7.5,-1,Hit,0.501369599951,True,-1,stimulus_WOAN27_Yes-No Task_2019_Jun_13_1231_596,-1,False,2019_Jun_13_1231,Yes-No Task,3,WOAN27,
Yes-No Task,71,0,71,0,7.5,-1,Hit,0.500380499987,True,-1,stimulus_WOAN27_Yes-No Task_2019_Jun_13_1231_597,-1,False,2019_Jun_13_1231,Yes-No Task,3,WOAN27,
Yes-No Task,72,0,72,0,7.5,-1,Hit,0.499979000073,True,-1,stimulus_WOAN27_Yes-No Task_2019_Jun_13_1231_598,-1,False,2019_Jun_13_1231,Yes-No Task,3,WOAN27,
Yes-No Task,73,0,73,0,7.5,-1,Correct Rejection,0.467685599811,False,-1,stimulus_WOAN27_Yes-No Task_2019_Jun_13_1231_599,-1,False,2019_Jun_13_1231,Yes-No Task,3,WOAN27,
Yes-No Task,74,0,74,0,7.5,-1,Hit,0.400787099963,True,-1,stimulus_WOAN27_Yes-No Task_2019_Jun_13_1231_600,-1,False,2019_Jun_13_1231,Yes-No Task,3,WOAN27,
