Task,trials.thisRepN,trials.thisTrialN,trials.thisN,trials.thisIndex,time_response_second,response_2IFCnew,response_key2Interval_2IFCnew,signal_intensity,constant Value,response,time_response,signal_on_stimuluspos1,signal_on_stimuluspos2,stimulus_name_pos1,stimulus_name_pos2,random_intensity,date,expName,session,participant,
2IFCnew,0,0,0,0,0.467263499973,1,No,16.9,-1,Hit,0.700422499795,True,False,stimulusDIAN07_2IFCnew_2019_Jun_13_1720_1,stimulusDIAN07_2IFCnew_2019_Jun_13_1720_2,False,2019_Jun_13_1720,2IFCnew,2,DIAN07,
2IFCnew,1,0,1,0,0.26611680002,2,Yes,16.9,-1,Correct Rejection,0.500605900073,False,True,stimulusDIAN07_2IFCnew_2019_Jun_13_1720_3,stimulusDIAN07_2IFCnew_2019_Jun_13_1720_4,False,2019_Jun_13_1720,2IFCnew,2,DIAN07,
2IFCnew,2,0,2,0,0.301273600198,2,Yes,16.9,-1,Correct Rejection,0.467201300198,False,True,stimulusDIAN07_2IFCnew_2019_Jun_13_1720_5,stimulusDIAN07_2IFCnew_2019_Jun_13_1720_6,False,2019_Jun_13_1720,2IFCnew,2,DIAN07,
2IFCnew,3,0,3,0,0.233913399978,2,Yes,16.9,-1,Correct Rejection,0.435552899959,False,True,stimulusDIAN07_2IFCnew_2019_Jun_13_1720_7,stimulusDIAN07_2IFCnew_2019_Jun_13_1720_8,False,2019_Jun_13_1720,2IFCnew,2,DIAN07,
2IFCnew,4,0,4,0,0.367052600021,1,No,16.9,-1,Hit,0.567222400103,True,False,stimulusDIAN07_2IFCnew_2019_Jun_13_1720_9,stimulusDIAN07_2IFCnew_2019_Jun_13_1720_10,False,2019_Jun_13_1720,2IFCnew,2,DIAN07,
2IFCnew,5,0,5,0,-1,3,No,16.9,-1,Correct Rejection,0.532401599921,False,True,stimulusDIAN07_2IFCnew_2019_Jun_13_1720_11,stimulusDIAN07_2IFCnew_2019_Jun_13_1720_12,False,2019_Jun_13_1720,2IFCnew,2,DIAN07,
2IFCnew,6,0,6,0,0.234406899894,1,No,16.9,-1,Hit,0.401603100123,True,False,stimulusDIAN07_2IFCnew_2019_Jun_13_1720_13,stimulusDIAN07_2IFCnew_2019_Jun_13_1720_14,False,2019_Jun_13_1720,2IFCnew,2,DIAN07,
2IFCnew,7,0,7,0,-1,1,No,16.9,-1,Hit,0.400687800022,True,False,stimulusDIAN07_2IFCnew_2019_Jun_13_1720_15,stimulusDIAN07_2IFCnew_2019_Jun_13_1720_16,False,2019_Jun_13_1720,2IFCnew,2,DIAN07,
2IFCnew,8,0,8,0,-1,1,No,16.9,-1,Hit,0.467443200061,True,False,stimulusDIAN07_2IFCnew_2019_Jun_13_1720_17,stimulusDIAN07_2IFCnew_2019_Jun_13_1720_18,False,2019_Jun_13_1720,2IFCnew,2,DIAN07,
2IFCnew,9,0,9,0,0.233320399886,2,Yes,16.9,-1,Correct Rejection,0.500737400027,False,True,stimulusDIAN07_2IFCnew_2019_Jun_13_1720_19,stimulusDIAN07_2IFCnew_2019_Jun_13_1720_20,False,2019_Jun_13_1720,2IFCnew,2,DIAN07,
2IFCnew,10,0,10,0,0.30029699998,2,Yes,16.9,-1,Correct Rejection,0.500689500012,False,True,stimulusDIAN07_2IFCnew_2019_Jun_13_1720_21,stimulusDIAN07_2IFCnew_2019_Jun_13_1720_22,False,2019_Jun_13_1720,2IFCnew,2,DIAN07,
2IFCnew,11,0,11,0,0.233274500119,2,Yes,16.9,-1,Correct Rejection,0.467168599833,False,True,stimulusDIAN07_2IFCnew_2019_Jun_13_1720_23,stimulusDIAN07_2IFCnew_2019_Jun_13_1720_24,False,2019_Jun_13_1720,2IFCnew,2,DIAN07,
2IFCnew,12,0,12,0,0.333680700045,1,No,16.9,-1,Hit,0.567791299894,True,False,stimulusDIAN07_2IFCnew_2019_Jun_13_1720_25,stimulusDIAN07_2IFCnew_2019_Jun_13_1720_26,False,2019_Jun_13_1720,2IFCnew,2,DIAN07,
2IFCnew,13,0,13,0,0.230673999991,1,No,16.9,-1,Hit,0.43336640019,True,False,stimulusDIAN07_2IFCnew_2019_Jun_13_1720_27,stimulusDIAN07_2IFCnew_2019_Jun_13_1720_28,False,2019_Jun_13_1720,2IFCnew,2,DIAN07,
2IFCnew,14,0,14,0,0.433387199882,2,Yes,16.9,-1,Correct Rejection,0.567417499842,False,True,stimulusDIAN07_2IFCnew_2019_Jun_13_1720_29,stimulusDIAN07_2IFCnew_2019_Jun_13_1720_30,False,2019_Jun_13_1720,2IFCnew,2,DIAN07,
2IFCnew,15,0,15,0,0.433344200021,1,No,16.9,-1,Hit,0.467295600101,True,False,stimulusDIAN07_2IFCnew_2019_Jun_13_1720_31,stimulusDIAN07_2IFCnew_2019_Jun_13_1720_32,False,2019_Jun_13_1720,2IFCnew,2,DIAN07,
2IFCnew,16,0,16,0,0.366571699968,1,No,16.9,-1,Hit,0.433822300052,True,False,stimulusDIAN07_2IFCnew_2019_Jun_13_1720_33,stimulusDIAN07_2IFCnew_2019_Jun_13_1720_34,False,2019_Jun_13_1720,2IFCnew,2,DIAN07,
2IFCnew,17,0,17,0,0.434165500104,1,No,16.9,-1,Hit,0.400792399887,True,False,stimulusDIAN07_2IFCnew_2019_Jun_13_1720_35,stimulusDIAN07_2IFCnew_2019_Jun_13_1720_36,False,2019_Jun_13_1720,2IFCnew,2,DIAN07,
2IFCnew,18,0,18,0,0.399967900012,1,No,16.9,-1,Hit,0.400518799899,True,False,stimulusDIAN07_2IFCnew_2019_Jun_13_1720_37,stimulusDIAN07_2IFCnew_2019_Jun_13_1720_38,False,2019_Jun_13_1720,2IFCnew,2,DIAN07,
2IFCnew,19,0,19,0,0.366840099916,1,No,16.9,-1,Hit,0.399666399928,True,False,stimulusDIAN07_2IFCnew_2019_Jun_13_1720_39,stimulusDIAN07_2IFCnew_2019_Jun_13_1720_40,False,2019_Jun_13_1720,2IFCnew,2,DIAN07,
2IFCnew,20,0,20,0,0.3686683001,2,Yes,16.9,-1,Correct Rejection,0.568103800062,False,True,stimulusDIAN07_2IFCnew_2019_Jun_13_1720_41,stimulusDIAN07_2IFCnew_2019_Jun_13_1720_42,False,2019_Jun_13_1720,2IFCnew,2,DIAN07,
2IFCnew,21,0,21,0,0.300297599984,2,Yes,16.9,-1,Correct Rejection,0.600855400087,False,True,stimulusDIAN07_2IFCnew_2019_Jun_13_1720_43,stimulusDIAN07_2IFCnew_2019_Jun_13_1720_44,False,2019_Jun_13_1720,2IFCnew,2,DIAN07,
2IFCnew,22,0,22,0,0.333912099944,1,No,16.9,-1,Hit,0.435157499975,True,False,stimulusDIAN07_2IFCnew_2019_Jun_13_1720_45,stimulusDIAN07_2IFCnew_2019_Jun_13_1720_46,False,2019_Jun_13_1720,2IFCnew,2,DIAN07,
2IFCnew,23,0,23,0,0.366998200072,1,No,16.9,-1,Hit,0.434111600043,True,False,stimulusDIAN07_2IFCnew_2019_Jun_13_1720_47,stimulusDIAN07_2IFCnew_2019_Jun_13_1720_48,False,2019_Jun_13_1720,2IFCnew,2,DIAN07,
2IFCnew,24,0,24,0,0.301019199891,1,No,16.9,-1,Hit,0.434947399888,True,False,stimulusDIAN07_2IFCnew_2019_Jun_13_1720_49,stimulusDIAN07_2IFCnew_2019_Jun_13_1720_50,False,2019_Jun_13_1720,2IFCnew,2,DIAN07,
2IFCnew,25,0,25,0,0.300007099984,1,No,16.9,-1,Hit,0.400455499999,True,False,stimulusDIAN07_2IFCnew_2019_Jun_13_1720_51,stimulusDIAN07_2IFCnew_2019_Jun_13_1720_52,False,2019_Jun_13_1720,2IFCnew,2,DIAN07,
2IFCnew,26,0,26,0,0.366859900067,5,Yes,16.9,-1,False Alarm,0.434294099919,False,True,stimulusDIAN07_2IFCnew_2019_Jun_13_1720_53,stimulusDIAN07_2IFCnew_2019_Jun_13_1720_54,False,2019_Jun_13_1720,2IFCnew,2,DIAN07,
2IFCnew,27,0,27,0,0.367093399866,1,No,16.9,-1,Hit,0.433613199973,True,False,stimulusDIAN07_2IFCnew_2019_Jun_13_1720_55,stimulusDIAN07_2IFCnew_2019_Jun_13_1720_56,False,2019_Jun_13_1720,2IFCnew,2,DIAN07,
2IFCnew,28,0,28,0,0.366963599809,5,Yes,16.9,-1,False Alarm,0.46785190003,False,True,stimulusDIAN07_2IFCnew_2019_Jun_13_1720_57,stimulusDIAN07_2IFCnew_2019_Jun_13_1720_58,False,2019_Jun_13_1720,2IFCnew,2,DIAN07,
2IFCnew,29,0,29,0,0.367601200007,2,Yes,16.9,-1,Correct Rejection,0.734649799997,False,True,stimulusDIAN07_2IFCnew_2019_Jun_13_1720_59,stimulusDIAN07_2IFCnew_2019_Jun_13_1720_60,False,2019_Jun_13_1720,2IFCnew,2,DIAN07,
2IFCnew,30,0,30,0,0.300506600179,2,Yes,16.9,-1,Correct Rejection,0.468805499841,False,True,stimulusDIAN07_2IFCnew_2019_Jun_13_1720_61,stimulusDIAN07_2IFCnew_2019_Jun_13_1720_62,False,2019_Jun_13_1720,2IFCnew,2,DIAN07,
2IFCnew,31,0,31,0,-1,1,Yes,16.9,-1,Hit,0.401158699999,True,False,stimulusDIAN07_2IFCnew_2019_Jun_13_1720_63,stimulusDIAN07_2IFCnew_2019_Jun_13_1720_64,False,2019_Jun_13_1720,2IFCnew,2,DIAN07,
2IFCnew,32,0,32,0,-1,1,Yes,16.9,-1,Hit,0.433618499897,True,False,stimulusDIAN07_2IFCnew_2019_Jun_13_1720_65,stimulusDIAN07_2IFCnew_2019_Jun_13_1720_66,False,2019_Jun_13_1720,2IFCnew,2,DIAN07,
2IFCnew,33,0,33,0,0.299516000086,2,Yes,16.9,-1,Correct Rejection,0.534406100167,False,True,stimulusDIAN07_2IFCnew_2019_Jun_13_1720_67,stimulusDIAN07_2IFCnew_2019_Jun_13_1720_68,False,2019_Jun_13_1720,2IFCnew,2,DIAN07,
2IFCnew,34,0,34,0,0.267806500196,2,Yes,16.9,-1,Correct Rejection,0.632569200126,False,True,stimulusDIAN07_2IFCnew_2019_Jun_13_1720_69,stimulusDIAN07_2IFCnew_2019_Jun_13_1720_70,False,2019_Jun_13_1720,2IFCnew,2,DIAN07,
2IFCnew,35,0,35,0,0.500473699998,1,No,16.9,-1,Hit,0.50061719981,True,False,stimulusDIAN07_2IFCnew_2019_Jun_13_1720_71,stimulusDIAN07_2IFCnew_2019_Jun_13_1720_72,False,2019_Jun_13_1720,2IFCnew,2,DIAN07,
2IFCnew,36,0,36,0,0.366441800026,1,No,16.9,-1,Hit,0.400454000104,True,False,stimulusDIAN07_2IFCnew_2019_Jun_13_1720_73,stimulusDIAN07_2IFCnew_2019_Jun_13_1720_74,False,2019_Jun_13_1720,2IFCnew,2,DIAN07,
2IFCnew,37,0,37,0,-1,1,No,16.9,-1,Hit,0.400424699998,True,False,stimulusDIAN07_2IFCnew_2019_Jun_13_1720_75,stimulusDIAN07_2IFCnew_2019_Jun_13_1720_76,False,2019_Jun_13_1720,2IFCnew,2,DIAN07,
2IFCnew,38,0,38,0,-1,1,No,16.9,-1,Hit,0.433393799933,True,False,stimulusDIAN07_2IFCnew_2019_Jun_13_1720_77,stimulusDIAN07_2IFCnew_2019_Jun_13_1720_78,False,2019_Jun_13_1720,2IFCnew,2,DIAN07,
2IFCnew,39,0,39,0,0.334135000128,2,Yes,16.9,-1,Correct Rejection,0.667294899933,False,True,stimulusDIAN07_2IFCnew_2019_Jun_13_1720_79,stimulusDIAN07_2IFCnew_2019_Jun_13_1720_80,False,2019_Jun_13_1720,2IFCnew,2,DIAN07,
2IFCnew,40,0,40,0,0.299291599775,2,Yes,16.9,-1,Correct Rejection,0.533652500017,False,True,stimulusDIAN07_2IFCnew_2019_Jun_13_1720_81,stimulusDIAN07_2IFCnew_2019_Jun_13_1720_82,False,2019_Jun_13_1720,2IFCnew,2,DIAN07,
2IFCnew,41,0,41,0,-1,1,Yes,16.9,-1,Hit,0.40012850007,True,False,stimulusDIAN07_2IFCnew_2019_Jun_13_1720_83,stimulusDIAN07_2IFCnew_2019_Jun_13_1720_84,False,2019_Jun_13_1720,2IFCnew,2,DIAN07,
2IFCnew,42,0,42,0,0.333726500161,1,No,16.9,-1,Hit,0.400189399952,True,False,stimulusDIAN07_2IFCnew_2019_Jun_13_1720_85,stimulusDIAN07_2IFCnew_2019_Jun_13_1720_86,False,2019_Jun_13_1720,2IFCnew,2,DIAN07,
2IFCnew,43,0,43,0,0.300430000061,2,Yes,16.9,-1,Correct Rejection,0.500744599849,False,True,stimulusDIAN07_2IFCnew_2019_Jun_13_1720_87,stimulusDIAN07_2IFCnew_2019_Jun_13_1720_88,False,2019_Jun_13_1720,2IFCnew,2,DIAN07,
2IFCnew,44,0,44,0,0.200349200051,2,Yes,16.9,-1,Correct Rejection,0.467260299949,False,True,stimulusDIAN07_2IFCnew_2019_Jun_13_1720_89,stimulusDIAN07_2IFCnew_2019_Jun_13_1720_90,False,2019_Jun_13_1720,2IFCnew,2,DIAN07,
2IFCnew,45,0,45,0,0.333843499888,1,No,16.9,-1,Hit,0.50070199999,True,False,stimulusDIAN07_2IFCnew_2019_Jun_13_1720_91,stimulusDIAN07_2IFCnew_2019_Jun_13_1720_92,False,2019_Jun_13_1720,2IFCnew,2,DIAN07,
2IFCnew,46,0,46,0,0.3024991001,2,Yes,16.9,-1,Correct Rejection,0.502047899878,False,True,stimulusDIAN07_2IFCnew_2019_Jun_13_1720_93,stimulusDIAN07_2IFCnew_2019_Jun_13_1720_94,False,2019_Jun_13_1720,2IFCnew,2,DIAN07,
2IFCnew,47,0,47,0,0.267019599909,1,No,16.9,-1,Hit,0.428074700059,True,False,stimulusDIAN07_2IFCnew_2019_Jun_13_1720_95,stimulusDIAN07_2IFCnew_2019_Jun_13_1720_96,False,2019_Jun_13_1720,2IFCnew,2,DIAN07,
2IFCnew,48,0,48,0,-1,3,No,16.9,-1,Correct Rejection,0.566640199861,False,True,stimulusDIAN07_2IFCnew_2019_Jun_13_1720_97,stimulusDIAN07_2IFCnew_2019_Jun_13_1720_98,False,2019_Jun_13_1720,2IFCnew,2,DIAN07,
2IFCnew,49,0,49,0,0.232964700088,2,Yes,16.9,-1,Correct Rejection,0.533707699971,False,True,stimulusDIAN07_2IFCnew_2019_Jun_13_1720_99,stimulusDIAN07_2IFCnew_2019_Jun_13_1720_100,False,2019_Jun_13_1720,2IFCnew,2,DIAN07,
2IFCnew,50,0,50,0,0.333394099958,1,No,16.9,-1,Hit,0.467295000097,True,False,stimulusDIAN07_2IFCnew_2019_Jun_13_1720_101,stimulusDIAN07_2IFCnew_2019_Jun_13_1720_102,False,2019_Jun_13_1720,2IFCnew,2,DIAN07,
2IFCnew,51,0,51,0,0.267650000053,2,Yes,16.9,-1,Correct Rejection,0.501633099979,False,True,stimulusDIAN07_2IFCnew_2019_Jun_13_1720_103,stimulusDIAN07_2IFCnew_2019_Jun_13_1720_104,False,2019_Jun_13_1720,2IFCnew,2,DIAN07,
2IFCnew,52,0,52,0,0.333543400047,2,Yes,16.9,-1,Correct Rejection,0.433737399988,False,True,stimulusDIAN07_2IFCnew_2019_Jun_13_1720_105,stimulusDIAN07_2IFCnew_2019_Jun_13_1720_106,False,2019_Jun_13_1720,2IFCnew,2,DIAN07,
2IFCnew,53,0,53,0,0.400665000081,2,Yes,16.9,-1,Correct Rejection,0.601849100087,False,True,stimulusDIAN07_2IFCnew_2019_Jun_13_1720_107,stimulusDIAN07_2IFCnew_2019_Jun_13_1720_108,False,2019_Jun_13_1720,2IFCnew,2,DIAN07,
2IFCnew,54,0,54,0,0.899976600194,6,No,16.9,-1,Miss,0.400612200145,True,False,stimulusDIAN07_2IFCnew_2019_Jun_13_1720_109,stimulusDIAN07_2IFCnew_2019_Jun_13_1720_110,False,2019_Jun_13_1720,2IFCnew,2,DIAN07,
2IFCnew,55,0,55,0,-1,1,No,16.9,-1,Hit,0.534159400035,True,False,stimulusDIAN07_2IFCnew_2019_Jun_13_1720_111,stimulusDIAN07_2IFCnew_2019_Jun_13_1720_112,False,2019_Jun_13_1720,2IFCnew,2,DIAN07,
2IFCnew,56,0,56,0,0.534058700083,1,No,16.9,-1,Hit,0.467296200106,True,False,stimulusDIAN07_2IFCnew_2019_Jun_13_1720_113,stimulusDIAN07_2IFCnew_2019_Jun_13_1720_114,False,2019_Jun_13_1720,2IFCnew,2,DIAN07,
2IFCnew,57,0,57,0,-1,3,No,16.9,-1,Correct Rejection,0.700493900105,False,True,stimulusDIAN07_2IFCnew_2019_Jun_13_1720_115,stimulusDIAN07_2IFCnew_2019_Jun_13_1720_116,False,2019_Jun_13_1720,2IFCnew,2,DIAN07,
2IFCnew,58,0,58,0,-1,3,No,16.9,-1,Correct Rejection,0.533899599919,False,True,stimulusDIAN07_2IFCnew_2019_Jun_13_1720_117,stimulusDIAN07_2IFCnew_2019_Jun_13_1720_118,False,2019_Jun_13_1720,2IFCnew,2,DIAN07,
2IFCnew,59,0,59,0,-1,3,No,16.9,-1,Correct Rejection,0.435114799999,False,True,stimulusDIAN07_2IFCnew_2019_Jun_13_1720_119,stimulusDIAN07_2IFCnew_2019_Jun_13_1720_120,False,2019_Jun_13_1720,2IFCnew,2,DIAN07,
2IFCnew,60,0,60,0,-1,3,No,16.9,-1,Correct Rejection,0.468050300144,False,True,stimulusDIAN07_2IFCnew_2019_Jun_13_1720_121,stimulusDIAN07_2IFCnew_2019_Jun_13_1720_122,False,2019_Jun_13_1720,2IFCnew,2,DIAN07,
2IFCnew,61,0,61,0,-1,1,No,16.9,-1,Hit,0.434118499979,True,False,stimulusDIAN07_2IFCnew_2019_Jun_13_1720_123,stimulusDIAN07_2IFCnew_2019_Jun_13_1720_124,False,2019_Jun_13_1720,2IFCnew,2,DIAN07,
2IFCnew,62,0,62,0,-1,1,No,16.9,-1,Hit,0.435467000119,True,False,stimulusDIAN07_2IFCnew_2019_Jun_13_1720_125,stimulusDIAN07_2IFCnew_2019_Jun_13_1720_126,False,2019_Jun_13_1720,2IFCnew,2,DIAN07,
2IFCnew,63,0,63,0,-1,3,No,16.9,-1,Correct Rejection,0.500527099939,False,True,stimulusDIAN07_2IFCnew_2019_Jun_13_1720_127,stimulusDIAN07_2IFCnew_2019_Jun_13_1720_128,False,2019_Jun_13_1720,2IFCnew,2,DIAN07,
2IFCnew,64,0,64,0,-1,3,No,16.9,-1,Correct Rejection,0.466905700043,False,True,stimulusDIAN07_2IFCnew_2019_Jun_13_1720_129,stimulusDIAN07_2IFCnew_2019_Jun_13_1720_130,False,2019_Jun_13_1720,2IFCnew,2,DIAN07,
2IFCnew,65,0,65,0,-1,3,No,16.9,-1,Correct Rejection,0.498774399981,False,True,stimulusDIAN07_2IFCnew_2019_Jun_13_1720_131,stimulusDIAN07_2IFCnew_2019_Jun_13_1720_132,False,2019_Jun_13_1720,2IFCnew,2,DIAN07,
2IFCnew,66,0,66,0,0.567657199921,2,Yes,16.9,-1,Correct Rejection,0.501916700043,False,True,stimulusDIAN07_2IFCnew_2019_Jun_13_1720_133,stimulusDIAN07_2IFCnew_2019_Jun_13_1720_134,False,2019_Jun_13_1720,2IFCnew,2,DIAN07,
2IFCnew,67,0,67,0,0.500859700143,2,Yes,16.9,-1,Correct Rejection,0.433417099994,False,True,stimulusDIAN07_2IFCnew_2019_Jun_13_1720_135,stimulusDIAN07_2IFCnew_2019_Jun_13_1720_136,False,2019_Jun_13_1720,2IFCnew,2,DIAN07,
2IFCnew,68,0,68,0,-1,3,Yes,16.9,-1,Correct Rejection,0.433727100026,False,True,stimulusDIAN07_2IFCnew_2019_Jun_13_1720_137,stimulusDIAN07_2IFCnew_2019_Jun_13_1720_138,False,2019_Jun_13_1720,2IFCnew,2,DIAN07,
2IFCnew,69,0,69,0,-1,3,Yes,16.9,-1,Correct Rejection,0.499884400051,False,True,stimulusDIAN07_2IFCnew_2019_Jun_13_1720_139,stimulusDIAN07_2IFCnew_2019_Jun_13_1720_140,False,2019_Jun_13_1720,2IFCnew,2,DIAN07,
2IFCnew,70,0,70,0,-1,1,Yes,16.9,-1,Hit,0.467108800076,True,False,stimulusDIAN07_2IFCnew_2019_Jun_13_1720_141,stimulusDIAN07_2IFCnew_2019_Jun_13_1720_142,False,2019_Jun_13_1720,2IFCnew,2,DIAN07,
2IFCnew,71,0,71,0,-1,3,Yes,16.9,-1,Correct Rejection,0.631122299936,False,True,stimulusDIAN07_2IFCnew_2019_Jun_13_1720_143,stimulusDIAN07_2IFCnew_2019_Jun_13_1720_144,False,2019_Jun_13_1720,2IFCnew,2,DIAN07,
2IFCnew,72,0,72,0,-1,3,Yes,16.9,-1,Correct Rejection,0.564476500032,False,True,stimulusDIAN07_2IFCnew_2019_Jun_13_1720_145,stimulusDIAN07_2IFCnew_2019_Jun_13_1720_146,False,2019_Jun_13_1720,2IFCnew,2,DIAN07,
2IFCnew,73,0,73,0,-1,3,Yes,16.9,-1,Correct Rejection,0.500668000197,False,True,stimulusDIAN07_2IFCnew_2019_Jun_13_1720_147,stimulusDIAN07_2IFCnew_2019_Jun_13_1720_148,False,2019_Jun_13_1720,2IFCnew,2,DIAN07,
2IFCnew,74,0,74,0,-1,3,Yes,16.9,-1,Correct Rejection,0.466445799917,False,True,stimulusDIAN07_2IFCnew_2019_Jun_13_1720_149,stimulusDIAN07_2IFCnew_2019_Jun_13_1720_150,False,2019_Jun_13_1720,2IFCnew,2,DIAN07,
2IFCnew,0,0,0,0,-1,4,Yes,15.3,-1,Miss,0.568006899906,True,False,stimulusDIAN07_2IFCnew_2019_Jun_13_1720_151,stimulusDIAN07_2IFCnew_2019_Jun_13_1720_152,False,2019_Jun_13_1720,2IFCnew,2,DIAN07,
2IFCnew,1,0,1,0,0.635018000146,2,Yes,15.3,-1,Correct Rejection,0.535610000137,False,True,stimulusDIAN07_2IFCnew_2019_Jun_13_1720_153,stimulusDIAN07_2IFCnew_2019_Jun_13_1720_154,False,2019_Jun_13_1720,2IFCnew,2,DIAN07,
2IFCnew,2,0,2,0,-1,1,Yes,15.3,-1,Hit,0.534994999878,True,False,stimulusDIAN07_2IFCnew_2019_Jun_13_1720_155,stimulusDIAN07_2IFCnew_2019_Jun_13_1720_156,False,2019_Jun_13_1720,2IFCnew,2,DIAN07,
2IFCnew,3,0,3,0,-1,3,Yes,15.3,-1,Correct Rejection,0.500480100047,False,True,stimulusDIAN07_2IFCnew_2019_Jun_13_1720_157,stimulusDIAN07_2IFCnew_2019_Jun_13_1720_158,False,2019_Jun_13_1720,2IFCnew,2,DIAN07,
2IFCnew,4,0,4,0,-1,3,Yes,15.3,-1,Correct Rejection,0.534744400065,False,True,stimulusDIAN07_2IFCnew_2019_Jun_13_1720_159,stimulusDIAN07_2IFCnew_2019_Jun_13_1720_160,False,2019_Jun_13_1720,2IFCnew,2,DIAN07,
2IFCnew,5,0,5,0,0.634104499826,2,Yes,15.3,-1,Correct Rejection,0.500595899997,False,True,stimulusDIAN07_2IFCnew_2019_Jun_13_1720_161,stimulusDIAN07_2IFCnew_2019_Jun_13_1720_162,False,2019_Jun_13_1720,2IFCnew,2,DIAN07,
2IFCnew,6,0,6,0,0.267354900017,4,Yes,15.3,-1,Miss,0.567090100143,True,False,stimulusDIAN07_2IFCnew_2019_Jun_13_1720_163,stimulusDIAN07_2IFCnew_2019_Jun_13_1720_164,False,2019_Jun_13_1720,2IFCnew,2,DIAN07,
2IFCnew,7,0,7,0,0.535858600168,2,Yes,15.3,-1,Correct Rejection,0.701501099858,False,True,stimulusDIAN07_2IFCnew_2019_Jun_13_1720_165,stimulusDIAN07_2IFCnew_2019_Jun_13_1720_166,False,2019_Jun_13_1720,2IFCnew,2,DIAN07,
2IFCnew,8,0,8,0,-1,1,Yes,15.3,-1,Hit,0.634237400023,True,False,stimulusDIAN07_2IFCnew_2019_Jun_13_1720_167,stimulusDIAN07_2IFCnew_2019_Jun_13_1720_168,False,2019_Jun_13_1720,2IFCnew,2,DIAN07,
2IFCnew,9,0,9,0,-1,3,Yes,15.3,-1,Correct Rejection,0.633971400093,False,True,stimulusDIAN07_2IFCnew_2019_Jun_13_1720_169,stimulusDIAN07_2IFCnew_2019_Jun_13_1720_170,False,2019_Jun_13_1720,2IFCnew,2,DIAN07,
2IFCnew,10,0,10,0,-1,3,Yes,15.3,-1,Correct Rejection,0.567277399823,False,True,stimulusDIAN07_2IFCnew_2019_Jun_13_1720_171,stimulusDIAN07_2IFCnew_2019_Jun_13_1720_172,False,2019_Jun_13_1720,2IFCnew,2,DIAN07,
2IFCnew,11,0,11,0,-1,1,Yes,15.3,-1,Hit,0.534906100016,True,False,stimulusDIAN07_2IFCnew_2019_Jun_13_1720_173,stimulusDIAN07_2IFCnew_2019_Jun_13_1720_174,False,2019_Jun_13_1720,2IFCnew,2,DIAN07,
2IFCnew,12,0,12,0,-1,3,Yes,15.3,-1,Correct Rejection,0.734692299971,False,True,stimulusDIAN07_2IFCnew_2019_Jun_13_1720_175,stimulusDIAN07_2IFCnew_2019_Jun_13_1720_176,False,2019_Jun_13_1720,2IFCnew,2,DIAN07,
2IFCnew,13,0,13,0,-1,3,Yes,15.3,-1,Correct Rejection,0.699738499941,False,True,stimulusDIAN07_2IFCnew_2019_Jun_13_1720_177,stimulusDIAN07_2IFCnew_2019_Jun_13_1720_178,False,2019_Jun_13_1720,2IFCnew,2,DIAN07,
2IFCnew,14,0,14,0,-1,1,Yes,15.3,-1,Hit,0.570598399965,True,False,stimulusDIAN07_2IFCnew_2019_Jun_13_1720_179,stimulusDIAN07_2IFCnew_2019_Jun_13_1720_180,False,2019_Jun_13_1720,2IFCnew,2,DIAN07,
2IFCnew,15,0,15,0,-1,1,Yes,15.3,-1,Hit,0.467650899896,True,False,stimulusDIAN07_2IFCnew_2019_Jun_13_1720_181,stimulusDIAN07_2IFCnew_2019_Jun_13_1720_182,False,2019_Jun_13_1720,2IFCnew,2,DIAN07,
2IFCnew,16,0,16,0,-1,3,Yes,15.3,-1,Correct Rejection,0.700465800008,False,True,stimulusDIAN07_2IFCnew_2019_Jun_13_1720_183,stimulusDIAN07_2IFCnew_2019_Jun_13_1720_184,False,2019_Jun_13_1720,2IFCnew,2,DIAN07,
2IFCnew,17,0,17,0,-1,1,Yes,15.3,-1,Hit,0.467115500011,True,False,stimulusDIAN07_2IFCnew_2019_Jun_13_1720_185,stimulusDIAN07_2IFCnew_2019_Jun_13_1720_186,False,2019_Jun_13_1720,2IFCnew,2,DIAN07,
2IFCnew,18,0,18,0,0.701488400111,2,Yes,15.3,-1,Correct Rejection,0.634051500121,False,True,stimulusDIAN07_2IFCnew_2019_Jun_13_1720_187,stimulusDIAN07_2IFCnew_2019_Jun_13_1720_188,False,2019_Jun_13_1720,2IFCnew,2,DIAN07,
2IFCnew,19,0,19,0,-1,3,Yes,15.3,-1,Correct Rejection,0.701784699922,False,True,stimulusDIAN07_2IFCnew_2019_Jun_13_1720_189,stimulusDIAN07_2IFCnew_2019_Jun_13_1720_190,False,2019_Jun_13_1720,2IFCnew,2,DIAN07,
2IFCnew,20,0,20,0,-1,1,Yes,15.3,-1,Hit,0.569333499996,True,False,stimulusDIAN07_2IFCnew_2019_Jun_13_1720_191,stimulusDIAN07_2IFCnew_2019_Jun_13_1720_192,False,2019_Jun_13_1720,2IFCnew,2,DIAN07,
2IFCnew,21,0,21,0,-1,1,Yes,15.3,-1,Hit,0.567656000145,True,False,stimulusDIAN07_2IFCnew_2019_Jun_13_1720_193,stimulusDIAN07_2IFCnew_2019_Jun_13_1720_194,False,2019_Jun_13_1720,2IFCnew,2,DIAN07,
2IFCnew,22,0,22,0,-1,3,Yes,15.3,-1,Correct Rejection,0.568250000011,False,True,stimulusDIAN07_2IFCnew_2019_Jun_13_1720_195,stimulusDIAN07_2IFCnew_2019_Jun_13_1720_196,False,2019_Jun_13_1720,2IFCnew,2,DIAN07,
2IFCnew,23,0,23,0,-1,1,Yes,15.3,-1,Hit,0.467587299878,True,False,stimulusDIAN07_2IFCnew_2019_Jun_13_1720_197,stimulusDIAN07_2IFCnew_2019_Jun_13_1720_198,False,2019_Jun_13_1720,2IFCnew,2,DIAN07,
2IFCnew,24,0,24,0,-1,1,Yes,15.3,-1,Hit,0.467286499916,True,False,stimulusDIAN07_2IFCnew_2019_Jun_13_1720_199,stimulusDIAN07_2IFCnew_2019_Jun_13_1720_200,False,2019_Jun_13_1720,2IFCnew,2,DIAN07,
2IFCnew,25,0,25,0,-1,1,Yes,15.3,-1,Hit,0.567467599874,True,False,stimulusDIAN07_2IFCnew_2019_Jun_13_1720_201,stimulusDIAN07_2IFCnew_2019_Jun_13_1720_202,False,2019_Jun_13_1720,2IFCnew,2,DIAN07,
2IFCnew,26,0,26,0,-1,1,Yes,15.3,-1,Hit,0.433705399977,True,False,stimulusDIAN07_2IFCnew_2019_Jun_13_1720_203,stimulusDIAN07_2IFCnew_2019_Jun_13_1720_204,False,2019_Jun_13_1720,2IFCnew,2,DIAN07,
2IFCnew,27,0,27,0,-1,1,Yes,15.3,-1,Hit,0.434355200035,True,False,stimulusDIAN07_2IFCnew_2019_Jun_13_1720_205,stimulusDIAN07_2IFCnew_2019_Jun_13_1720_206,False,2019_Jun_13_1720,2IFCnew,2,DIAN07,
2IFCnew,28,0,28,0,0.567718900042,5,Yes,15.3,-1,False Alarm,0.434271799866,False,True,stimulusDIAN07_2IFCnew_2019_Jun_13_1720_207,stimulusDIAN07_2IFCnew_2019_Jun_13_1720_208,False,2019_Jun_13_1720,2IFCnew,2,DIAN07,
2IFCnew,29,0,29,0,-1,1,Yes,15.3,-1,Hit,0.56720359996,True,False,stimulusDIAN07_2IFCnew_2019_Jun_13_1720_209,stimulusDIAN07_2IFCnew_2019_Jun_13_1720_210,False,2019_Jun_13_1720,2IFCnew,2,DIAN07,
2IFCnew,30,0,30,0,-1,1,Yes,15.3,-1,Hit,0.501163400011,True,False,stimulusDIAN07_2IFCnew_2019_Jun_13_1720_211,stimulusDIAN07_2IFCnew_2019_Jun_13_1720_212,False,2019_Jun_13_1720,2IFCnew,2,DIAN07,
2IFCnew,31,0,31,0,-1,1,Yes,15.3,-1,Hit,0.432852099882,True,False,stimulusDIAN07_2IFCnew_2019_Jun_13_1720_213,stimulusDIAN07_2IFCnew_2019_Jun_13_1720_214,False,2019_Jun_13_1720,2IFCnew,2,DIAN07,
2IFCnew,32,0,32,0,-1,1,Yes,15.3,-1,Hit,0.433599800104,True,False,stimulusDIAN07_2IFCnew_2019_Jun_13_1720_215,stimulusDIAN07_2IFCnew_2019_Jun_13_1720_216,False,2019_Jun_13_1720,2IFCnew,2,DIAN07,
2IFCnew,33,0,33,0,-1,1,Yes,15.3,-1,Hit,0.466909599956,True,False,stimulusDIAN07_2IFCnew_2019_Jun_13_1720_217,stimulusDIAN07_2IFCnew_2019_Jun_13_1720_218,False,2019_Jun_13_1720,2IFCnew,2,DIAN07,
2IFCnew,34,0,34,0,-1,1,Yes,15.3,-1,Hit,0.400611799909,True,False,stimulusDIAN07_2IFCnew_2019_Jun_13_1720_219,stimulusDIAN07_2IFCnew_2019_Jun_13_1720_220,False,2019_Jun_13_1720,2IFCnew,2,DIAN07,
2IFCnew,35,0,35,0,-1,0,Yes,15.3,-1,No Answer,-1,False,True,stimulusDIAN07_2IFCnew_2019_Jun_13_1720_221,stimulusDIAN07_2IFCnew_2019_Jun_13_1720_222,False,2019_Jun_13_1720,2IFCnew,2,DIAN07,
2IFCnew,36,0,36,0,0.534293500008,2,Yes,15.3,-1,Correct Rejection,0.601293999935,False,True,stimulusDIAN07_2IFCnew_2019_Jun_13_1720_223,stimulusDIAN07_2IFCnew_2019_Jun_13_1720_224,False,2019_Jun_13_1720,2IFCnew,2,DIAN07,
2IFCnew,37,0,37,0,-1,1,Yes,15.3,-1,Hit,0.468023400055,True,False,stimulusDIAN07_2IFCnew_2019_Jun_13_1720_225,stimulusDIAN07_2IFCnew_2019_Jun_13_1720_226,False,2019_Jun_13_1720,2IFCnew,2,DIAN07,
2IFCnew,38,0,38,0,0.400741899852,2,Yes,15.3,-1,Correct Rejection,0.600908800028,False,True,stimulusDIAN07_2IFCnew_2019_Jun_13_1720_227,stimulusDIAN07_2IFCnew_2019_Jun_13_1720_228,False,2019_Jun_13_1720,2IFCnew,2,DIAN07,
2IFCnew,39,0,39,0,-1,1,Yes,15.3,-1,Hit,0.467989299912,True,False,stimulusDIAN07_2IFCnew_2019_Jun_13_1720_229,stimulusDIAN07_2IFCnew_2019_Jun_13_1720_230,False,2019_Jun_13_1720,2IFCnew,2,DIAN07,
2IFCnew,40,0,40,0,-1,1,Yes,15.3,-1,Hit,0.434100599959,True,False,stimulusDIAN07_2IFCnew_2019_Jun_13_1720_231,stimulusDIAN07_2IFCnew_2019_Jun_13_1720_232,False,2019_Jun_13_1720,2IFCnew,2,DIAN07,
2IFCnew,41,0,41,0,-1,1,Yes,15.3,-1,Hit,0.43392729992,True,False,stimulusDIAN07_2IFCnew_2019_Jun_13_1720_233,stimulusDIAN07_2IFCnew_2019_Jun_13_1720_234,False,2019_Jun_13_1720,2IFCnew,2,DIAN07,
2IFCnew,42,0,42,0,-1,3,Yes,15.3,-1,Correct Rejection,0.531478099991,False,True,stimulusDIAN07_2IFCnew_2019_Jun_13_1720_235,stimulusDIAN07_2IFCnew_2019_Jun_13_1720_236,False,2019_Jun_13_1720,2IFCnew,2,DIAN07,
2IFCnew,43,0,43,0,-1,1,Yes,15.3,-1,Hit,0.400326400064,True,False,stimulusDIAN07_2IFCnew_2019_Jun_13_1720_237,stimulusDIAN07_2IFCnew_2019_Jun_13_1720_238,False,2019_Jun_13_1720,2IFCnew,2,DIAN07,
2IFCnew,44,0,44,0,-1,1,Yes,15.3,-1,Hit,0.433992499951,True,False,stimulusDIAN07_2IFCnew_2019_Jun_13_1720_239,stimulusDIAN07_2IFCnew_2019_Jun_13_1720_240,False,2019_Jun_13_1720,2IFCnew,2,DIAN07,
2IFCnew,45,0,45,0,-1,1,Yes,15.3,-1,Hit,0.367768799886,True,False,stimulusDIAN07_2IFCnew_2019_Jun_13_1720_241,stimulusDIAN07_2IFCnew_2019_Jun_13_1720_242,False,2019_Jun_13_1720,2IFCnew,2,DIAN07,
2IFCnew,46,0,46,0,-1,1,Yes,15.3,-1,Hit,0.367242400069,True,False,stimulusDIAN07_2IFCnew_2019_Jun_13_1720_243,stimulusDIAN07_2IFCnew_2019_Jun_13_1720_244,False,2019_Jun_13_1720,2IFCnew,2,DIAN07,
2IFCnew,47,0,47,0,-1,3,Yes,15.3,-1,Correct Rejection,0.534732100088,False,True,stimulusDIAN07_2IFCnew_2019_Jun_13_1720_245,stimulusDIAN07_2IFCnew_2019_Jun_13_1720_246,False,2019_Jun_13_1720,2IFCnew,2,DIAN07,
2IFCnew,48,0,48,0,-1,1,Yes,15.3,-1,Hit,0.399501800071,True,False,stimulusDIAN07_2IFCnew_2019_Jun_13_1720_247,stimulusDIAN07_2IFCnew_2019_Jun_13_1720_248,False,2019_Jun_13_1720,2IFCnew,2,DIAN07,
2IFCnew,49,0,49,0,-1,3,Yes,15.3,-1,Correct Rejection,0.600575000048,False,True,stimulusDIAN07_2IFCnew_2019_Jun_13_1720_249,stimulusDIAN07_2IFCnew_2019_Jun_13_1720_250,False,2019_Jun_13_1720,2IFCnew,2,DIAN07,
2IFCnew,50,0,50,0,-1,1,Yes,15.3,-1,Hit,0.433512799907,True,False,stimulusDIAN07_2IFCnew_2019_Jun_13_1720_251,stimulusDIAN07_2IFCnew_2019_Jun_13_1720_252,False,2019_Jun_13_1720,2IFCnew,2,DIAN07,
2IFCnew,51,0,51,0,-1,1,Yes,15.3,-1,Hit,0.433844499988,True,False,stimulusDIAN07_2IFCnew_2019_Jun_13_1720_253,stimulusDIAN07_2IFCnew_2019_Jun_13_1720_254,False,2019_Jun_13_1720,2IFCnew,2,DIAN07,
2IFCnew,52,0,52,0,-1,0,Yes,15.3,-1,No Answer,-1,False,True,stimulusDIAN07_2IFCnew_2019_Jun_13_1720_255,stimulusDIAN07_2IFCnew_2019_Jun_13_1720_256,False,2019_Jun_13_1720,2IFCnew,2,DIAN07,
2IFCnew,53,0,53,0,0.500560200075,2,Yes,15.3,-1,Correct Rejection,0.533835300012,False,True,stimulusDIAN07_2IFCnew_2019_Jun_13_1720_257,stimulusDIAN07_2IFCnew_2019_Jun_13_1720_258,False,2019_Jun_13_1720,2IFCnew,2,DIAN07,
2IFCnew,54,0,54,0,0.133414700162,2,Yes,15.3,-1,Correct Rejection,0.499980799854,False,True,stimulusDIAN07_2IFCnew_2019_Jun_13_1720_259,stimulusDIAN07_2IFCnew_2019_Jun_13_1720_260,False,2019_Jun_13_1720,2IFCnew,2,DIAN07,
2IFCnew,55,0,55,0,0.300476900069,2,Yes,15.3,-1,Correct Rejection,0.568576199934,False,True,stimulusDIAN07_2IFCnew_2019_Jun_13_1720_261,stimulusDIAN07_2IFCnew_2019_Jun_13_1720_262,False,2019_Jun_13_1720,2IFCnew,2,DIAN07,
2IFCnew,56,0,56,0,-1,4,Yes,15.3,-1,Miss,0.502175099915,True,False,stimulusDIAN07_2IFCnew_2019_Jun_13_1720_263,stimulusDIAN07_2IFCnew_2019_Jun_13_1720_264,False,2019_Jun_13_1720,2IFCnew,2,DIAN07,
2IFCnew,57,0,57,0,0.3005005999,2,Yes,15.3,-1,Correct Rejection,0.567553499946,False,True,stimulusDIAN07_2IFCnew_2019_Jun_13_1720_265,stimulusDIAN07_2IFCnew_2019_Jun_13_1720_266,False,2019_Jun_13_1720,2IFCnew,2,DIAN07,
2IFCnew,58,0,58,0,0.233805000084,2,Yes,15.3,-1,Correct Rejection,0.468080200022,False,True,stimulusDIAN07_2IFCnew_2019_Jun_13_1720_267,stimulusDIAN07_2IFCnew_2019_Jun_13_1720_268,False,2019_Jun_13_1720,2IFCnew,2,DIAN07,
2IFCnew,59,0,59,0,0.535451499978,6,No,15.3,-1,Miss,0.601904400159,True,False,stimulusDIAN07_2IFCnew_2019_Jun_13_1720_269,stimulusDIAN07_2IFCnew_2019_Jun_13_1720_270,False,2019_Jun_13_1720,2IFCnew,2,DIAN07,
2IFCnew,60,0,60,0,0.367166199954,2,Yes,15.3,-1,Correct Rejection,0.666963299969,False,True,stimulusDIAN07_2IFCnew_2019_Jun_13_1720_271,stimulusDIAN07_2IFCnew_2019_Jun_13_1720_272,False,2019_Jun_13_1720,2IFCnew,2,DIAN07,
2IFCnew,61,0,61,0,0.333436699817,2,Yes,15.3,-1,Correct Rejection,0.567263300065,False,True,stimulusDIAN07_2IFCnew_2019_Jun_13_1720_273,stimulusDIAN07_2IFCnew_2019_Jun_13_1720_274,False,2019_Jun_13_1720,2IFCnew,2,DIAN07,
2IFCnew,62,0,62,0,-1,1,Yes,15.3,-1,Hit,0.467555399984,True,False,stimulusDIAN07_2IFCnew_2019_Jun_13_1720_275,stimulusDIAN07_2IFCnew_2019_Jun_13_1720_276,False,2019_Jun_13_1720,2IFCnew,2,DIAN07,
2IFCnew,63,0,63,0,-1,1,Yes,15.3,-1,Hit,0.700751999859,True,False,stimulusDIAN07_2IFCnew_2019_Jun_13_1720_277,stimulusDIAN07_2IFCnew_2019_Jun_13_1720_278,False,2019_Jun_13_1720,2IFCnew,2,DIAN07,
2IFCnew,64,0,64,0,0.533809100045,1,No,15.3,-1,Hit,0.467266699998,True,False,stimulusDIAN07_2IFCnew_2019_Jun_13_1720_279,stimulusDIAN07_2IFCnew_2019_Jun_13_1720_280,False,2019_Jun_13_1720,2IFCnew,2,DIAN07,
2IFCnew,65,0,65,0,-1,1,No,15.3,-1,Hit,0.433894600021,True,False,stimulusDIAN07_2IFCnew_2019_Jun_13_1720_281,stimulusDIAN07_2IFCnew_2019_Jun_13_1720_282,False,2019_Jun_13_1720,2IFCnew,2,DIAN07,
2IFCnew,66,0,66,0,0.233570899814,2,Yes,15.3,-1,Correct Rejection,0.699163199868,False,True,stimulusDIAN07_2IFCnew_2019_Jun_13_1720_283,stimulusDIAN07_2IFCnew_2019_Jun_13_1720_284,False,2019_Jun_13_1720,2IFCnew,2,DIAN07,
2IFCnew,67,0,67,0,-1,1,Yes,15.3,-1,Hit,0.467626899946,True,False,stimulusDIAN07_2IFCnew_2019_Jun_13_1720_285,stimulusDIAN07_2IFCnew_2019_Jun_13_1720_286,False,2019_Jun_13_1720,2IFCnew,2,DIAN07,
2IFCnew,68,0,68,0,0.43258969998,2,Yes,15.3,-1,Correct Rejection,0.734164600028,False,True,stimulusDIAN07_2IFCnew_2019_Jun_13_1720_287,stimulusDIAN07_2IFCnew_2019_Jun_13_1720_288,False,2019_Jun_13_1720,2IFCnew,2,DIAN07,
2IFCnew,69,0,69,0,0.400646500057,2,Yes,15.3,-1,Correct Rejection,0.566726900171,False,True,stimulusDIAN07_2IFCnew_2019_Jun_13_1720_289,stimulusDIAN07_2IFCnew_2019_Jun_13_1720_290,False,2019_Jun_13_1720,2IFCnew,2,DIAN07,
2IFCnew,70,0,70,0,0.500591899967,2,Yes,15.3,-1,Correct Rejection,0.667441499885,False,True,stimulusDIAN07_2IFCnew_2019_Jun_13_1720_291,stimulusDIAN07_2IFCnew_2019_Jun_13_1720_292,False,2019_Jun_13_1720,2IFCnew,2,DIAN07,
2IFCnew,71,0,71,0,0.434248199919,1,No,15.3,-1,Hit,0.533940899884,True,False,stimulusDIAN07_2IFCnew_2019_Jun_13_1720_293,stimulusDIAN07_2IFCnew_2019_Jun_13_1720_294,False,2019_Jun_13_1720,2IFCnew,2,DIAN07,
2IFCnew,72,0,72,0,0.567910699872,1,No,15.3,-1,Hit,0.501547199907,True,False,stimulusDIAN07_2IFCnew_2019_Jun_13_1720_295,stimulusDIAN07_2IFCnew_2019_Jun_13_1720_296,False,2019_Jun_13_1720,2IFCnew,2,DIAN07,
2IFCnew,73,0,73,0,0.600109999999,3,No,15.3,-1,False Alarm,0.567607900128,False,True,stimulusDIAN07_2IFCnew_2019_Jun_13_1720_297,stimulusDIAN07_2IFCnew_2019_Jun_13_1720_298,False,2019_Jun_13_1720,2IFCnew,2,DIAN07,
2IFCnew,74,0,74,0,-1,0,No,15.3,-1,No Answer,-1,False,True,stimulusDIAN07_2IFCnew_2019_Jun_13_1720_299,stimulusDIAN07_2IFCnew_2019_Jun_13_1720_300,False,2019_Jun_13_1720,2IFCnew,2,DIAN07,
2IFCnew,0,0,0,0,-1,0,No,11.2,-1,No Answer,-1,True,False,stimulusDIAN07_2IFCnew_2019_Jun_13_1720_301,stimulusDIAN07_2IFCnew_2019_Jun_13_1720_302,False,2019_Jun_13_1720,2IFCnew,2,DIAN07,
2IFCnew,1,0,1,0,0.400025599869,4,Yes,11.2,-1,Miss,0.433134200051,True,False,stimulusDIAN07_2IFCnew_2019_Jun_13_1720_303,stimulusDIAN07_2IFCnew_2019_Jun_13_1720_304,False,2019_Jun_13_1720,2IFCnew,2,DIAN07,
2IFCnew,2,0,2,0,0.233397900127,2,Yes,11.2,-1,Correct Rejection,0.533967100084,False,True,stimulusDIAN07_2IFCnew_2019_Jun_13_1720_305,stimulusDIAN07_2IFCnew_2019_Jun_13_1720_306,False,2019_Jun_13_1720,2IFCnew,2,DIAN07,
2IFCnew,3,0,3,0,0.30099499994,4,Yes,11.2,-1,Miss,0.567577600013,True,False,stimulusDIAN07_2IFCnew_2019_Jun_13_1720_307,stimulusDIAN07_2IFCnew_2019_Jun_13_1720_308,False,2019_Jun_13_1720,2IFCnew,2,DIAN07,
2IFCnew,4,0,4,0,0.398297499865,1,No,11.2,-1,Hit,0.500707100146,True,False,stimulusDIAN07_2IFCnew_2019_Jun_13_1720_309,stimulusDIAN07_2IFCnew_2019_Jun_13_1720_310,False,2019_Jun_13_1720,2IFCnew,2,DIAN07,
2IFCnew,5,0,5,0,0.234483900014,2,Yes,11.2,-1,Correct Rejection,0.600542499917,False,True,stimulusDIAN07_2IFCnew_2019_Jun_13_1720_311,stimulusDIAN07_2IFCnew_2019_Jun_13_1720_312,False,2019_Jun_13_1720,2IFCnew,2,DIAN07,
2IFCnew,6,0,6,0,0.468397599878,1,No,11.2,-1,Hit,0.633993400028,True,False,stimulusDIAN07_2IFCnew_2019_Jun_13_1720_313,stimulusDIAN07_2IFCnew_2019_Jun_13_1720_314,False,2019_Jun_13_1720,2IFCnew,2,DIAN07,
2IFCnew,7,0,7,0,0.366999400081,2,Yes,11.2,-1,Correct Rejection,0.535105200019,False,True,stimulusDIAN07_2IFCnew_2019_Jun_13_1720_315,stimulusDIAN07_2IFCnew_2019_Jun_13_1720_316,False,2019_Jun_13_1720,2IFCnew,2,DIAN07,
2IFCnew,8,0,8,0,0.500508400146,6,No,11.2,-1,Miss,0.667906899936,True,False,stimulusDIAN07_2IFCnew_2019_Jun_13_1720_317,stimulusDIAN07_2IFCnew_2019_Jun_13_1720_318,False,2019_Jun_13_1720,2IFCnew,2,DIAN07,
2IFCnew,9,0,9,0,0.267277299892,2,Yes,11.2,-1,Correct Rejection,0.635080100037,False,True,stimulusDIAN07_2IFCnew_2019_Jun_13_1720_319,stimulusDIAN07_2IFCnew_2019_Jun_13_1720_320,False,2019_Jun_13_1720,2IFCnew,2,DIAN07,
2IFCnew,10,0,10,0,0.367351900088,2,Yes,11.2,-1,Correct Rejection,0.633904399816,False,True,stimulusDIAN07_2IFCnew_2019_Jun_13_1720_321,stimulusDIAN07_2IFCnew_2019_Jun_13_1720_322,False,2019_Jun_13_1720,2IFCnew,2,DIAN07,
2IFCnew,11,0,11,0,0.399740299908,2,Yes,11.2,-1,Correct Rejection,0.468036000151,False,True,stimulusDIAN07_2IFCnew_2019_Jun_13_1720_323,stimulusDIAN07_2IFCnew_2019_Jun_13_1720_324,False,2019_Jun_13_1720,2IFCnew,2,DIAN07,
2IFCnew,12,0,12,0,0.36702200002,1,No,11.2,-1,Hit,0.634336899966,True,False,stimulusDIAN07_2IFCnew_2019_Jun_13_1720_325,stimulusDIAN07_2IFCnew_2019_Jun_13_1720_326,False,2019_Jun_13_1720,2IFCnew,2,DIAN07,
2IFCnew,13,0,13,0,0.434281900059,6,No,11.2,-1,Miss,0.467194099911,True,False,stimulusDIAN07_2IFCnew_2019_Jun_13_1720_327,stimulusDIAN07_2IFCnew_2019_Jun_13_1720_328,False,2019_Jun_13_1720,2IFCnew,2,DIAN07,
2IFCnew,14,0,14,0,0.700761199929,1,No,11.2,-1,Hit,0.502802899806,True,False,stimulusDIAN07_2IFCnew_2019_Jun_13_1720_329,stimulusDIAN07_2IFCnew_2019_Jun_13_1720_330,False,2019_Jun_13_1720,2IFCnew,2,DIAN07,
2IFCnew,15,0,15,0,-1,1,No,11.2,-1,Hit,0.468591599958,True,False,stimulusDIAN07_2IFCnew_2019_Jun_13_1720_331,stimulusDIAN07_2IFCnew_2019_Jun_13_1720_332,False,2019_Jun_13_1720,2IFCnew,2,DIAN07,
2IFCnew,16,0,16,0,0.499938499881,1,No,11.2,-1,Hit,0.633954500081,True,False,stimulusDIAN07_2IFCnew_2019_Jun_13_1720_333,stimulusDIAN07_2IFCnew_2019_Jun_13_1720_334,False,2019_Jun_13_1720,2IFCnew,2,DIAN07,
2IFCnew,17,0,17,0,0.367709799903,2,Yes,11.2,-1,Correct Rejection,0.467113200109,False,True,stimulusDIAN07_2IFCnew_2019_Jun_13_1720_335,stimulusDIAN07_2IFCnew_2019_Jun_13_1720_336,False,2019_Jun_13_1720,2IFCnew,2,DIAN07,
2IFCnew,18,0,18,0,0.533953899983,1,No,11.2,-1,Hit,0.533475799952,True,False,stimulusDIAN07_2IFCnew_2019_Jun_13_1720_337,stimulusDIAN07_2IFCnew_2019_Jun_13_1720_338,False,2019_Jun_13_1720,2IFCnew,2,DIAN07,
2IFCnew,19,0,19,0,0.200574099785,2,Yes,11.2,-1,Correct Rejection,0.533821499906,False,True,stimulusDIAN07_2IFCnew_2019_Jun_13_1720_339,stimulusDIAN07_2IFCnew_2019_Jun_13_1720_340,False,2019_Jun_13_1720,2IFCnew,2,DIAN07,
2IFCnew,20,0,20,0,0.400595499901,2,Yes,11.2,-1,Correct Rejection,0.535192200216,False,True,stimulusDIAN07_2IFCnew_2019_Jun_13_1720_341,stimulusDIAN07_2IFCnew_2019_Jun_13_1720_342,False,2019_Jun_13_1720,2IFCnew,2,DIAN07,
2IFCnew,21,0,21,0,0.467397799948,1,No,11.2,-1,Hit,0.700784200104,True,False,stimulusDIAN07_2IFCnew_2019_Jun_13_1720_343,stimulusDIAN07_2IFCnew_2019_Jun_13_1720_344,False,2019_Jun_13_1720,2IFCnew,2,DIAN07,
2IFCnew,22,0,22,0,0.433773299912,2,Yes,11.2,-1,Correct Rejection,0.63395609986,False,True,stimulusDIAN07_2IFCnew_2019_Jun_13_1720_345,stimulusDIAN07_2IFCnew_2019_Jun_13_1720_346,False,2019_Jun_13_1720,2IFCnew,2,DIAN07,
2IFCnew,23,0,23,0,0.267725300044,2,Yes,11.2,-1,Correct Rejection,0.600824599853,False,True,stimulusDIAN07_2IFCnew_2019_Jun_13_1720_347,stimulusDIAN07_2IFCnew_2019_Jun_13_1720_348,False,2019_Jun_13_1720,2IFCnew,2,DIAN07,
2IFCnew,24,0,24,0,0.333548299968,2,Yes,11.2,-1,Correct Rejection,0.534023699816,False,True,stimulusDIAN07_2IFCnew_2019_Jun_13_1720_349,stimulusDIAN07_2IFCnew_2019_Jun_13_1720_350,False,2019_Jun_13_1720,2IFCnew,2,DIAN07,
2IFCnew,25,0,25,0,0.600564999972,2,Yes,11.2,-1,Correct Rejection,0.495957500068,False,True,stimulusDIAN07_2IFCnew_2019_Jun_13_1720_351,stimulusDIAN07_2IFCnew_2019_Jun_13_1720_352,False,2019_Jun_13_1720,2IFCnew,2,DIAN07,
2IFCnew,26,0,26,0,0.401018300094,2,Yes,11.2,-1,Correct Rejection,0.534985800041,False,True,stimulusDIAN07_2IFCnew_2019_Jun_13_1720_353,stimulusDIAN07_2IFCnew_2019_Jun_13_1720_354,False,2019_Jun_13_1720,2IFCnew,2,DIAN07,
2IFCnew,27,0,27,0,0.267341300147,2,Yes,11.2,-1,Correct Rejection,0.467077899957,False,True,stimulusDIAN07_2IFCnew_2019_Jun_13_1720_355,stimulusDIAN07_2IFCnew_2019_Jun_13_1720_356,False,2019_Jun_13_1720,2IFCnew,2,DIAN07,
2IFCnew,28,0,28,0,0.367314699804,2,Yes,11.2,-1,Correct Rejection,0.567952699959,False,True,stimulusDIAN07_2IFCnew_2019_Jun_13_1720_357,stimulusDIAN07_2IFCnew_2019_Jun_13_1720_358,False,2019_Jun_13_1720,2IFCnew,2,DIAN07,
2IFCnew,29,0,29,0,0.166945100063,1,No,11.2,-1,Hit,0.533389900113,True,False,stimulusDIAN07_2IFCnew_2019_Jun_13_1720_359,stimulusDIAN07_2IFCnew_2019_Jun_13_1720_360,False,2019_Jun_13_1720,2IFCnew,2,DIAN07,
2IFCnew,30,0,30,0,0.166929199826,1,No,11.2,-1,Hit,0.4663364999,True,False,stimulusDIAN07_2IFCnew_2019_Jun_13_1720_361,stimulusDIAN07_2IFCnew_2019_Jun_13_1720_362,False,2019_Jun_13_1720,2IFCnew,2,DIAN07,
2IFCnew,31,0,31,0,-1,2,No,11.2,-1,False Alarm,0.501007399987,False,True,stimulusDIAN07_2IFCnew_2019_Jun_13_1720_363,stimulusDIAN07_2IFCnew_2019_Jun_13_1720_364,False,2019_Jun_13_1720,2IFCnew,2,DIAN07,
2IFCnew,32,0,32,0,-1,1,No,11.2,-1,Hit,0.701909100171,True,False,stimulusDIAN07_2IFCnew_2019_Jun_13_1720_365,stimulusDIAN07_2IFCnew_2019_Jun_13_1720_366,False,2019_Jun_13_1720,2IFCnew,2,DIAN07,
2IFCnew,33,0,33,0,-1,1,No,11.2,-1,Hit,0.700677100103,True,False,stimulusDIAN07_2IFCnew_2019_Jun_13_1720_367,stimulusDIAN07_2IFCnew_2019_Jun_13_1720_368,False,2019_Jun_13_1720,2IFCnew,2,DIAN07,
2IFCnew,34,0,34,0,0.768548399908,7,Yes,11.2,-1,Hit,0.633410200011,True,False,stimulusDIAN07_2IFCnew_2019_Jun_13_1720_369,stimulusDIAN07_2IFCnew_2019_Jun_13_1720_370,False,2019_Jun_13_1720,2IFCnew,2,DIAN07,
2IFCnew,35,0,35,0,0.467681499897,1,No,11.2,-1,Hit,0.534737000009,True,False,stimulusDIAN07_2IFCnew_2019_Jun_13_1720_371,stimulusDIAN07_2IFCnew_2019_Jun_13_1720_372,False,2019_Jun_13_1720,2IFCnew,2,DIAN07,
2IFCnew,36,0,36,0,0.434028000105,1,No,11.2,-1,Hit,0.4685207,True,False,stimulusDIAN07_2IFCnew_2019_Jun_13_1720_373,stimulusDIAN07_2IFCnew_2019_Jun_13_1720_374,False,2019_Jun_13_1720,2IFCnew,2,DIAN07,
2IFCnew,37,0,37,0,-1,1,No,11.2,-1,Hit,0.46737800003,True,False,stimulusDIAN07_2IFCnew_2019_Jun_13_1720_375,stimulusDIAN07_2IFCnew_2019_Jun_13_1720_376,False,2019_Jun_13_1720,2IFCnew,2,DIAN07,
2IFCnew,38,0,38,0,-1,1,No,11.2,-1,Hit,0.434069500072,True,False,stimulusDIAN07_2IFCnew_2019_Jun_13_1720_377,stimulusDIAN07_2IFCnew_2019_Jun_13_1720_378,False,2019_Jun_13_1720,2IFCnew,2,DIAN07,
2IFCnew,39,0,39,0,0.466070299968,1,No,11.2,-1,Hit,0.400461799931,True,False,stimulusDIAN07_2IFCnew_2019_Jun_13_1720_379,stimulusDIAN07_2IFCnew_2019_Jun_13_1720_380,False,2019_Jun_13_1720,2IFCnew,2,DIAN07,
2IFCnew,40,0,40,0,0.500526299933,1,No,11.2,-1,Hit,0.601968399948,True,False,stimulusDIAN07_2IFCnew_2019_Jun_13_1720_381,stimulusDIAN07_2IFCnew_2019_Jun_13_1720_382,False,2019_Jun_13_1720,2IFCnew,2,DIAN07,
2IFCnew,41,0,41,0,0.567447300069,5,Yes,11.2,-1,False Alarm,0.468208300183,False,True,stimulusDIAN07_2IFCnew_2019_Jun_13_1720_383,stimulusDIAN07_2IFCnew_2019_Jun_13_1720_384,False,2019_Jun_13_1720,2IFCnew,2,DIAN07,
2IFCnew,42,0,42,0,0.567025199998,1,No,11.2,-1,Hit,0.534174700035,True,False,stimulusDIAN07_2IFCnew_2019_Jun_13_1720_385,stimulusDIAN07_2IFCnew_2019_Jun_13_1720_386,False,2019_Jun_13_1720,2IFCnew,2,DIAN07,
2IFCnew,43,0,43,0,-1,1,No,11.2,-1,Hit,0.465987100033,True,False,stimulusDIAN07_2IFCnew_2019_Jun_13_1720_387,stimulusDIAN07_2IFCnew_2019_Jun_13_1720_388,False,2019_Jun_13_1720,2IFCnew,2,DIAN07,
2IFCnew,44,0,44,0,0.600548600079,1,No,11.2,-1,Hit,0.466893999837,True,False,stimulusDIAN07_2IFCnew_2019_Jun_13_1720_389,stimulusDIAN07_2IFCnew_2019_Jun_13_1720_390,False,2019_Jun_13_1720,2IFCnew,2,DIAN07,
2IFCnew,45,0,45,0,0.500273699872,1,No,11.2,-1,Hit,0.534273799974,True,False,stimulusDIAN07_2IFCnew_2019_Jun_13_1720_391,stimulusDIAN07_2IFCnew_2019_Jun_13_1720_392,False,2019_Jun_13_1720,2IFCnew,2,DIAN07,
2IFCnew,46,0,46,0,-1,1,No,11.2,-1,Hit,0.500778899994,True,False,stimulusDIAN07_2IFCnew_2019_Jun_13_1720_393,stimulusDIAN07_2IFCnew_2019_Jun_13_1720_394,False,2019_Jun_13_1720,2IFCnew,2,DIAN07,
2IFCnew,47,0,47,0,0.600223100046,3,No,11.2,-1,False Alarm,0.833900499856,False,True,stimulusDIAN07_2IFCnew_2019_Jun_13_1720_395,stimulusDIAN07_2IFCnew_2019_Jun_13_1720_396,False,2019_Jun_13_1720,2IFCnew,2,DIAN07,
2IFCnew,48,0,48,0,0.400046700146,1,No,11.2,-1,Hit,0.433862500126,True,False,stimulusDIAN07_2IFCnew_2019_Jun_13_1720_397,stimulusDIAN07_2IFCnew_2019_Jun_13_1720_398,False,2019_Jun_13_1720,2IFCnew,2,DIAN07,
2IFCnew,49,0,49,0,-1,1,No,11.2,-1,Hit,0.466727799969,True,False,stimulusDIAN07_2IFCnew_2019_Jun_13_1720_399,stimulusDIAN07_2IFCnew_2019_Jun_13_1720_400,False,2019_Jun_13_1720,2IFCnew,2,DIAN07,
2IFCnew,50,0,50,0,0.332824000157,2,Yes,11.2,-1,Correct Rejection,0.634347799933,False,True,stimulusDIAN07_2IFCnew_2019_Jun_13_1720_401,stimulusDIAN07_2IFCnew_2019_Jun_13_1720_402,False,2019_Jun_13_1720,2IFCnew,2,DIAN07,
2IFCnew,51,0,51,0,0.465380599955,1,No,11.2,-1,Hit,0.467126500094,True,False,stimulusDIAN07_2IFCnew_2019_Jun_13_1720_403,stimulusDIAN07_2IFCnew_2019_Jun_13_1720_404,False,2019_Jun_13_1720,2IFCnew,2,DIAN07,
2IFCnew,52,0,52,0,0.500465000048,3,No,11.2,-1,False Alarm,0.501320600044,False,True,stimulusDIAN07_2IFCnew_2019_Jun_13_1720_405,stimulusDIAN07_2IFCnew_2019_Jun_13_1720_406,False,2019_Jun_13_1720,2IFCnew,2,DIAN07,
2IFCnew,53,0,53,0,0.500846300041,1,No,11.2,-1,Hit,0.767504099989,True,False,stimulusDIAN07_2IFCnew_2019_Jun_13_1720_407,stimulusDIAN07_2IFCnew_2019_Jun_13_1720_408,False,2019_Jun_13_1720,2IFCnew,2,DIAN07,
2IFCnew,54,0,54,0,0.433809000067,7,Yes,11.2,-1,Hit,0.500582900131,True,False,stimulusDIAN07_2IFCnew_2019_Jun_13_1720_409,stimulusDIAN07_2IFCnew_2019_Jun_13_1720_410,False,2019_Jun_13_1720,2IFCnew,2,DIAN07,
2IFCnew,55,0,55,0,0.434867999982,2,Yes,11.2,-1,Correct Rejection,0.634054700145,False,True,stimulusDIAN07_2IFCnew_2019_Jun_13_1720_411,stimulusDIAN07_2IFCnew_2019_Jun_13_1720_412,False,2019_Jun_13_1720,2IFCnew,2,DIAN07,
2IFCnew,56,0,56,0,-1,3,Yes,11.2,-1,Correct Rejection,0.567549499916,False,True,stimulusDIAN07_2IFCnew_2019_Jun_13_1720_413,stimulusDIAN07_2IFCnew_2019_Jun_13_1720_414,False,2019_Jun_13_1720,2IFCnew,2,DIAN07,
2IFCnew,57,0,57,0,-1,3,Yes,11.2,-1,Correct Rejection,0.534285700181,False,True,stimulusDIAN07_2IFCnew_2019_Jun_13_1720_415,stimulusDIAN07_2IFCnew_2019_Jun_13_1720_416,False,2019_Jun_13_1720,2IFCnew,2,DIAN07,
2IFCnew,58,0,58,0,-1,3,Yes,11.2,-1,Correct Rejection,0.500619200058,False,True,stimulusDIAN07_2IFCnew_2019_Jun_13_1720_417,stimulusDIAN07_2IFCnew_2019_Jun_13_1720_418,False,2019_Jun_13_1720,2IFCnew,2,DIAN07,
2IFCnew,59,0,59,0,-1,3,Yes,11.2,-1,Correct Rejection,0.600665699923,False,True,stimulusDIAN07_2IFCnew_2019_Jun_13_1720_419,stimulusDIAN07_2IFCnew_2019_Jun_13_1720_420,False,2019_Jun_13_1720,2IFCnew,2,DIAN07,
2IFCnew,60,0,60,0,-1,3,Yes,11.2,-1,Correct Rejection,0.46736569982,False,True,stimulusDIAN07_2IFCnew_2019_Jun_13_1720_421,stimulusDIAN07_2IFCnew_2019_Jun_13_1720_422,False,2019_Jun_13_1720,2IFCnew,2,DIAN07,
2IFCnew,61,0,61,0,-1,4,Yes,11.2,-1,Miss,0.466977499891,True,False,stimulusDIAN07_2IFCnew_2019_Jun_13_1720_423,stimulusDIAN07_2IFCnew_2019_Jun_13_1720_424,False,2019_Jun_13_1720,2IFCnew,2,DIAN07,
2IFCnew,62,0,62,0,0.533856399823,6,No,11.2,-1,Miss,0.632038200041,True,False,stimulusDIAN07_2IFCnew_2019_Jun_13_1720_425,stimulusDIAN07_2IFCnew_2019_Jun_13_1720_426,False,2019_Jun_13_1720,2IFCnew,2,DIAN07,
2IFCnew,63,0,63,0,-1,1,No,11.2,-1,Hit,0.767312300159,True,False,stimulusDIAN07_2IFCnew_2019_Jun_13_1720_427,stimulusDIAN07_2IFCnew_2019_Jun_13_1720_428,False,2019_Jun_13_1720,2IFCnew,2,DIAN07,
2IFCnew,64,0,64,0,-1,1,No,11.2,-1,Hit,0.501124100061,True,False,stimulusDIAN07_2IFCnew_2019_Jun_13_1720_429,stimulusDIAN07_2IFCnew_2019_Jun_13_1720_430,False,2019_Jun_13_1720,2IFCnew,2,DIAN07,
2IFCnew,65,0,65,0,-1,3,No,11.2,-1,Correct Rejection,0.600797199877,False,True,stimulusDIAN07_2IFCnew_2019_Jun_13_1720_431,stimulusDIAN07_2IFCnew_2019_Jun_13_1720_432,False,2019_Jun_13_1720,2IFCnew,2,DIAN07,
2IFCnew,66,0,66,0,-1,2,No,11.2,-1,False Alarm,0.500985799823,False,True,stimulusDIAN07_2IFCnew_2019_Jun_13_1720_433,stimulusDIAN07_2IFCnew_2019_Jun_13_1720_434,False,2019_Jun_13_1720,2IFCnew,2,DIAN07,
2IFCnew,67,0,67,0,-1,3,No,11.2,-1,Correct Rejection,0.602243899833,False,True,stimulusDIAN07_2IFCnew_2019_Jun_13_1720_435,stimulusDIAN07_2IFCnew_2019_Jun_13_1720_436,False,2019_Jun_13_1720,2IFCnew,2,DIAN07,
2IFCnew,68,0,68,0,-1,4,No,11.2,-1,Miss,0.733929999871,True,False,stimulusDIAN07_2IFCnew_2019_Jun_13_1720_437,stimulusDIAN07_2IFCnew_2019_Jun_13_1720_438,False,2019_Jun_13_1720,2IFCnew,2,DIAN07,
2IFCnew,69,0,69,0,-1,1,No,11.2,-1,Hit,0.802872800035,True,False,stimulusDIAN07_2IFCnew_2019_Jun_13_1720_439,stimulusDIAN07_2IFCnew_2019_Jun_13_1720_440,False,2019_Jun_13_1720,2IFCnew,2,DIAN07,
2IFCnew,70,0,70,0,-1,1,No,11.2,-1,Hit,0.60114839999,True,False,stimulusDIAN07_2IFCnew_2019_Jun_13_1720_441,stimulusDIAN07_2IFCnew_2019_Jun_13_1720_442,False,2019_Jun_13_1720,2IFCnew,2,DIAN07,
2IFCnew,71,0,71,0,-1,1,No,11.2,-1,Hit,0.465927000158,True,False,stimulusDIAN07_2IFCnew_2019_Jun_13_1720_443,stimulusDIAN07_2IFCnew_2019_Jun_13_1720_444,False,2019_Jun_13_1720,2IFCnew,2,DIAN07,
2IFCnew,72,0,72,0,-1,2,No,11.2,-1,False Alarm,0.566235099919,False,True,stimulusDIAN07_2IFCnew_2019_Jun_13_1720_445,stimulusDIAN07_2IFCnew_2019_Jun_13_1720_446,False,2019_Jun_13_1720,2IFCnew,2,DIAN07,
2IFCnew,73,0,73,0,-1,3,No,11.2,-1,Correct Rejection,0.633450899972,False,True,stimulusDIAN07_2IFCnew_2019_Jun_13_1720_447,stimulusDIAN07_2IFCnew_2019_Jun_13_1720_448,False,2019_Jun_13_1720,2IFCnew,2,DIAN07,
2IFCnew,74,0,74,0,-1,1,No,11.2,-1,Hit,0.500690100016,True,False,stimulusDIAN07_2IFCnew_2019_Jun_13_1720_449,stimulusDIAN07_2IFCnew_2019_Jun_13_1720_450,False,2019_Jun_13_1720,2IFCnew,2,DIAN07,
2IFCnew,0,0,0,0,-1,0,No,5.8,-1,No Answer,-1,False,True,stimulusDIAN07_2IFCnew_2019_Jun_13_1720_451,stimulusDIAN07_2IFCnew_2019_Jun_13_1720_452,False,2019_Jun_13_1720,2IFCnew,2,DIAN07,
2IFCnew,1,0,1,0,-1,1,No,5.8,-1,Hit,0.534043299966,True,False,stimulusDIAN07_2IFCnew_2019_Jun_13_1720_453,stimulusDIAN07_2IFCnew_2019_Jun_13_1720_454,False,2019_Jun_13_1720,2IFCnew,2,DIAN07,
2IFCnew,2,0,2,0,-1,4,No,5.8,-1,Miss,0.600149900187,True,False,stimulusDIAN07_2IFCnew_2019_Jun_13_1720_455,stimulusDIAN07_2IFCnew_2019_Jun_13_1720_456,False,2019_Jun_13_1720,2IFCnew,2,DIAN07,
2IFCnew,3,0,3,0,-1,3,No,5.8,-1,Correct Rejection,0.60128419986,False,True,stimulusDIAN07_2IFCnew_2019_Jun_13_1720_457,stimulusDIAN07_2IFCnew_2019_Jun_13_1720_458,False,2019_Jun_13_1720,2IFCnew,2,DIAN07,
2IFCnew,4,0,4,0,0.565444699954,1,No,5.8,-1,Hit,0.632009899942,True,False,stimulusDIAN07_2IFCnew_2019_Jun_13_1720_459,stimulusDIAN07_2IFCnew_2019_Jun_13_1720_460,False,2019_Jun_13_1720,2IFCnew,2,DIAN07,
2IFCnew,5,0,5,0,-1,1,No,5.8,-1,Hit,0.466852599988,True,False,stimulusDIAN07_2IFCnew_2019_Jun_13_1720_461,stimulusDIAN07_2IFCnew_2019_Jun_13_1720_462,False,2019_Jun_13_1720,2IFCnew,2,DIAN07,
2IFCnew,6,0,6,0,0.433337400202,2,Yes,5.8,-1,Correct Rejection,0.633569400059,False,True,stimulusDIAN07_2IFCnew_2019_Jun_13_1720_463,stimulusDIAN07_2IFCnew_2019_Jun_13_1720_464,False,2019_Jun_13_1720,2IFCnew,2,DIAN07,
2IFCnew,7,0,7,0,-1,1,Yes,5.8,-1,Hit,0.8341814999,True,False,stimulusDIAN07_2IFCnew_2019_Jun_13_1720_465,stimulusDIAN07_2IFCnew_2019_Jun_13_1720_466,False,2019_Jun_13_1720,2IFCnew,2,DIAN07,
2IFCnew,8,0,8,0,-1,1,Yes,5.8,-1,Hit,0.833866500063,True,False,stimulusDIAN07_2IFCnew_2019_Jun_13_1720_467,stimulusDIAN07_2IFCnew_2019_Jun_13_1720_468,False,2019_Jun_13_1720,2IFCnew,2,DIAN07,
2IFCnew,9,0,9,0,-1,1,Yes,5.8,-1,Hit,0.635245900135,True,False,stimulusDIAN07_2IFCnew_2019_Jun_13_1720_469,stimulusDIAN07_2IFCnew_2019_Jun_13_1720_470,False,2019_Jun_13_1720,2IFCnew,2,DIAN07,
2IFCnew,10,0,10,0,-1,1,Yes,5.8,-1,Hit,0.600042199949,True,False,stimulusDIAN07_2IFCnew_2019_Jun_13_1720_471,stimulusDIAN07_2IFCnew_2019_Jun_13_1720_472,False,2019_Jun_13_1720,2IFCnew,2,DIAN07,
2IFCnew,11,0,11,0,-1,1,Yes,5.8,-1,Hit,0.700963699957,True,False,stimulusDIAN07_2IFCnew_2019_Jun_13_1720_473,stimulusDIAN07_2IFCnew_2019_Jun_13_1720_474,False,2019_Jun_13_1720,2IFCnew,2,DIAN07,
2IFCnew,12,0,12,0,-1,1,Yes,5.8,-1,Hit,0.500783900032,True,False,stimulusDIAN07_2IFCnew_2019_Jun_13_1720_475,stimulusDIAN07_2IFCnew_2019_Jun_13_1720_476,False,2019_Jun_13_1720,2IFCnew,2,DIAN07,
2IFCnew,13,0,13,0,-1,3,Yes,5.8,-1,Correct Rejection,0.733953800052,False,True,stimulusDIAN07_2IFCnew_2019_Jun_13_1720_477,stimulusDIAN07_2IFCnew_2019_Jun_13_1720_478,False,2019_Jun_13_1720,2IFCnew,2,DIAN07,
2IFCnew,14,0,14,0,-1,3,Yes,5.8,-1,Correct Rejection,0.800746300025,False,True,stimulusDIAN07_2IFCnew_2019_Jun_13_1720_479,stimulusDIAN07_2IFCnew_2019_Jun_13_1720_480,False,2019_Jun_13_1720,2IFCnew,2,DIAN07,
2IFCnew,15,0,15,0,-1,2,Yes,5.8,-1,False Alarm,0.46912169992,False,True,stimulusDIAN07_2IFCnew_2019_Jun_13_1720_481,stimulusDIAN07_2IFCnew_2019_Jun_13_1720_482,False,2019_Jun_13_1720,2IFCnew,2,DIAN07,
2IFCnew,16,0,16,0,-1,1,Yes,5.8,-1,Hit,0.565956200007,True,False,stimulusDIAN07_2IFCnew_2019_Jun_13_1720_483,stimulusDIAN07_2IFCnew_2019_Jun_13_1720_484,False,2019_Jun_13_1720,2IFCnew,2,DIAN07,
2IFCnew,17,0,17,0,-1,1,Yes,5.8,-1,Hit,0.467162800021,True,False,stimulusDIAN07_2IFCnew_2019_Jun_13_1720_485,stimulusDIAN07_2IFCnew_2019_Jun_13_1720_486,False,2019_Jun_13_1720,2IFCnew,2,DIAN07,
2IFCnew,18,0,18,0,-1,1,Yes,5.8,-1,Hit,0.400727200089,True,False,stimulusDIAN07_2IFCnew_2019_Jun_13_1720_487,stimulusDIAN07_2IFCnew_2019_Jun_13_1720_488,False,2019_Jun_13_1720,2IFCnew,2,DIAN07,
2IFCnew,19,0,19,0,0.667033400154,1,No,5.8,-1,Hit,0.429992299993,True,False,stimulusDIAN07_2IFCnew_2019_Jun_13_1720_489,stimulusDIAN07_2IFCnew_2019_Jun_13_1720_490,False,2019_Jun_13_1720,2IFCnew,2,DIAN07,
2IFCnew,20,0,20,0,0.101999100065,1,No,5.8,-1,Hit,0.435505299829,True,False,stimulusDIAN07_2IFCnew_2019_Jun_13_1720_491,stimulusDIAN07_2IFCnew_2019_Jun_13_1720_492,False,2019_Jun_13_1720,2IFCnew,2,DIAN07,
2IFCnew,21,0,21,0,0.133573699975,1,No,5.8,-1,Hit,0.501112300204,True,False,stimulusDIAN07_2IFCnew_2019_Jun_13_1720_493,stimulusDIAN07_2IFCnew_2019_Jun_13_1720_494,False,2019_Jun_13_1720,2IFCnew,2,DIAN07,
2IFCnew,22,0,22,0,0.133573000086,3,No,5.8,-1,False Alarm,0.601112000179,False,True,stimulusDIAN07_2IFCnew_2019_Jun_13_1720_495,stimulusDIAN07_2IFCnew_2019_Jun_13_1720_496,False,2019_Jun_13_1720,2IFCnew,2,DIAN07,
2IFCnew,23,0,23,0,0.266852800036,3,No,5.8,-1,False Alarm,0.800052099861,False,True,stimulusDIAN07_2IFCnew_2019_Jun_13_1720_497,stimulusDIAN07_2IFCnew_2019_Jun_13_1720_498,False,2019_Jun_13_1720,2IFCnew,2,DIAN07,
2IFCnew,24,0,24,0,0.0665955999866,1,No,5.8,-1,Hit,0.634363600053,True,False,stimulusDIAN07_2IFCnew_2019_Jun_13_1720_499,stimulusDIAN07_2IFCnew_2019_Jun_13_1720_500,False,2019_Jun_13_1720,2IFCnew,2,DIAN07,
2IFCnew,25,0,25,0,-1,4,No,5.8,-1,Miss,0.735020000022,True,False,stimulusDIAN07_2IFCnew_2019_Jun_13_1720_501,stimulusDIAN07_2IFCnew_2019_Jun_13_1720_502,False,2019_Jun_13_1720,2IFCnew,2,DIAN07,
2IFCnew,26,0,26,0,-1,3,No,5.8,-1,Correct Rejection,0.600986199919,False,True,stimulusDIAN07_2IFCnew_2019_Jun_13_1720_503,stimulusDIAN07_2IFCnew_2019_Jun_13_1720_504,False,2019_Jun_13_1720,2IFCnew,2,DIAN07,
2IFCnew,27,0,27,0,0.535484200111,4,Yes,5.8,-1,Miss,0.834119899897,True,False,stimulusDIAN07_2IFCnew_2019_Jun_13_1720_505,stimulusDIAN07_2IFCnew_2019_Jun_13_1720_506,False,2019_Jun_13_1720,2IFCnew,2,DIAN07,
2IFCnew,28,0,28,0,0.73449860001,2,Yes,5.8,-1,Correct Rejection,0.598797900137,False,True,stimulusDIAN07_2IFCnew_2019_Jun_13_1720_507,stimulusDIAN07_2IFCnew_2019_Jun_13_1720_508,False,2019_Jun_13_1720,2IFCnew,2,DIAN07,
2IFCnew,29,0,29,0,0.500670700101,3,No,5.8,-1,False Alarm,0.73422480002,False,True,stimulusDIAN07_2IFCnew_2019_Jun_13_1720_509,stimulusDIAN07_2IFCnew_2019_Jun_13_1720_510,False,2019_Jun_13_1720,2IFCnew,2,DIAN07,
2IFCnew,30,0,30,0,0.466246200027,5,Yes,5.8,-1,False Alarm,0.768192399992,False,True,stimulusDIAN07_2IFCnew_2019_Jun_13_1720_511,stimulusDIAN07_2IFCnew_2019_Jun_13_1720_512,False,2019_Jun_13_1720,2IFCnew,2,DIAN07,
2IFCnew,31,0,31,0,0.90032619983,7,Yes,5.8,-1,Hit,0.533507699845,True,False,stimulusDIAN07_2IFCnew_2019_Jun_13_1720_513,stimulusDIAN07_2IFCnew_2019_Jun_13_1720_514,False,2019_Jun_13_1720,2IFCnew,2,DIAN07,
2IFCnew,32,0,32,0,-1,2,Yes,5.8,-1,False Alarm,0.700717699947,False,True,stimulusDIAN07_2IFCnew_2019_Jun_13_1720_515,stimulusDIAN07_2IFCnew_2019_Jun_13_1720_516,False,2019_Jun_13_1720,2IFCnew,2,DIAN07,
2IFCnew,33,0,33,0,-1,1,Yes,5.8,-1,Hit,0.434183300007,True,False,stimulusDIAN07_2IFCnew_2019_Jun_13_1720_517,stimulusDIAN07_2IFCnew_2019_Jun_13_1720_518,False,2019_Jun_13_1720,2IFCnew,2,DIAN07,
2IFCnew,34,0,34,0,0.432198199909,3,No,5.8,-1,False Alarm,0.496667400002,False,True,stimulusDIAN07_2IFCnew_2019_Jun_13_1720_519,stimulusDIAN07_2IFCnew_2019_Jun_13_1720_520,False,2019_Jun_13_1720,2IFCnew,2,DIAN07,
2IFCnew,35,0,35,0,0.4672538999,3,No,5.8,-1,False Alarm,0.500597300008,False,True,stimulusDIAN07_2IFCnew_2019_Jun_13_1720_521,stimulusDIAN07_2IFCnew_2019_Jun_13_1720_522,False,2019_Jun_13_1720,2IFCnew,2,DIAN07,
2IFCnew,36,0,36,0,0.500783499796,1,No,5.8,-1,Hit,0.400612600148,True,False,stimulusDIAN07_2IFCnew_2019_Jun_13_1720_523,stimulusDIAN07_2IFCnew_2019_Jun_13_1720_524,False,2019_Jun_13_1720,2IFCnew,2,DIAN07,
2IFCnew,37,0,37,0,0.467537199846,3,No,5.8,-1,False Alarm,0.567261000164,False,True,stimulusDIAN07_2IFCnew_2019_Jun_13_1720_525,stimulusDIAN07_2IFCnew_2019_Jun_13_1720_526,False,2019_Jun_13_1720,2IFCnew,2,DIAN07,
2IFCnew,38,0,38,0,-1,1,No,5.8,-1,Hit,0.534397199983,True,False,stimulusDIAN07_2IFCnew_2019_Jun_13_1720_527,stimulusDIAN07_2IFCnew_2019_Jun_13_1720_528,False,2019_Jun_13_1720,2IFCnew,2,DIAN07,
2IFCnew,39,0,39,0,-1,2,No,5.8,-1,False Alarm,0.535133699887,False,True,stimulusDIAN07_2IFCnew_2019_Jun_13_1720_529,stimulusDIAN07_2IFCnew_2019_Jun_13_1720_530,False,2019_Jun_13_1720,2IFCnew,2,DIAN07,
2IFCnew,40,0,40,0,0.367066100007,5,Yes,5.8,-1,False Alarm,0.400115699973,False,True,stimulusDIAN07_2IFCnew_2019_Jun_13_1720_531,stimulusDIAN07_2IFCnew_2019_Jun_13_1720_532,False,2019_Jun_13_1720,2IFCnew,2,DIAN07,
2IFCnew,41,0,41,0,-1,0,Yes,5.8,-1,No Answer,-1,True,False,stimulusDIAN07_2IFCnew_2019_Jun_13_1720_533,stimulusDIAN07_2IFCnew_2019_Jun_13_1720_534,False,2019_Jun_13_1720,2IFCnew,2,DIAN07,
2IFCnew,42,0,42,0,0.634306699969,3,No,5.8,-1,False Alarm,0.70078710001,False,True,stimulusDIAN07_2IFCnew_2019_Jun_13_1720_535,stimulusDIAN07_2IFCnew_2019_Jun_13_1720_536,False,2019_Jun_13_1720,2IFCnew,2,DIAN07,
2IFCnew,43,0,43,0,0.100495499792,5,Yes,5.8,-1,False Alarm,0.400383499917,False,True,stimulusDIAN07_2IFCnew_2019_Jun_13_1720_537,stimulusDIAN07_2IFCnew_2019_Jun_13_1720_538,False,2019_Jun_13_1720,2IFCnew,2,DIAN07,
2IFCnew,44,0,44,0,-1,2,Yes,5.8,-1,False Alarm,0.70066750003,False,True,stimulusDIAN07_2IFCnew_2019_Jun_13_1720_539,stimulusDIAN07_2IFCnew_2019_Jun_13_1720_540,False,2019_Jun_13_1720,2IFCnew,2,DIAN07,
2IFCnew,45,0,45,0,-1,1,Yes,5.8,-1,Hit,0.7000541999,True,False,stimulusDIAN07_2IFCnew_2019_Jun_13_1720_541,stimulusDIAN07_2IFCnew_2019_Jun_13_1720_542,False,2019_Jun_13_1720,2IFCnew,2,DIAN07,
2IFCnew,46,0,46,0,-1,2,Yes,5.8,-1,False Alarm,0.867378999945,False,True,stimulusDIAN07_2IFCnew_2019_Jun_13_1720_543,stimulusDIAN07_2IFCnew_2019_Jun_13_1720_544,False,2019_Jun_13_1720,2IFCnew,2,DIAN07,
2IFCnew,47,0,47,0,0.200375400018,5,Yes,5.8,-1,False Alarm,0.467155899853,False,True,stimulusDIAN07_2IFCnew_2019_Jun_13_1720_545,stimulusDIAN07_2IFCnew_2019_Jun_13_1720_546,False,2019_Jun_13_1720,2IFCnew,2,DIAN07,
2IFCnew,48,0,48,0,-1,1,Yes,5.8,-1,Hit,0.568389199907,True,False,stimulusDIAN07_2IFCnew_2019_Jun_13_1720_547,stimulusDIAN07_2IFCnew_2019_Jun_13_1720_548,False,2019_Jun_13_1720,2IFCnew,2,DIAN07,
2IFCnew,49,0,49,0,-1,2,Yes,5.8,-1,False Alarm,0.467333500041,False,True,stimulusDIAN07_2IFCnew_2019_Jun_13_1720_549,stimulusDIAN07_2IFCnew_2019_Jun_13_1720_550,False,2019_Jun_13_1720,2IFCnew,2,DIAN07,
2IFCnew,50,0,50,0,-1,2,Yes,5.8,-1,False Alarm,0.466250499943,False,True,stimulusDIAN07_2IFCnew_2019_Jun_13_1720_551,stimulusDIAN07_2IFCnew_2019_Jun_13_1720_552,False,2019_Jun_13_1720,2IFCnew,2,DIAN07,
2IFCnew,51,0,51,0,-1,4,Yes,5.8,-1,Miss,0.667211800115,True,False,stimulusDIAN07_2IFCnew_2019_Jun_13_1720_553,stimulusDIAN07_2IFCnew_2019_Jun_13_1720_554,False,2019_Jun_13_1720,2IFCnew,2,DIAN07,
2IFCnew,52,0,52,0,0.13405270013,5,Yes,5.8,-1,False Alarm,0.367295400007,False,True,stimulusDIAN07_2IFCnew_2019_Jun_13_1720_555,stimulusDIAN07_2IFCnew_2019_Jun_13_1720_556,False,2019_Jun_13_1720,2IFCnew,2,DIAN07,
2IFCnew,53,0,53,0,-1,1,Yes,5.8,-1,Hit,0.533877399983,True,False,stimulusDIAN07_2IFCnew_2019_Jun_13_1720_557,stimulusDIAN07_2IFCnew_2019_Jun_13_1720_558,False,2019_Jun_13_1720,2IFCnew,2,DIAN07,
2IFCnew,54,0,54,0,-1,1,Yes,5.8,-1,Hit,0.634933999972,True,False,stimulusDIAN07_2IFCnew_2019_Jun_13_1720_559,stimulusDIAN07_2IFCnew_2019_Jun_13_1720_560,False,2019_Jun_13_1720,2IFCnew,2,DIAN07,
2IFCnew,55,0,55,0,-1,2,Yes,5.8,-1,False Alarm,0.801288000075,False,True,stimulusDIAN07_2IFCnew_2019_Jun_13_1720_561,stimulusDIAN07_2IFCnew_2019_Jun_13_1720_562,False,2019_Jun_13_1720,2IFCnew,2,DIAN07,
2IFCnew,56,0,56,0,-1,3,Yes,5.8,-1,Correct Rejection,0.56830179994,False,True,stimulusDIAN07_2IFCnew_2019_Jun_13_1720_563,stimulusDIAN07_2IFCnew_2019_Jun_13_1720_564,False,2019_Jun_13_1720,2IFCnew,2,DIAN07,
2IFCnew,57,0,57,0,-1,0,Yes,5.8,-1,No Answer,-1,True,False,stimulusDIAN07_2IFCnew_2019_Jun_13_1720_565,stimulusDIAN07_2IFCnew_2019_Jun_13_1720_566,False,2019_Jun_13_1720,2IFCnew,2,DIAN07,
2IFCnew,58,0,58,0,0.400454899995,2,Yes,5.8,-1,Correct Rejection,0.56709060003,False,True,stimulusDIAN07_2IFCnew_2019_Jun_13_1720_567,stimulusDIAN07_2IFCnew_2019_Jun_13_1720_568,False,2019_Jun_13_1720,2IFCnew,2,DIAN07,
2IFCnew,59,0,59,0,0.434116299963,1,No,5.8,-1,Hit,0.533412199933,True,False,stimulusDIAN07_2IFCnew_2019_Jun_13_1720_569,stimulusDIAN07_2IFCnew_2019_Jun_13_1720_570,False,2019_Jun_13_1720,2IFCnew,2,DIAN07,
2IFCnew,60,0,60,0,0.265479299938,3,No,5.8,-1,False Alarm,0.566716500092,False,True,stimulusDIAN07_2IFCnew_2019_Jun_13_1720_571,stimulusDIAN07_2IFCnew_2019_Jun_13_1720_572,False,2019_Jun_13_1720,2IFCnew,2,DIAN07,
2IFCnew,61,0,61,0,0.400518200127,1,No,5.8,-1,Hit,0.468108800007,True,False,stimulusDIAN07_2IFCnew_2019_Jun_13_1720_573,stimulusDIAN07_2IFCnew_2019_Jun_13_1720_574,False,2019_Jun_13_1720,2IFCnew,2,DIAN07,
2IFCnew,62,0,62,0,0.63383159996,3,No,5.8,-1,False Alarm,0.435291900067,False,True,stimulusDIAN07_2IFCnew_2019_Jun_13_1720_575,stimulusDIAN07_2IFCnew_2019_Jun_13_1720_576,False,2019_Jun_13_1720,2IFCnew,2,DIAN07,
2IFCnew,63,0,63,0,0.466677000048,1,No,5.8,-1,Hit,0.403912299778,True,False,stimulusDIAN07_2IFCnew_2019_Jun_13_1720_577,stimulusDIAN07_2IFCnew_2019_Jun_13_1720_578,False,2019_Jun_13_1720,2IFCnew,2,DIAN07,
2IFCnew,64,0,64,0,0.466332400218,1,No,5.8,-1,Hit,0.567386399955,True,False,stimulusDIAN07_2IFCnew_2019_Jun_13_1720_579,stimulusDIAN07_2IFCnew_2019_Jun_13_1720_580,False,2019_Jun_13_1720,2IFCnew,2,DIAN07,
2IFCnew,65,0,65,0,0.433783899993,3,No,5.8,-1,False Alarm,0.500857400009,False,True,stimulusDIAN07_2IFCnew_2019_Jun_13_1720_581,stimulusDIAN07_2IFCnew_2019_Jun_13_1720_582,False,2019_Jun_13_1720,2IFCnew,2,DIAN07,
2IFCnew,66,0,66,0,0.433744800044,2,Yes,5.8,-1,Correct Rejection,0.63471439993,False,True,stimulusDIAN07_2IFCnew_2019_Jun_13_1720_583,stimulusDIAN07_2IFCnew_2019_Jun_13_1720_584,False,2019_Jun_13_1720,2IFCnew,2,DIAN07,
2IFCnew,67,0,67,0,0.46716,1,No,5.8,-1,Hit,0.63444179995,True,False,stimulusDIAN07_2IFCnew_2019_Jun_13_1720_585,stimulusDIAN07_2IFCnew_2019_Jun_13_1720_586,False,2019_Jun_13_1720,2IFCnew,2,DIAN07,
2IFCnew,68,0,68,0,0.500405000057,3,No,5.8,-1,False Alarm,0.500630900031,False,True,stimulusDIAN07_2IFCnew_2019_Jun_13_1720_587,stimulusDIAN07_2IFCnew_2019_Jun_13_1720_588,False,2019_Jun_13_1720,2IFCnew,2,DIAN07,
2IFCnew,69,0,69,0,0.500245000003,2,Yes,5.8,-1,Correct Rejection,0.56736129988,False,True,stimulusDIAN07_2IFCnew_2019_Jun_13_1720_589,stimulusDIAN07_2IFCnew_2019_Jun_13_1720_590,False,2019_Jun_13_1720,2IFCnew,2,DIAN07,
2IFCnew,70,0,70,0,0.300544499885,3,No,5.8,-1,False Alarm,0.63423299999,False,True,stimulusDIAN07_2IFCnew_2019_Jun_13_1720_591,stimulusDIAN07_2IFCnew_2019_Jun_13_1720_592,False,2019_Jun_13_1720,2IFCnew,2,DIAN07,
2IFCnew,71,0,71,0,0.400119099999,3,No,5.8,-1,False Alarm,0.600929599954,False,True,stimulusDIAN07_2IFCnew_2019_Jun_13_1720_593,stimulusDIAN07_2IFCnew_2019_Jun_13_1720_594,False,2019_Jun_13_1720,2IFCnew,2,DIAN07,
2IFCnew,72,0,72,0,0.499903799966,2,Yes,5.8,-1,Correct Rejection,0.667452000082,False,True,stimulusDIAN07_2IFCnew_2019_Jun_13_1720_595,stimulusDIAN07_2IFCnew_2019_Jun_13_1720_596,False,2019_Jun_13_1720,2IFCnew,2,DIAN07,
2IFCnew,73,0,73,0,-1,2,Yes,5.8,-1,False Alarm,0.734557099873,False,True,stimulusDIAN07_2IFCnew_2019_Jun_13_1720_597,stimulusDIAN07_2IFCnew_2019_Jun_13_1720_598,False,2019_Jun_13_1720,2IFCnew,2,DIAN07,
2IFCnew,74,0,74,0,0.702387499856,1,No,5.8,-1,Hit,0.400941699976,True,False,stimulusDIAN07_2IFCnew_2019_Jun_13_1720_599,stimulusDIAN07_2IFCnew_2019_Jun_13_1720_600,False,2019_Jun_13_1720,2IFCnew,2,DIAN07,
2IFCnew,0,0,0,0,-1,1,No,12.5,-1,Hit,0.600574299926,True,False,stimulusDIAN07_2IFCnew_2019_Jun_13_1720_601,stimulusDIAN07_2IFCnew_2019_Jun_13_1720_602,False,2019_Jun_13_1720,2IFCnew,2,DIAN07,
2IFCnew,1,0,1,0,-1,3,No,12.5,-1,Correct Rejection,0.537194599863,False,True,stimulusDIAN07_2IFCnew_2019_Jun_13_1720_603,stimulusDIAN07_2IFCnew_2019_Jun_13_1720_604,False,2019_Jun_13_1720,2IFCnew,2,DIAN07,
2IFCnew,2,0,2,0,-1,3,No,12.5,-1,Correct Rejection,0.500656200107,False,True,stimulusDIAN07_2IFCnew_2019_Jun_13_1720_605,stimulusDIAN07_2IFCnew_2019_Jun_13_1720_606,False,2019_Jun_13_1720,2IFCnew,2,DIAN07,
2IFCnew,3,0,3,0,-1,1,No,12.5,-1,Hit,0.433962899959,True,False,stimulusDIAN07_2IFCnew_2019_Jun_13_1720_607,stimulusDIAN07_2IFCnew_2019_Jun_13_1720_608,False,2019_Jun_13_1720,2IFCnew,2,DIAN07,
2IFCnew,4,0,4,0,-1,1,No,12.5,-1,Hit,0.466560400091,True,False,stimulusDIAN07_2IFCnew_2019_Jun_13_1720_609,stimulusDIAN07_2IFCnew_2019_Jun_13_1720_610,False,2019_Jun_13_1720,2IFCnew,2,DIAN07,
2IFCnew,5,0,5,0,0.433766300092,2,Yes,12.5,-1,Correct Rejection,0.733981800033,False,True,stimulusDIAN07_2IFCnew_2019_Jun_13_1720_611,stimulusDIAN07_2IFCnew_2019_Jun_13_1720_612,False,2019_Jun_13_1720,2IFCnew,2,DIAN07,
2IFCnew,6,0,6,0,0.334742599865,2,Yes,12.5,-1,Correct Rejection,0.668260300066,False,True,stimulusDIAN07_2IFCnew_2019_Jun_13_1720_613,stimulusDIAN07_2IFCnew_2019_Jun_13_1720_614,False,2019_Jun_13_1720,2IFCnew,2,DIAN07,
2IFCnew,7,0,7,0,0.300567700062,2,Yes,12.5,-1,Correct Rejection,0.567274299916,False,True,stimulusDIAN07_2IFCnew_2019_Jun_13_1720_615,stimulusDIAN07_2IFCnew_2019_Jun_13_1720_616,False,2019_Jun_13_1720,2IFCnew,2,DIAN07,
2IFCnew,8,0,8,0,0.401302600047,1,No,12.5,-1,Hit,0.601053700084,True,False,stimulusDIAN07_2IFCnew_2019_Jun_13_1720_617,stimulusDIAN07_2IFCnew_2019_Jun_13_1720_618,False,2019_Jun_13_1720,2IFCnew,2,DIAN07,
2IFCnew,9,0,9,0,0.468090499984,2,Yes,12.5,-1,Correct Rejection,0.567707100185,False,True,stimulusDIAN07_2IFCnew_2019_Jun_13_1720_619,stimulusDIAN07_2IFCnew_2019_Jun_13_1720_620,False,2019_Jun_13_1720,2IFCnew,2,DIAN07,
2IFCnew,10,0,10,0,0.332700500032,2,Yes,12.5,-1,Correct Rejection,0.466333100107,False,True,stimulusDIAN07_2IFCnew_2019_Jun_13_1720_621,stimulusDIAN07_2IFCnew_2019_Jun_13_1720_622,False,2019_Jun_13_1720,2IFCnew,2,DIAN07,
2IFCnew,11,0,11,0,0.400753000053,2,Yes,12.5,-1,Correct Rejection,0.600787099916,False,True,stimulusDIAN07_2IFCnew_2019_Jun_13_1720_623,stimulusDIAN07_2IFCnew_2019_Jun_13_1720_624,False,2019_Jun_13_1720,2IFCnew,2,DIAN07,
2IFCnew,12,0,12,0,0.234220899874,1,No,12.5,-1,Hit,0.500072800089,True,False,stimulusDIAN07_2IFCnew_2019_Jun_13_1720_625,stimulusDIAN07_2IFCnew_2019_Jun_13_1720_626,False,2019_Jun_13_1720,2IFCnew,2,DIAN07,
2IFCnew,13,0,13,0,0.234440299915,2,Yes,12.5,-1,Correct Rejection,0.535052099964,False,True,stimulusDIAN07_2IFCnew_2019_Jun_13_1720_627,stimulusDIAN07_2IFCnew_2019_Jun_13_1720_628,False,2019_Jun_13_1720,2IFCnew,2,DIAN07,
2IFCnew,14,0,14,0,0.234424700029,2,Yes,12.5,-1,Correct Rejection,0.501520900056,False,True,stimulusDIAN07_2IFCnew_2019_Jun_13_1720_629,stimulusDIAN07_2IFCnew_2019_Jun_13_1720_630,False,2019_Jun_13_1720,2IFCnew,2,DIAN07,
2IFCnew,15,0,15,0,0.469907799968,6,No,12.5,-1,Miss,0.600294600008,True,False,stimulusDIAN07_2IFCnew_2019_Jun_13_1720_631,stimulusDIAN07_2IFCnew_2019_Jun_13_1720_632,False,2019_Jun_13_1720,2IFCnew,2,DIAN07,
2IFCnew,16,0,16,0,0.366980399936,2,Yes,12.5,-1,Correct Rejection,0.800897300011,False,True,stimulusDIAN07_2IFCnew_2019_Jun_13_1720_633,stimulusDIAN07_2IFCnew_2019_Jun_13_1720_634,False,2019_Jun_13_1720,2IFCnew,2,DIAN07,
2IFCnew,17,0,17,0,0.0674640000798,1,No,12.5,-1,Hit,0.569143499946,True,False,stimulusDIAN07_2IFCnew_2019_Jun_13_1720_635,stimulusDIAN07_2IFCnew_2019_Jun_13_1720_636,False,2019_Jun_13_1720,2IFCnew,2,DIAN07,
2IFCnew,18,0,18,0,0.266587000107,2,Yes,12.5,-1,Correct Rejection,0.53285219986,False,True,stimulusDIAN07_2IFCnew_2019_Jun_13_1720_637,stimulusDIAN07_2IFCnew_2019_Jun_13_1720_638,False,2019_Jun_13_1720,2IFCnew,2,DIAN07,
2IFCnew,19,0,19,0,0.333109499887,2,Yes,12.5,-1,Correct Rejection,0.665913499892,False,True,stimulusDIAN07_2IFCnew_2019_Jun_13_1720_639,stimulusDIAN07_2IFCnew_2019_Jun_13_1720_640,False,2019_Jun_13_1720,2IFCnew,2,DIAN07,
2IFCnew,20,0,20,0,0.26696950011,2,Yes,12.5,-1,Correct Rejection,0.601528699975,False,True,stimulusDIAN07_2IFCnew_2019_Jun_13_1720_641,stimulusDIAN07_2IFCnew_2019_Jun_13_1720_642,False,2019_Jun_13_1720,2IFCnew,2,DIAN07,
2IFCnew,21,0,21,0,-1,1,Yes,12.5,-1,Hit,0.400323100155,True,False,stimulusDIAN07_2IFCnew_2019_Jun_13_1720_643,stimulusDIAN07_2IFCnew_2019_Jun_13_1720_644,False,2019_Jun_13_1720,2IFCnew,2,DIAN07,
2IFCnew,22,0,22,0,0.267128000036,2,Yes,12.5,-1,Correct Rejection,0.467676099855,False,True,stimulusDIAN07_2IFCnew_2019_Jun_13_1720_645,stimulusDIAN07_2IFCnew_2019_Jun_13_1720_646,False,2019_Jun_13_1720,2IFCnew,2,DIAN07,
2IFCnew,23,0,23,0,0.298891399987,2,Yes,12.5,-1,Correct Rejection,0.467343100114,False,True,stimulusDIAN07_2IFCnew_2019_Jun_13_1720_647,stimulusDIAN07_2IFCnew_2019_Jun_13_1720_648,False,2019_Jun_13_1720,2IFCnew,2,DIAN07,
2IFCnew,24,0,24,0,0.268811500166,2,Yes,12.5,-1,Correct Rejection,0.533856700175,False,True,stimulusDIAN07_2IFCnew_2019_Jun_13_1720_649,stimulusDIAN07_2IFCnew_2019_Jun_13_1720_650,False,2019_Jun_13_1720,2IFCnew,2,DIAN07,
2IFCnew,25,0,25,0,0.667291400023,6,No,12.5,-1,Miss,0.498614300042,True,False,stimulusDIAN07_2IFCnew_2019_Jun_13_1720_651,stimulusDIAN07_2IFCnew_2019_Jun_13_1720_652,False,2019_Jun_13_1720,2IFCnew,2,DIAN07,
2IFCnew,26,0,26,0,0.467576100025,1,No,12.5,-1,Hit,0.500863399822,True,False,stimulusDIAN07_2IFCnew_2019_Jun_13_1720_653,stimulusDIAN07_2IFCnew_2019_Jun_13_1720_654,False,2019_Jun_13_1720,2IFCnew,2,DIAN07,
2IFCnew,27,0,27,0,0.366075200029,1,No,12.5,-1,Hit,0.633998600068,True,False,stimulusDIAN07_2IFCnew_2019_Jun_13_1720_655,stimulusDIAN07_2IFCnew_2019_Jun_13_1720_656,False,2019_Jun_13_1720,2IFCnew,2,DIAN07,
2IFCnew,28,0,28,0,0.267709499924,2,Yes,12.5,-1,Correct Rejection,0.567289700033,False,True,stimulusDIAN07_2IFCnew_2019_Jun_13_1720_657,stimulusDIAN07_2IFCnew_2019_Jun_13_1720_658,False,2019_Jun_13_1720,2IFCnew,2,DIAN07,
2IFCnew,29,0,29,0,0.0672598001547,1,No,12.5,-1,Hit,0.402001299895,True,False,stimulusDIAN07_2IFCnew_2019_Jun_13_1720_659,stimulusDIAN07_2IFCnew_2019_Jun_13_1720_660,False,2019_Jun_13_1720,2IFCnew,2,DIAN07,
2IFCnew,30,0,30,0,0.801028599963,5,Yes,12.5,-1,False Alarm,0.667863199953,False,True,stimulusDIAN07_2IFCnew_2019_Jun_13_1720_661,stimulusDIAN07_2IFCnew_2019_Jun_13_1720_662,False,2019_Jun_13_1720,2IFCnew,2,DIAN07,
2IFCnew,31,0,31,0,0.469037600094,2,Yes,12.5,-1,Correct Rejection,0.499969600001,False,True,stimulusDIAN07_2IFCnew_2019_Jun_13_1720_663,stimulusDIAN07_2IFCnew_2019_Jun_13_1720_664,False,2019_Jun_13_1720,2IFCnew,2,DIAN07,
2IFCnew,32,0,32,0,0.367917400086,3,No,12.5,-1,False Alarm,0.667455500225,False,True,stimulusDIAN07_2IFCnew_2019_Jun_13_1720_665,stimulusDIAN07_2IFCnew_2019_Jun_13_1720_666,False,2019_Jun_13_1720,2IFCnew,2,DIAN07,
2IFCnew,33,0,33,0,0.467289600056,1,No,12.5,-1,Hit,0.834471700015,True,False,stimulusDIAN07_2IFCnew_2019_Jun_13_1720_667,stimulusDIAN07_2IFCnew_2019_Jun_13_1720_668,False,2019_Jun_13_1720,2IFCnew,2,DIAN07,
2IFCnew,34,0,34,0,0.032233200036,1,No,12.5,-1,Hit,0.433008500142,True,False,stimulusDIAN07_2IFCnew_2019_Jun_13_1720_669,stimulusDIAN07_2IFCnew_2019_Jun_13_1720_670,False,2019_Jun_13_1720,2IFCnew,2,DIAN07,
2IFCnew,35,0,35,0,0.23382110009,2,Yes,12.5,-1,Correct Rejection,0.501017099945,False,True,stimulusDIAN07_2IFCnew_2019_Jun_13_1720_671,stimulusDIAN07_2IFCnew_2019_Jun_13_1720_672,False,2019_Jun_13_1720,2IFCnew,2,DIAN07,
2IFCnew,36,0,36,0,0.301814599894,2,Yes,12.5,-1,Correct Rejection,0.667564200005,False,True,stimulusDIAN07_2IFCnew_2019_Jun_13_1720_673,stimulusDIAN07_2IFCnew_2019_Jun_13_1720_674,False,2019_Jun_13_1720,2IFCnew,2,DIAN07,
2IFCnew,37,0,37,0,0.334665299859,4,Yes,12.5,-1,Miss,0.634359800024,True,False,stimulusDIAN07_2IFCnew_2019_Jun_13_1720_675,stimulusDIAN07_2IFCnew_2019_Jun_13_1720_676,False,2019_Jun_13_1720,2IFCnew,2,DIAN07,
2IFCnew,38,0,38,0,0.332842099946,2,Yes,12.5,-1,Correct Rejection,0.535023099976,False,True,stimulusDIAN07_2IFCnew_2019_Jun_13_1720_677,stimulusDIAN07_2IFCnew_2019_Jun_13_1720_678,False,2019_Jun_13_1720,2IFCnew,2,DIAN07,
2IFCnew,39,0,39,0,0.300235000206,1,No,12.5,-1,Hit,0.702123600058,True,False,stimulusDIAN07_2IFCnew_2019_Jun_13_1720_679,stimulusDIAN07_2IFCnew_2019_Jun_13_1720_680,False,2019_Jun_13_1720,2IFCnew,2,DIAN07,
2IFCnew,40,0,40,0,0.200504699955,2,Yes,12.5,-1,Correct Rejection,0.534258200089,False,True,stimulusDIAN07_2IFCnew_2019_Jun_13_1720_681,stimulusDIAN07_2IFCnew_2019_Jun_13_1720_682,False,2019_Jun_13_1720,2IFCnew,2,DIAN07,
2IFCnew,41,0,41,0,0.133972300217,2,Yes,12.5,-1,Correct Rejection,0.567499500001,False,True,stimulusDIAN07_2IFCnew_2019_Jun_13_1720_683,stimulusDIAN07_2IFCnew_2019_Jun_13_1720_684,False,2019_Jun_13_1720,2IFCnew,2,DIAN07,
2IFCnew,42,0,42,0,0.133938400075,2,Yes,12.5,-1,Correct Rejection,0.634097399889,False,True,stimulusDIAN07_2IFCnew_2019_Jun_13_1720_685,stimulusDIAN07_2IFCnew_2019_Jun_13_1720_686,False,2019_Jun_13_1720,2IFCnew,2,DIAN07,
2IFCnew,43,0,43,0,0.333312800154,2,Yes,12.5,-1,Correct Rejection,0.63415879989,False,True,stimulusDIAN07_2IFCnew_2019_Jun_13_1720_687,stimulusDIAN07_2IFCnew_2019_Jun_13_1720_688,False,2019_Jun_13_1720,2IFCnew,2,DIAN07,
2IFCnew,44,0,44,0,0.300227500033,2,Yes,12.5,-1,Correct Rejection,0.734813699964,False,True,stimulusDIAN07_2IFCnew_2019_Jun_13_1720_689,stimulusDIAN07_2IFCnew_2019_Jun_13_1720_690,False,2019_Jun_13_1720,2IFCnew,2,DIAN07,
2IFCnew,45,0,45,0,0.432117100107,6,No,12.5,-1,Miss,0.601650499972,True,False,stimulusDIAN07_2IFCnew_2019_Jun_13_1720_691,stimulusDIAN07_2IFCnew_2019_Jun_13_1720_692,False,2019_Jun_13_1720,2IFCnew,2,DIAN07,
2IFCnew,46,0,46,0,0.232044399949,2,Yes,12.5,-1,Correct Rejection,0.500460600015,False,True,stimulusDIAN07_2IFCnew_2019_Jun_13_1720_693,stimulusDIAN07_2IFCnew_2019_Jun_13_1720_694,False,2019_Jun_13_1720,2IFCnew,2,DIAN07,
2IFCnew,47,0,47,0,0.267533600098,2,Yes,12.5,-1,Correct Rejection,0.568615500117,False,True,stimulusDIAN07_2IFCnew_2019_Jun_13_1720_695,stimulusDIAN07_2IFCnew_2019_Jun_13_1720_696,False,2019_Jun_13_1720,2IFCnew,2,DIAN07,
2IFCnew,48,0,48,0,0.233712899964,2,Yes,12.5,-1,Correct Rejection,0.566709499806,False,True,stimulusDIAN07_2IFCnew_2019_Jun_13_1720_697,stimulusDIAN07_2IFCnew_2019_Jun_13_1720_698,False,2019_Jun_13_1720,2IFCnew,2,DIAN07,
2IFCnew,49,0,49,0,0.300509199966,1,No,12.5,-1,Hit,0.701824899996,True,False,stimulusDIAN07_2IFCnew_2019_Jun_13_1720_699,stimulusDIAN07_2IFCnew_2019_Jun_13_1720_700,False,2019_Jun_13_1720,2IFCnew,2,DIAN07,
2IFCnew,50,0,50,0,0.267351199873,1,No,12.5,-1,Hit,0.667015300132,True,False,stimulusDIAN07_2IFCnew_2019_Jun_13_1720_701,stimulusDIAN07_2IFCnew_2019_Jun_13_1720_702,False,2019_Jun_13_1720,2IFCnew,2,DIAN07,
2IFCnew,51,0,51,0,0.0670072000939,1,No,12.5,-1,Hit,0.466943300096,True,False,stimulusDIAN07_2IFCnew_2019_Jun_13_1720_703,stimulusDIAN07_2IFCnew_2019_Jun_13_1720_704,False,2019_Jun_13_1720,2IFCnew,2,DIAN07,
2IFCnew,52,0,52,0,0.267213599989,1,No,12.5,-1,Hit,0.601361200213,True,False,stimulusDIAN07_2IFCnew_2019_Jun_13_1720_705,stimulusDIAN07_2IFCnew_2019_Jun_13_1720_706,False,2019_Jun_13_1720,2IFCnew,2,DIAN07,
2IFCnew,53,0,53,0,-1,1,No,12.5,-1,Hit,0.46564199985,True,False,stimulusDIAN07_2IFCnew_2019_Jun_13_1720_707,stimulusDIAN07_2IFCnew_2019_Jun_13_1720_708,False,2019_Jun_13_1720,2IFCnew,2,DIAN07,
2IFCnew,54,0,54,0,0.299861299805,2,Yes,12.5,-1,Correct Rejection,0.668635800015,False,True,stimulusDIAN07_2IFCnew_2019_Jun_13_1720_709,stimulusDIAN07_2IFCnew_2019_Jun_13_1720_710,False,2019_Jun_13_1720,2IFCnew,2,DIAN07,
2IFCnew,55,0,55,0,0.267859499902,3,No,12.5,-1,False Alarm,0.46725560003,False,True,stimulusDIAN07_2IFCnew_2019_Jun_13_1720_711,stimulusDIAN07_2IFCnew_2019_Jun_13_1720_712,False,2019_Jun_13_1720,2IFCnew,2,DIAN07,
2IFCnew,56,0,56,0,0.235025700182,1,No,12.5,-1,Hit,0.567477900069,True,False,stimulusDIAN07_2IFCnew_2019_Jun_13_1720_713,stimulusDIAN07_2IFCnew_2019_Jun_13_1720_714,False,2019_Jun_13_1720,2IFCnew,2,DIAN07,
2IFCnew,57,0,57,0,0.600334499963,5,Yes,12.5,-1,False Alarm,0.533721599961,False,True,stimulusDIAN07_2IFCnew_2019_Jun_13_1720_715,stimulusDIAN07_2IFCnew_2019_Jun_13_1720_716,False,2019_Jun_13_1720,2IFCnew,2,DIAN07,
2IFCnew,58,0,58,0,0.367608800065,2,Yes,12.5,-1,Correct Rejection,0.568517500069,False,True,stimulusDIAN07_2IFCnew_2019_Jun_13_1720_717,stimulusDIAN07_2IFCnew_2019_Jun_13_1720_718,False,2019_Jun_13_1720,2IFCnew,2,DIAN07,
2IFCnew,59,0,59,0,0.300717299804,2,Yes,12.5,-1,Correct Rejection,0.501265399856,False,True,stimulusDIAN07_2IFCnew_2019_Jun_13_1720_719,stimulusDIAN07_2IFCnew_2019_Jun_13_1720_720,False,2019_Jun_13_1720,2IFCnew,2,DIAN07,
2IFCnew,60,0,60,0,0.33350050007,2,Yes,12.5,-1,Correct Rejection,0.534253499936,False,True,stimulusDIAN07_2IFCnew_2019_Jun_13_1720_721,stimulusDIAN07_2IFCnew_2019_Jun_13_1720_722,False,2019_Jun_13_1720,2IFCnew,2,DIAN07,
2IFCnew,61,0,61,0,0.433980799979,2,Yes,12.5,-1,Correct Rejection,0.567533599911,False,True,stimulusDIAN07_2IFCnew_2019_Jun_13_1720_723,stimulusDIAN07_2IFCnew_2019_Jun_13_1720_724,False,2019_Jun_13_1720,2IFCnew,2,DIAN07,
2IFCnew,62,0,62,0,0.0666382999625,2,Yes,12.5,-1,Correct Rejection,0.500440499978,False,True,stimulusDIAN07_2IFCnew_2019_Jun_13_1720_725,stimulusDIAN07_2IFCnew_2019_Jun_13_1720_726,False,2019_Jun_13_1720,2IFCnew,2,DIAN07,
2IFCnew,63,0,63,0,0.0668669999577,1,No,12.5,-1,Hit,0.467262899969,True,False,stimulusDIAN07_2IFCnew_2019_Jun_13_1720_727,stimulusDIAN07_2IFCnew_2019_Jun_13_1720_728,False,2019_Jun_13_1720,2IFCnew,2,DIAN07,
2IFCnew,64,0,64,0,0.23307499988,2,Yes,12.5,-1,Correct Rejection,0.667200800031,False,True,stimulusDIAN07_2IFCnew_2019_Jun_13_1720_729,stimulusDIAN07_2IFCnew_2019_Jun_13_1720_730,False,2019_Jun_13_1720,2IFCnew,2,DIAN07,
2IFCnew,65,0,65,0,0.233210099861,2,Yes,12.5,-1,Correct Rejection,0.567376800114,False,True,stimulusDIAN07_2IFCnew_2019_Jun_13_1720_731,stimulusDIAN07_2IFCnew_2019_Jun_13_1720_732,False,2019_Jun_13_1720,2IFCnew,2,DIAN07,
2IFCnew,66,0,66,0,0.433917399962,1,No,12.5,-1,Hit,0.601619299967,True,False,stimulusDIAN07_2IFCnew_2019_Jun_13_1720_733,stimulusDIAN07_2IFCnew_2019_Jun_13_1720_734,False,2019_Jun_13_1720,2IFCnew,2,DIAN07,
2IFCnew,67,0,67,0,0.333905100124,2,Yes,12.5,-1,Correct Rejection,0.566453699954,False,True,stimulusDIAN07_2IFCnew_2019_Jun_13_1720_735,stimulusDIAN07_2IFCnew_2019_Jun_13_1720_736,False,2019_Jun_13_1720,2IFCnew,2,DIAN07,
2IFCnew,68,0,68,0,0.267355800141,1,No,12.5,-1,Hit,0.467193099903,True,False,stimulusDIAN07_2IFCnew_2019_Jun_13_1720_737,stimulusDIAN07_2IFCnew_2019_Jun_13_1720_738,False,2019_Jun_13_1720,2IFCnew,2,DIAN07,
2IFCnew,69,0,69,0,0.333923500031,3,No,12.5,-1,False Alarm,0.601247699931,False,True,stimulusDIAN07_2IFCnew_2019_Jun_13_1720_739,stimulusDIAN07_2IFCnew_2019_Jun_13_1720_740,False,2019_Jun_13_1720,2IFCnew,2,DIAN07,
2IFCnew,70,0,70,0,0.333256900078,2,Yes,12.5,-1,Correct Rejection,0.53284310014,False,True,stimulusDIAN07_2IFCnew_2019_Jun_13_1720_741,stimulusDIAN07_2IFCnew_2019_Jun_13_1720_742,False,2019_Jun_13_1720,2IFCnew,2,DIAN07,
2IFCnew,71,0,71,0,0.300357399974,2,Yes,12.5,-1,Correct Rejection,0.500968000153,False,True,stimulusDIAN07_2IFCnew_2019_Jun_13_1720_743,stimulusDIAN07_2IFCnew_2019_Jun_13_1720_744,False,2019_Jun_13_1720,2IFCnew,2,DIAN07,
2IFCnew,72,0,72,0,0.166928999824,2,Yes,12.5,-1,Correct Rejection,0.533719899831,False,True,stimulusDIAN07_2IFCnew_2019_Jun_13_1720_745,stimulusDIAN07_2IFCnew_2019_Jun_13_1720_746,False,2019_Jun_13_1720,2IFCnew,2,DIAN07,
2IFCnew,73,0,73,0,0.236053399974,2,Yes,12.5,-1,Correct Rejection,0.500552000012,False,True,stimulusDIAN07_2IFCnew_2019_Jun_13_1720_747,stimulusDIAN07_2IFCnew_2019_Jun_13_1720_748,False,2019_Jun_13_1720,2IFCnew,2,DIAN07,
2IFCnew,74,0,74,0,0.267127499916,2,Yes,12.5,-1,Correct Rejection,0.701953199925,False,True,stimulusDIAN07_2IFCnew_2019_Jun_13_1720_749,stimulusDIAN07_2IFCnew_2019_Jun_13_1720_750,False,2019_Jun_13_1720,2IFCnew,2,DIAN07,
2IFCnew,0,0,0,0,0.334687000141,1,No,9.8,-1,Hit,0.534638399957,True,False,stimulusDIAN07_2IFCnew_2019_Jun_13_1720_751,stimulusDIAN07_2IFCnew_2019_Jun_13_1720_752,False,2019_Jun_13_1720,2IFCnew,2,DIAN07,
2IFCnew,1,0,1,0,0.366919199936,6,No,9.8,-1,Miss,0.533536500065,True,False,stimulusDIAN07_2IFCnew_2019_Jun_13_1720_753,stimulusDIAN07_2IFCnew_2019_Jun_13_1720_754,False,2019_Jun_13_1720,2IFCnew,2,DIAN07,
2IFCnew,2,0,2,0,0.233248699922,2,Yes,9.8,-1,Correct Rejection,0.53282610001,False,True,stimulusDIAN07_2IFCnew_2019_Jun_13_1720_755,stimulusDIAN07_2IFCnew_2019_Jun_13_1720_756,False,2019_Jun_13_1720,2IFCnew,2,DIAN07,
2IFCnew,3,0,3,0,0.267528700177,4,Yes,9.8,-1,Miss,0.534110500012,True,False,stimulusDIAN07_2IFCnew_2019_Jun_13_1720_757,stimulusDIAN07_2IFCnew_2019_Jun_13_1720_758,False,2019_Jun_13_1720,2IFCnew,2,DIAN07,
2IFCnew,4,0,4,0,0.266635299893,1,No,9.8,-1,Hit,0.433361100033,True,False,stimulusDIAN07_2IFCnew_2019_Jun_13_1720_759,stimulusDIAN07_2IFCnew_2019_Jun_13_1720_760,False,2019_Jun_13_1720,2IFCnew,2,DIAN07,
2IFCnew,5,0,5,0,0.333925500046,5,Yes,9.8,-1,False Alarm,0.468100300059,False,True,stimulusDIAN07_2IFCnew_2019_Jun_13_1720_761,stimulusDIAN07_2IFCnew_2019_Jun_13_1720_762,False,2019_Jun_13_1720,2IFCnew,2,DIAN07,
2IFCnew,6,0,6,0,0.333615800133,1,No,9.8,-1,Hit,0.534122300101,True,False,stimulusDIAN07_2IFCnew_2019_Jun_13_1720_763,stimulusDIAN07_2IFCnew_2019_Jun_13_1720_764,False,2019_Jun_13_1720,2IFCnew,2,DIAN07,
2IFCnew,7,0,7,0,0.800992700038,1,No,9.8,-1,Hit,0.50082299998,True,False,stimulusDIAN07_2IFCnew_2019_Jun_13_1720_765,stimulusDIAN07_2IFCnew_2019_Jun_13_1720_766,False,2019_Jun_13_1720,2IFCnew,2,DIAN07,
2IFCnew,8,0,8,0,0.567596300039,2,Yes,9.8,-1,Correct Rejection,0.567181099905,False,True,stimulusDIAN07_2IFCnew_2019_Jun_13_1720_767,stimulusDIAN07_2IFCnew_2019_Jun_13_1720_768,False,2019_Jun_13_1720,2IFCnew,2,DIAN07,
2IFCnew,9,0,9,0,0.267046499997,3,No,9.8,-1,False Alarm,0.467288900167,False,True,stimulusDIAN07_2IFCnew_2019_Jun_13_1720_769,stimulusDIAN07_2IFCnew_2019_Jun_13_1720_770,False,2019_Jun_13_1720,2IFCnew,2,DIAN07,
2IFCnew,10,0,10,0,0.433772699907,2,Yes,9.8,-1,Correct Rejection,0.701010900084,False,True,stimulusDIAN07_2IFCnew_2019_Jun_13_1720_771,stimulusDIAN07_2IFCnew_2019_Jun_13_1720_772,False,2019_Jun_13_1720,2IFCnew,2,DIAN07,
2IFCnew,11,0,11,0,0.334348100005,1,No,9.8,-1,Hit,0.601381599903,True,False,stimulusDIAN07_2IFCnew_2019_Jun_13_1720_773,stimulusDIAN07_2IFCnew_2019_Jun_13_1720_774,False,2019_Jun_13_1720,2IFCnew,2,DIAN07,
2IFCnew,12,0,12,0,0.400311199948,5,Yes,9.8,-1,False Alarm,0.401376100024,False,True,stimulusDIAN07_2IFCnew_2019_Jun_13_1720_775,stimulusDIAN07_2IFCnew_2019_Jun_13_1720_776,False,2019_Jun_13_1720,2IFCnew,2,DIAN07,
2IFCnew,13,0,13,0,0.299777900102,1,No,9.8,-1,Hit,0.434641999891,True,False,stimulusDIAN07_2IFCnew_2019_Jun_13_1720_777,stimulusDIAN07_2IFCnew_2019_Jun_13_1720_778,False,2019_Jun_13_1720,2IFCnew,2,DIAN07,
2IFCnew,14,0,14,0,0.434520799899,1,No,9.8,-1,Hit,0.566589000169,True,False,stimulusDIAN07_2IFCnew_2019_Jun_13_1720_779,stimulusDIAN07_2IFCnew_2019_Jun_13_1720_780,False,2019_Jun_13_1720,2IFCnew,2,DIAN07,
2IFCnew,15,0,15,0,0.268143800087,1,No,9.8,-1,Hit,0.433274999959,True,False,stimulusDIAN07_2IFCnew_2019_Jun_13_1720_781,stimulusDIAN07_2IFCnew_2019_Jun_13_1720_782,False,2019_Jun_13_1720,2IFCnew,2,DIAN07,
2IFCnew,16,0,16,0,0.434132300084,3,No,9.8,-1,False Alarm,0.533537100069,False,True,stimulusDIAN07_2IFCnew_2019_Jun_13_1720_783,stimulusDIAN07_2IFCnew_2019_Jun_13_1720_784,False,2019_Jun_13_1720,2IFCnew,2,DIAN07,
2IFCnew,17,0,17,0,0.166796300095,1,No,9.8,-1,Hit,0.400736399926,True,False,stimulusDIAN07_2IFCnew_2019_Jun_13_1720_785,stimulusDIAN07_2IFCnew_2019_Jun_13_1720_786,False,2019_Jun_13_1720,2IFCnew,2,DIAN07,
2IFCnew,18,0,18,0,0.0668642001692,1,No,9.8,-1,Hit,0.400722099934,True,False,stimulusDIAN07_2IFCnew_2019_Jun_13_1720_787,stimulusDIAN07_2IFCnew_2019_Jun_13_1720_788,False,2019_Jun_13_1720,2IFCnew,2,DIAN07,
2IFCnew,19,0,19,0,0.133688299917,1,No,9.8,-1,Hit,0.399946399964,True,False,stimulusDIAN07_2IFCnew_2019_Jun_13_1720_789,stimulusDIAN07_2IFCnew_2019_Jun_13_1720_790,False,2019_Jun_13_1720,2IFCnew,2,DIAN07,
2IFCnew,20,0,20,0,0.300222299993,1,No,9.8,-1,Hit,0.469061800046,True,False,stimulusDIAN07_2IFCnew_2019_Jun_13_1720_791,stimulusDIAN07_2IFCnew_2019_Jun_13_1720_792,False,2019_Jun_13_1720,2IFCnew,2,DIAN07,
2IFCnew,21,0,21,0,0.267034099903,3,No,9.8,-1,False Alarm,0.400560799986,False,True,stimulusDIAN07_2IFCnew_2019_Jun_13_1720_793,stimulusDIAN07_2IFCnew_2019_Jun_13_1720_794,False,2019_Jun_13_1720,2IFCnew,2,DIAN07,
2IFCnew,22,0,22,0,0.263452899875,1,No,9.8,-1,Hit,0.367359500146,True,False,stimulusDIAN07_2IFCnew_2019_Jun_13_1720_795,stimulusDIAN07_2IFCnew_2019_Jun_13_1720_796,False,2019_Jun_13_1720,2IFCnew,2,DIAN07,
2IFCnew,23,0,23,0,0.267514200183,1,No,9.8,-1,Hit,0.333469699835,True,False,stimulusDIAN07_2IFCnew_2019_Jun_13_1720_797,stimulusDIAN07_2IFCnew_2019_Jun_13_1720_798,False,2019_Jun_13_1720,2IFCnew,2,DIAN07,
2IFCnew,24,0,24,0,0.500715199858,5,Yes,9.8,-1,False Alarm,0.302163999993,False,True,stimulusDIAN07_2IFCnew_2019_Jun_13_1720_799,stimulusDIAN07_2IFCnew_2019_Jun_13_1720_800,False,2019_Jun_13_1720,2IFCnew,2,DIAN07,
2IFCnew,25,0,25,0,0.534259799868,1,No,9.8,-1,Hit,0.468814400025,True,False,stimulusDIAN07_2IFCnew_2019_Jun_13_1720_801,stimulusDIAN07_2IFCnew_2019_Jun_13_1720_802,False,2019_Jun_13_1720,2IFCnew,2,DIAN07,
2IFCnew,26,0,26,0,0.700630599866,7,Yes,9.8,-1,Hit,0.404279400129,True,False,stimulusDIAN07_2IFCnew_2019_Jun_13_1720_803,stimulusDIAN07_2IFCnew_2019_Jun_13_1720_804,False,2019_Jun_13_1720,2IFCnew,2,DIAN07,
2IFCnew,27,0,27,0,0.467134300154,2,Yes,9.8,-1,Correct Rejection,0.534456699854,False,True,stimulusDIAN07_2IFCnew_2019_Jun_13_1720_805,stimulusDIAN07_2IFCnew_2019_Jun_13_1720_806,False,2019_Jun_13_1720,2IFCnew,2,DIAN07,
2IFCnew,28,0,28,0,0.434210099978,2,Yes,9.8,-1,Correct Rejection,0.567582200048,False,True,stimulusDIAN07_2IFCnew_2019_Jun_13_1720_807,stimulusDIAN07_2IFCnew_2019_Jun_13_1720_808,False,2019_Jun_13_1720,2IFCnew,2,DIAN07,
2IFCnew,29,0,29,0,0.500352200121,1,No,9.8,-1,Hit,0.468645300018,True,False,stimulusDIAN07_2IFCnew_2019_Jun_13_1720_809,stimulusDIAN07_2IFCnew_2019_Jun_13_1720_810,False,2019_Jun_13_1720,2IFCnew,2,DIAN07,
2IFCnew,30,0,30,0,0.63408540003,6,No,9.8,-1,Miss,0.567122499924,True,False,stimulusDIAN07_2IFCnew_2019_Jun_13_1720_811,stimulusDIAN07_2IFCnew_2019_Jun_13_1720_812,False,2019_Jun_13_1720,2IFCnew,2,DIAN07,
2IFCnew,31,0,31,0,0.633733200142,3,No,9.8,-1,False Alarm,0.835373499896,False,True,stimulusDIAN07_2IFCnew_2019_Jun_13_1720_813,stimulusDIAN07_2IFCnew_2019_Jun_13_1720_814,False,2019_Jun_13_1720,2IFCnew,2,DIAN07,
2IFCnew,32,0,32,0,0.400684599997,2,Yes,9.8,-1,Correct Rejection,0.500096300151,False,True,stimulusDIAN07_2IFCnew_2019_Jun_13_1720_815,stimulusDIAN07_2IFCnew_2019_Jun_13_1720_816,False,2019_Jun_13_1720,2IFCnew,2,DIAN07,
2IFCnew,33,0,33,0,0.50043549994,1,No,9.8,-1,Hit,0.534309600014,True,False,stimulusDIAN07_2IFCnew_2019_Jun_13_1720_817,stimulusDIAN07_2IFCnew_2019_Jun_13_1720_818,False,2019_Jun_13_1720,2IFCnew,2,DIAN07,
2IFCnew,34,0,34,0,0.467895600013,3,No,9.8,-1,False Alarm,0.734470700147,False,True,stimulusDIAN07_2IFCnew_2019_Jun_13_1720_819,stimulusDIAN07_2IFCnew_2019_Jun_13_1720_820,False,2019_Jun_13_1720,2IFCnew,2,DIAN07,
2IFCnew,35,0,35,0,0.466875300044,3,No,9.8,-1,False Alarm,0.501986799994,False,True,stimulusDIAN07_2IFCnew_2019_Jun_13_1720_821,stimulusDIAN07_2IFCnew_2019_Jun_13_1720_822,False,2019_Jun_13_1720,2IFCnew,2,DIAN07,
2IFCnew,36,0,36,0,0.767244999995,5,Yes,9.8,-1,False Alarm,0.434744999977,False,True,stimulusDIAN07_2IFCnew_2019_Jun_13_1720_823,stimulusDIAN07_2IFCnew_2019_Jun_13_1720_824,False,2019_Jun_13_1720,2IFCnew,2,DIAN07,
2IFCnew,37,0,37,0,0.367940499913,2,Yes,9.8,-1,Correct Rejection,0.533607100137,False,True,stimulusDIAN07_2IFCnew_2019_Jun_13_1720_825,stimulusDIAN07_2IFCnew_2019_Jun_13_1720_826,False,2019_Jun_13_1720,2IFCnew,2,DIAN07,
2IFCnew,38,0,38,0,0.367661800003,1,No,9.8,-1,Hit,0.500549599994,True,False,stimulusDIAN07_2IFCnew_2019_Jun_13_1720_827,stimulusDIAN07_2IFCnew_2019_Jun_13_1720_828,False,2019_Jun_13_1720,2IFCnew,2,DIAN07,
2IFCnew,39,0,39,0,0.70015950012,3,No,9.8,-1,False Alarm,0.437434700085,False,True,stimulusDIAN07_2IFCnew_2019_Jun_13_1720_829,stimulusDIAN07_2IFCnew_2019_Jun_13_1720_830,False,2019_Jun_13_1720,2IFCnew,2,DIAN07,
2IFCnew,40,0,40,0,0.533602199983,1,No,9.8,-1,Hit,0.468157300027,True,False,stimulusDIAN07_2IFCnew_2019_Jun_13_1720_831,stimulusDIAN07_2IFCnew_2019_Jun_13_1720_832,False,2019_Jun_13_1720,2IFCnew,2,DIAN07,
2IFCnew,41,0,41,0,0.567696999991,5,Yes,9.8,-1,False Alarm,0.468178499956,False,True,stimulusDIAN07_2IFCnew_2019_Jun_13_1720_833,stimulusDIAN07_2IFCnew_2019_Jun_13_1720_834,False,2019_Jun_13_1720,2IFCnew,2,DIAN07,
2IFCnew,42,0,42,0,0.467099700123,1,No,9.8,-1,Hit,0.537434100173,True,False,stimulusDIAN07_2IFCnew_2019_Jun_13_1720_835,stimulusDIAN07_2IFCnew_2019_Jun_13_1720_836,False,2019_Jun_13_1720,2IFCnew,2,DIAN07,
2IFCnew,43,0,43,0,0.501832100097,2,Yes,9.8,-1,Correct Rejection,0.535231200047,False,True,stimulusDIAN07_2IFCnew_2019_Jun_13_1720_837,stimulusDIAN07_2IFCnew_2019_Jun_13_1720_838,False,2019_Jun_13_1720,2IFCnew,2,DIAN07,
2IFCnew,44,0,44,0,0.399475600105,5,Yes,9.8,-1,False Alarm,0.501747600036,False,True,stimulusDIAN07_2IFCnew_2019_Jun_13_1720_839,stimulusDIAN07_2IFCnew_2019_Jun_13_1720_840,False,2019_Jun_13_1720,2IFCnew,2,DIAN07,
2IFCnew,45,0,45,0,0.500736300135,4,Yes,9.8,-1,Miss,0.800779799931,True,False,stimulusDIAN07_2IFCnew_2019_Jun_13_1720_841,stimulusDIAN07_2IFCnew_2019_Jun_13_1720_842,False,2019_Jun_13_1720,2IFCnew,2,DIAN07,
2IFCnew,46,0,46,0,0.366403999971,2,Yes,9.8,-1,Correct Rejection,0.667251100065,False,True,stimulusDIAN07_2IFCnew_2019_Jun_13_1720_843,stimulusDIAN07_2IFCnew_2019_Jun_13_1720_844,False,2019_Jun_13_1720,2IFCnew,2,DIAN07,
2IFCnew,47,0,47,0,0.300438799895,2,Yes,9.8,-1,Correct Rejection,0.600547499955,False,True,stimulusDIAN07_2IFCnew_2019_Jun_13_1720_845,stimulusDIAN07_2IFCnew_2019_Jun_13_1720_846,False,2019_Jun_13_1720,2IFCnew,2,DIAN07,
2IFCnew,48,0,48,0,0.468564399984,2,Yes,9.8,-1,Correct Rejection,0.633401599946,False,True,stimulusDIAN07_2IFCnew_2019_Jun_13_1720_847,stimulusDIAN07_2IFCnew_2019_Jun_13_1720_848,False,2019_Jun_13_1720,2IFCnew,2,DIAN07,
2IFCnew,49,0,49,0,0.733873399906,7,Yes,9.8,-1,Hit,0.534210199956,True,False,stimulusDIAN07_2IFCnew_2019_Jun_13_1720_849,stimulusDIAN07_2IFCnew_2019_Jun_13_1720_850,False,2019_Jun_13_1720,2IFCnew,2,DIAN07,
2IFCnew,50,0,50,0,0.467366599943,2,Yes,9.8,-1,Correct Rejection,0.600521000102,False,True,stimulusDIAN07_2IFCnew_2019_Jun_13_1720_851,stimulusDIAN07_2IFCnew_2019_Jun_13_1720_852,False,2019_Jun_13_1720,2IFCnew,2,DIAN07,
2IFCnew,51,0,51,0,-1,2,Yes,9.8,-1,False Alarm,0.767486999976,False,True,stimulusDIAN07_2IFCnew_2019_Jun_13_1720_853,stimulusDIAN07_2IFCnew_2019_Jun_13_1720_854,False,2019_Jun_13_1720,2IFCnew,2,DIAN07,
2IFCnew,52,0,52,0,0.600571800023,3,No,9.8,-1,False Alarm,0.733823499875,False,True,stimulusDIAN07_2IFCnew_2019_Jun_13_1720_855,stimulusDIAN07_2IFCnew_2019_Jun_13_1720_856,False,2019_Jun_13_1720,2IFCnew,2,DIAN07,
2IFCnew,53,0,53,0,0.635188899934,5,Yes,9.8,-1,False Alarm,0.533597700065,False,True,stimulusDIAN07_2IFCnew_2019_Jun_13_1720_857,stimulusDIAN07_2IFCnew_2019_Jun_13_1720_858,False,2019_Jun_13_1720,2IFCnew,2,DIAN07,
2IFCnew,54,0,54,0,0.767060300102,2,Yes,9.8,-1,Correct Rejection,0.601016799919,False,True,stimulusDIAN07_2IFCnew_2019_Jun_13_1720_859,stimulusDIAN07_2IFCnew_2019_Jun_13_1720_860,False,2019_Jun_13_1720,2IFCnew,2,DIAN07,
2IFCnew,55,0,55,0,0.30060629989,3,No,9.8,-1,False Alarm,0.801343400031,False,True,stimulusDIAN07_2IFCnew_2019_Jun_13_1720_861,stimulusDIAN07_2IFCnew_2019_Jun_13_1720_862,False,2019_Jun_13_1720,2IFCnew,2,DIAN07,
2IFCnew,56,0,56,0,0.433607000159,7,Yes,9.8,-1,Hit,0.467677100096,True,False,stimulusDIAN07_2IFCnew_2019_Jun_13_1720_863,stimulusDIAN07_2IFCnew_2019_Jun_13_1720_864,False,2019_Jun_13_1720,2IFCnew,2,DIAN07,
2IFCnew,57,0,57,0,0.567750799935,3,No,9.8,-1,False Alarm,0.633463099832,False,True,stimulusDIAN07_2IFCnew_2019_Jun_13_1720_865,stimulusDIAN07_2IFCnew_2019_Jun_13_1720_866,False,2019_Jun_13_1720,2IFCnew,2,DIAN07,
2IFCnew,58,0,58,0,0.401633999776,3,No,9.8,-1,False Alarm,0.568911799928,False,True,stimulusDIAN07_2IFCnew_2019_Jun_13_1720_867,stimulusDIAN07_2IFCnew_2019_Jun_13_1720_868,False,2019_Jun_13_1720,2IFCnew,2,DIAN07,
2IFCnew,59,0,59,0,0.634204800008,5,Yes,9.8,-1,False Alarm,0.435043500038,False,True,stimulusDIAN07_2IFCnew_2019_Jun_13_1720_869,stimulusDIAN07_2IFCnew_2019_Jun_13_1720_870,False,2019_Jun_13_1720,2IFCnew,2,DIAN07,
2IFCnew,60,0,60,0,0.367202300113,1,No,9.8,-1,Hit,0.534046299988,True,False,stimulusDIAN07_2IFCnew_2019_Jun_13_1720_871,stimulusDIAN07_2IFCnew_2019_Jun_13_1720_872,False,2019_Jun_13_1720,2IFCnew,2,DIAN07,
2IFCnew,61,0,61,0,-1,1,No,9.8,-1,Hit,0.500702999998,True,False,stimulusDIAN07_2IFCnew_2019_Jun_13_1720_873,stimulusDIAN07_2IFCnew_2019_Jun_13_1720_874,False,2019_Jun_13_1720,2IFCnew,2,DIAN07,
2IFCnew,62,0,62,0,-1,1,No,9.8,-1,Hit,0.500430700136,True,False,stimulusDIAN07_2IFCnew_2019_Jun_13_1720_875,stimulusDIAN07_2IFCnew_2019_Jun_13_1720_876,False,2019_Jun_13_1720,2IFCnew,2,DIAN07,
2IFCnew,63,0,63,0,-1,1,No,9.8,-1,Hit,0.565109799849,True,False,stimulusDIAN07_2IFCnew_2019_Jun_13_1720_877,stimulusDIAN07_2IFCnew_2019_Jun_13_1720_878,False,2019_Jun_13_1720,2IFCnew,2,DIAN07,
2IFCnew,64,0,64,0,0.56708710012,1,No,9.8,-1,Hit,0.768147099996,True,False,stimulusDIAN07_2IFCnew_2019_Jun_13_1720_879,stimulusDIAN07_2IFCnew_2019_Jun_13_1720_880,False,2019_Jun_13_1720,2IFCnew,2,DIAN07,
2IFCnew,65,0,65,0,0.400716600008,2,Yes,9.8,-1,Correct Rejection,0.599721200066,False,True,stimulusDIAN07_2IFCnew_2019_Jun_13_1720_881,stimulusDIAN07_2IFCnew_2019_Jun_13_1720_882,False,2019_Jun_13_1720,2IFCnew,2,DIAN07,
2IFCnew,66,0,66,0,0.633105400018,6,No,9.8,-1,Miss,0.500457699876,True,False,stimulusDIAN07_2IFCnew_2019_Jun_13_1720_883,stimulusDIAN07_2IFCnew_2019_Jun_13_1720_884,False,2019_Jun_13_1720,2IFCnew,2,DIAN07,
2IFCnew,67,0,67,0,0.534548700089,1,No,9.8,-1,Hit,0.501287600026,True,False,stimulusDIAN07_2IFCnew_2019_Jun_13_1720_885,stimulusDIAN07_2IFCnew_2019_Jun_13_1720_886,False,2019_Jun_13_1720,2IFCnew,2,DIAN07,
2IFCnew,68,0,68,0,0.300328299869,2,Yes,9.8,-1,Correct Rejection,0.533809900051,False,True,stimulusDIAN07_2IFCnew_2019_Jun_13_1720_887,stimulusDIAN07_2IFCnew_2019_Jun_13_1720_888,False,2019_Jun_13_1720,2IFCnew,2,DIAN07,
2IFCnew,69,0,69,0,0.79998339992,2,Yes,9.8,-1,Correct Rejection,0.56769990013,False,True,stimulusDIAN07_2IFCnew_2019_Jun_13_1720_889,stimulusDIAN07_2IFCnew_2019_Jun_13_1720_890,False,2019_Jun_13_1720,2IFCnew,2,DIAN07,
2IFCnew,70,0,70,0,0.365834000055,2,Yes,9.8,-1,Correct Rejection,0.667421499966,False,True,stimulusDIAN07_2IFCnew_2019_Jun_13_1720_891,stimulusDIAN07_2IFCnew_2019_Jun_13_1720_892,False,2019_Jun_13_1720,2IFCnew,2,DIAN07,
2IFCnew,71,0,71,0,0.266227100044,2,Yes,9.8,-1,Correct Rejection,0.533950699959,False,True,stimulusDIAN07_2IFCnew_2019_Jun_13_1720_893,stimulusDIAN07_2IFCnew_2019_Jun_13_1720_894,False,2019_Jun_13_1720,2IFCnew,2,DIAN07,
2IFCnew,72,0,72,0,0.402473499998,2,Yes,9.8,-1,Correct Rejection,0.536517499946,False,True,stimulusDIAN07_2IFCnew_2019_Jun_13_1720_895,stimulusDIAN07_2IFCnew_2019_Jun_13_1720_896,False,2019_Jun_13_1720,2IFCnew,2,DIAN07,
2IFCnew,73,0,73,0,0.533905699849,4,Yes,9.8,-1,Miss,0.600820200052,True,False,stimulusDIAN07_2IFCnew_2019_Jun_13_1720_897,stimulusDIAN07_2IFCnew_2019_Jun_13_1720_898,False,2019_Jun_13_1720,2IFCnew,2,DIAN07,
2IFCnew,74,0,74,0,0.500560899964,1,No,9.8,-1,Hit,0.834357499843,True,False,stimulusDIAN07_2IFCnew_2019_Jun_13_1720_899,stimulusDIAN07_2IFCnew_2019_Jun_13_1720_900,False,2019_Jun_13_1720,2IFCnew,2,DIAN07,
2IFCnew,0,0,0,0,0.134573499905,1,No,13.9,-1,Hit,0.501241300022,True,False,stimulusDIAN07_2IFCnew_2019_Jun_13_1720_901,stimulusDIAN07_2IFCnew_2019_Jun_13_1720_902,False,2019_Jun_13_1720,2IFCnew,2,DIAN07,
2IFCnew,1,0,1,0,0.200597399846,2,Yes,13.9,-1,Correct Rejection,0.467235800112,False,True,stimulusDIAN07_2IFCnew_2019_Jun_13_1720_903,stimulusDIAN07_2IFCnew_2019_Jun_13_1720_904,False,2019_Jun_13_1720,2IFCnew,2,DIAN07,
2IFCnew,2,0,2,0,0.167177199852,1,No,13.9,-1,Hit,0.40076270001,True,False,stimulusDIAN07_2IFCnew_2019_Jun_13_1720_905,stimulusDIAN07_2IFCnew_2019_Jun_13_1720_906,False,2019_Jun_13_1720,2IFCnew,2,DIAN07,
2IFCnew,3,0,3,0,0.133584799943,2,Yes,13.9,-1,Correct Rejection,0.50130909984,False,True,stimulusDIAN07_2IFCnew_2019_Jun_13_1720_907,stimulusDIAN07_2IFCnew_2019_Jun_13_1720_908,False,2019_Jun_13_1720,2IFCnew,2,DIAN07,
2IFCnew,4,0,4,0,0.233868000098,2,Yes,13.9,-1,Correct Rejection,0.433798700105,False,True,stimulusDIAN07_2IFCnew_2019_Jun_13_1720_909,stimulusDIAN07_2IFCnew_2019_Jun_13_1720_910,False,2019_Jun_13_1720,2IFCnew,2,DIAN07,
2IFCnew,5,0,5,0,0.300193300005,1,No,13.9,-1,Hit,0.566368300002,True,False,stimulusDIAN07_2IFCnew_2019_Jun_13_1720_911,stimulusDIAN07_2IFCnew_2019_Jun_13_1720_912,False,2019_Jun_13_1720,2IFCnew,2,DIAN07,
2IFCnew,6,0,6,0,0.267604300054,5,Yes,13.9,-1,False Alarm,0.434123100014,False,True,stimulusDIAN07_2IFCnew_2019_Jun_13_1720_913,stimulusDIAN07_2IFCnew_2019_Jun_13_1720_914,False,2019_Jun_13_1720,2IFCnew,2,DIAN07,
2IFCnew,7,0,7,0,0.300456600031,2,Yes,13.9,-1,Correct Rejection,0.533832099987,False,True,stimulusDIAN07_2IFCnew_2019_Jun_13_1720_915,stimulusDIAN07_2IFCnew_2019_Jun_13_1720_916,False,2019_Jun_13_1720,2IFCnew,2,DIAN07,
2IFCnew,8,0,8,0,0.266822000034,1,No,13.9,-1,Hit,0.499824299943,True,False,stimulusDIAN07_2IFCnew_2019_Jun_13_1720_917,stimulusDIAN07_2IFCnew_2019_Jun_13_1720_918,False,2019_Jun_13_1720,2IFCnew,2,DIAN07,
2IFCnew,9,0,9,0,0.567054900108,1,No,13.9,-1,Hit,0.434201300144,True,False,stimulusDIAN07_2IFCnew_2019_Jun_13_1720_919,stimulusDIAN07_2IFCnew_2019_Jun_13_1720_920,False,2019_Jun_13_1720,2IFCnew,2,DIAN07,
2IFCnew,10,0,10,0,0.434553100029,5,Yes,13.9,-1,False Alarm,0.667795999907,False,True,stimulusDIAN07_2IFCnew_2019_Jun_13_1720_921,stimulusDIAN07_2IFCnew_2019_Jun_13_1720_922,False,2019_Jun_13_1720,2IFCnew,2,DIAN07,
2IFCnew,11,0,11,0,0.666902699973,5,Yes,13.9,-1,False Alarm,0.80098109995,False,True,stimulusDIAN07_2IFCnew_2019_Jun_13_1720_923,stimulusDIAN07_2IFCnew_2019_Jun_13_1720_924,False,2019_Jun_13_1720,2IFCnew,2,DIAN07,
2IFCnew,12,0,12,0,0.468098999932,1,No,13.9,-1,Hit,0.467511399882,True,False,stimulusDIAN07_2IFCnew_2019_Jun_13_1720_925,stimulusDIAN07_2IFCnew_2019_Jun_13_1720_926,False,2019_Jun_13_1720,2IFCnew,2,DIAN07,
2IFCnew,13,0,13,0,0.533871399937,1,No,13.9,-1,Hit,0.53426970006,True,False,stimulusDIAN07_2IFCnew_2019_Jun_13_1720_927,stimulusDIAN07_2IFCnew_2019_Jun_13_1720_928,False,2019_Jun_13_1720,2IFCnew,2,DIAN07,
2IFCnew,14,0,14,0,0.467617599992,1,No,13.9,-1,Hit,0.532917999895,True,False,stimulusDIAN07_2IFCnew_2019_Jun_13_1720_929,stimulusDIAN07_2IFCnew_2019_Jun_13_1720_930,False,2019_Jun_13_1720,2IFCnew,2,DIAN07,
2IFCnew,15,0,15,0,0.633582199924,1,No,13.9,-1,Hit,0.435773900012,True,False,stimulusDIAN07_2IFCnew_2019_Jun_13_1720_931,stimulusDIAN07_2IFCnew_2019_Jun_13_1720_932,False,2019_Jun_13_1720,2IFCnew,2,DIAN07,
2IFCnew,16,0,16,0,0.333985600155,2,Yes,13.9,-1,Correct Rejection,0.868545899866,False,True,stimulusDIAN07_2IFCnew_2019_Jun_13_1720_933,stimulusDIAN07_2IFCnew_2019_Jun_13_1720_934,False,2019_Jun_13_1720,2IFCnew,2,DIAN07,
2IFCnew,17,0,17,0,0.266941400012,2,Yes,13.9,-1,Correct Rejection,0.535029100021,False,True,stimulusDIAN07_2IFCnew_2019_Jun_13_1720_935,stimulusDIAN07_2IFCnew_2019_Jun_13_1720_936,False,2019_Jun_13_1720,2IFCnew,2,DIAN07,
2IFCnew,18,0,18,0,0.36734519992,1,No,13.9,-1,Hit,0.567905300064,True,False,stimulusDIAN07_2IFCnew_2019_Jun_13_1720_937,stimulusDIAN07_2IFCnew_2019_Jun_13_1720_938,False,2019_Jun_13_1720,2IFCnew,2,DIAN07,
2IFCnew,19,0,19,0,0.0999837000854,1,No,13.9,-1,Hit,0.467308799969,True,False,stimulusDIAN07_2IFCnew_2019_Jun_13_1720_939,stimulusDIAN07_2IFCnew_2019_Jun_13_1720_940,False,2019_Jun_13_1720,2IFCnew,2,DIAN07,
2IFCnew,20,0,20,0,0.033836199902,1,No,13.9,-1,Hit,0.433324599871,True,False,stimulusDIAN07_2IFCnew_2019_Jun_13_1720_941,stimulusDIAN07_2IFCnew_2019_Jun_13_1720_942,False,2019_Jun_13_1720,2IFCnew,2,DIAN07,
2IFCnew,21,0,21,0,-1,1,No,13.9,-1,Hit,0.404484300176,True,False,stimulusDIAN07_2IFCnew_2019_Jun_13_1720_943,stimulusDIAN07_2IFCnew_2019_Jun_13_1720_944,False,2019_Jun_13_1720,2IFCnew,2,DIAN07,
2IFCnew,22,0,22,0,0.300597799942,2,Yes,13.9,-1,Correct Rejection,0.634121299954,False,True,stimulusDIAN07_2IFCnew_2019_Jun_13_1720_945,stimulusDIAN07_2IFCnew_2019_Jun_13_1720_946,False,2019_Jun_13_1720,2IFCnew,2,DIAN07,
2IFCnew,23,0,23,0,0.134441700066,1,No,13.9,-1,Hit,0.500566600123,True,False,stimulusDIAN07_2IFCnew_2019_Jun_13_1720_947,stimulusDIAN07_2IFCnew_2019_Jun_13_1720_948,False,2019_Jun_13_1720,2IFCnew,2,DIAN07,
2IFCnew,24,0,24,0,0.299842899898,2,Yes,13.9,-1,Correct Rejection,0.601869400125,False,True,stimulusDIAN07_2IFCnew_2019_Jun_13_1720_949,stimulusDIAN07_2IFCnew_2019_Jun_13_1720_950,False,2019_Jun_13_1720,2IFCnew,2,DIAN07,
2IFCnew,25,0,25,0,0.0340340998955,1,No,13.9,-1,Hit,0.433973200154,True,False,stimulusDIAN07_2IFCnew_2019_Jun_13_1720_951,stimulusDIAN07_2IFCnew_2019_Jun_13_1720_952,False,2019_Jun_13_1720,2IFCnew,2,DIAN07,
2IFCnew,26,0,26,0,0.100432900013,1,No,13.9,-1,Hit,0.43381239986,True,False,stimulusDIAN07_2IFCnew_2019_Jun_13_1720_953,stimulusDIAN07_2IFCnew_2019_Jun_13_1720_954,False,2019_Jun_13_1720,2IFCnew,2,DIAN07,
2IFCnew,27,0,27,0,0.432555000065,5,Yes,13.9,-1,False Alarm,0.401327800006,False,True,stimulusDIAN07_2IFCnew_2019_Jun_13_1720_955,stimulusDIAN07_2IFCnew_2019_Jun_13_1720_956,False,2019_Jun_13_1720,2IFCnew,2,DIAN07,
2IFCnew,28,0,28,0,0.267253000056,2,Yes,13.9,-1,Correct Rejection,0.533890099963,False,True,stimulusDIAN07_2IFCnew_2019_Jun_13_1720_957,stimulusDIAN07_2IFCnew_2019_Jun_13_1720_958,False,2019_Jun_13_1720,2IFCnew,2,DIAN07,
2IFCnew,29,0,29,0,0.199723599944,2,Yes,13.9,-1,Correct Rejection,0.433767900104,False,True,stimulusDIAN07_2IFCnew_2019_Jun_13_1720_959,stimulusDIAN07_2IFCnew_2019_Jun_13_1720_960,False,2019_Jun_13_1720,2IFCnew,2,DIAN07,
2IFCnew,30,0,30,0,0.267048599897,2,Yes,13.9,-1,Correct Rejection,0.668670600047,False,True,stimulusDIAN07_2IFCnew_2019_Jun_13_1720_961,stimulusDIAN07_2IFCnew_2019_Jun_13_1720_962,False,2019_Jun_13_1720,2IFCnew,2,DIAN07,
