Task,trials.thisRepN,trials.thisTrialN,trials.thisN,trials.thisIndex,time_response_second,response_2IFCnew,response_key2Interval_2IFCnew,signal_intensity,constant Value,response,time_response,signal_on_stimuluspos1,signal_on_stimuluspos2,stimulus_name_pos1,stimulus_name_pos2,random_intensity,date,expName,session,participant,
2IFCnew,0,0,0,0,0.2671816,2,Yes,12.5,-1,Correct Rejection,0.534572500001,False,True,stimulusDIAN07_2IFCnew_2019_Jun_14_1556_1,stimulusDIAN07_2IFCnew_2019_Jun_14_1556_2,True,2019_Jun_14_1556,2IFCnew,3,DIAN07,
2IFCnew,1,0,1,0,0.4996189,1,No,11.2,-1,Hit,0.6339907,True,False,stimulusDIAN07_2IFCnew_2019_Jun_14_1556_3,stimulusDIAN07_2IFCnew_2019_Jun_14_1556_4,True,2019_Jun_14_1556,2IFCnew,3,DIAN07,
2IFCnew,2,0,2,0,0.3341426,4,Yes,5.8,-1,Miss,0.467208,True,False,stimulusDIAN07_2IFCnew_2019_Jun_14_1556_5,stimulusDIAN07_2IFCnew_2019_Jun_14_1556_6,True,2019_Jun_14_1556,2IFCnew,3,DIAN07,
2IFCnew,3,0,3,0,0.4349545,1,No,8.1,-1,Hit,0.6006797,True,False,stimulusDIAN07_2IFCnew_2019_Jun_14_1556_7,stimulusDIAN07_2IFCnew_2019_Jun_14_1556_8,True,2019_Jun_14_1556,2IFCnew,3,DIAN07,
2IFCnew,4,0,4,0,0.3004052,1,No,9.8,-1,Hit,0.5339002,True,False,stimulusDIAN07_2IFCnew_2019_Jun_14_1556_9,stimulusDIAN07_2IFCnew_2019_Jun_14_1556_10,True,2019_Jun_14_1556,2IFCnew,3,DIAN07,
2IFCnew,5,0,5,0,0.1007826,1,No,15.3,-1,Hit,0.468435799999,True,False,stimulusDIAN07_2IFCnew_2019_Jun_14_1556_11,stimulusDIAN07_2IFCnew_2019_Jun_14_1556_12,True,2019_Jun_14_1556,2IFCnew,3,DIAN07,
2IFCnew,6,0,6,0,0.333813,2,Yes,12.5,-1,Correct Rejection,0.5340339,False,True,stimulusDIAN07_2IFCnew_2019_Jun_14_1556_13,stimulusDIAN07_2IFCnew_2019_Jun_14_1556_14,True,2019_Jun_14_1556,2IFCnew,3,DIAN07,
2IFCnew,7,0,7,0,0.533925799999,6,No,11.2,-1,Miss,0.5003681,True,False,stimulusDIAN07_2IFCnew_2019_Jun_14_1556_15,stimulusDIAN07_2IFCnew_2019_Jun_14_1556_16,True,2019_Jun_14_1556,2IFCnew,3,DIAN07,
2IFCnew,8,0,8,0,0.4344496,3,No,11.2,-1,False Alarm,0.8014132,False,True,stimulusDIAN07_2IFCnew_2019_Jun_14_1556_17,stimulusDIAN07_2IFCnew_2019_Jun_14_1556_18,True,2019_Jun_14_1556,2IFCnew,3,DIAN07,
2IFCnew,9,0,9,0,0.3333066,2,Yes,13.9,-1,Correct Rejection,0.567542100001,False,True,stimulusDIAN07_2IFCnew_2019_Jun_14_1556_19,stimulusDIAN07_2IFCnew_2019_Jun_14_1556_20,True,2019_Jun_14_1556,2IFCnew,3,DIAN07,
2IFCnew,10,0,10,0,0.3990776,2,Yes,5.8,-1,Correct Rejection,0.5000997,False,True,stimulusDIAN07_2IFCnew_2019_Jun_14_1556_21,stimulusDIAN07_2IFCnew_2019_Jun_14_1556_22,True,2019_Jun_14_1556,2IFCnew,3,DIAN07,
2IFCnew,11,0,11,0,0.400748900001,1,No,8.1,-1,Hit,0.834371899999,True,False,stimulusDIAN07_2IFCnew_2019_Jun_14_1556_23,stimulusDIAN07_2IFCnew_2019_Jun_14_1556_24,True,2019_Jun_14_1556,2IFCnew,3,DIAN07,
2IFCnew,12,0,12,0,0.4336859,5,Yes,16.9,-1,False Alarm,0.6008386,False,True,stimulusDIAN07_2IFCnew_2019_Jun_14_1556_25,stimulusDIAN07_2IFCnew_2019_Jun_14_1556_26,True,2019_Jun_14_1556,2IFCnew,3,DIAN07,
2IFCnew,13,0,13,0,0.4006261,2,Yes,9.8,-1,Correct Rejection,0.5332779,False,True,stimulusDIAN07_2IFCnew_2019_Jun_14_1556_27,stimulusDIAN07_2IFCnew_2019_Jun_14_1556_28,True,2019_Jun_14_1556,2IFCnew,3,DIAN07,
2IFCnew,14,0,14,0,0.4678489,2,Yes,15.3,-1,Correct Rejection,0.6348457,False,True,stimulusDIAN07_2IFCnew_2019_Jun_14_1556_29,stimulusDIAN07_2IFCnew_2019_Jun_14_1556_30,True,2019_Jun_14_1556,2IFCnew,3,DIAN07,
2IFCnew,15,0,15,0,0.2669012,2,Yes,8.1,-1,Correct Rejection,0.6338695,False,True,stimulusDIAN07_2IFCnew_2019_Jun_14_1556_31,stimulusDIAN07_2IFCnew_2019_Jun_14_1556_32,True,2019_Jun_14_1556,2IFCnew,3,DIAN07,
2IFCnew,16,0,16,0,0.434805800001,5,Yes,13.9,-1,False Alarm,0.4340007,False,True,stimulusDIAN07_2IFCnew_2019_Jun_14_1556_33,stimulusDIAN07_2IFCnew_2019_Jun_14_1556_34,True,2019_Jun_14_1556,2IFCnew,3,DIAN07,
2IFCnew,17,0,17,0,0.300341800001,1,No,15.3,-1,Hit,0.5341311,True,False,stimulusDIAN07_2IFCnew_2019_Jun_14_1556_35,stimulusDIAN07_2IFCnew_2019_Jun_14_1556_36,True,2019_Jun_14_1556,2IFCnew,3,DIAN07,
2IFCnew,18,0,18,0,0.3670054,4,Yes,5.8,-1,Miss,0.6332742,True,False,stimulusDIAN07_2IFCnew_2019_Jun_14_1556_37,stimulusDIAN07_2IFCnew_2019_Jun_14_1556_38,True,2019_Jun_14_1556,2IFCnew,3,DIAN07,
2IFCnew,19,0,19,0,0.1000237,1,No,11.2,-1,Hit,0.4671182,True,False,stimulusDIAN07_2IFCnew_2019_Jun_14_1556_39,stimulusDIAN07_2IFCnew_2019_Jun_14_1556_40,True,2019_Jun_14_1556,2IFCnew,3,DIAN07,
2IFCnew,20,0,20,0,0.266685600001,2,Yes,12.5,-1,Correct Rejection,0.6672513,False,True,stimulusDIAN07_2IFCnew_2019_Jun_14_1556_41,stimulusDIAN07_2IFCnew_2019_Jun_14_1556_42,True,2019_Jun_14_1556,2IFCnew,3,DIAN07,
2IFCnew,21,0,21,0,0.0667647999999,1,No,9.8,-1,Hit,0.6008598,True,False,stimulusDIAN07_2IFCnew_2019_Jun_14_1556_43,stimulusDIAN07_2IFCnew_2019_Jun_14_1556_44,True,2019_Jun_14_1556,2IFCnew,3,DIAN07,
2IFCnew,22,0,22,0,-1,3,No,13.9,-1,Correct Rejection,0.5017783,False,True,stimulusDIAN07_2IFCnew_2019_Jun_14_1556_45,stimulusDIAN07_2IFCnew_2019_Jun_14_1556_46,True,2019_Jun_14_1556,2IFCnew,3,DIAN07,
2IFCnew,23,0,23,0,0.267140299999,1,No,15.3,-1,Hit,0.5672801,True,False,stimulusDIAN07_2IFCnew_2019_Jun_14_1556_47,stimulusDIAN07_2IFCnew_2019_Jun_14_1556_48,True,2019_Jun_14_1556,2IFCnew,3,DIAN07,
2IFCnew,24,0,24,0,0.3666036,2,Yes,15.3,-1,Correct Rejection,0.5359687,False,True,stimulusDIAN07_2IFCnew_2019_Jun_14_1556_49,stimulusDIAN07_2IFCnew_2019_Jun_14_1556_50,True,2019_Jun_14_1556,2IFCnew,3,DIAN07,
2IFCnew,25,0,25,0,0.2337033,4,Yes,5.8,-1,Miss,0.6003027,True,False,stimulusDIAN07_2IFCnew_2019_Jun_14_1556_51,stimulusDIAN07_2IFCnew_2019_Jun_14_1556_52,True,2019_Jun_14_1556,2IFCnew,3,DIAN07,
2IFCnew,26,0,26,0,0.6340149,5,Yes,12.5,-1,False Alarm,0.6004825,False,True,stimulusDIAN07_2IFCnew_2019_Jun_14_1556_53,stimulusDIAN07_2IFCnew_2019_Jun_14_1556_54,True,2019_Jun_14_1556,2IFCnew,3,DIAN07,
2IFCnew,27,0,27,0,0.400472300001,4,Yes,5.8,-1,Miss,0.5339116,True,False,stimulusDIAN07_2IFCnew_2019_Jun_14_1556_55,stimulusDIAN07_2IFCnew_2019_Jun_14_1556_56,True,2019_Jun_14_1556,2IFCnew,3,DIAN07,
2IFCnew,28,0,28,0,0.6013563,2,Yes,11.2,-1,Correct Rejection,0.667154100001,False,True,stimulusDIAN07_2IFCnew_2019_Jun_14_1556_57,stimulusDIAN07_2IFCnew_2019_Jun_14_1556_58,True,2019_Jun_14_1556,2IFCnew,3,DIAN07,
2IFCnew,29,0,29,0,0.333661000001,2,Yes,5.8,-1,Correct Rejection,0.4982997,False,True,stimulusDIAN07_2IFCnew_2019_Jun_14_1556_59,stimulusDIAN07_2IFCnew_2019_Jun_14_1556_60,True,2019_Jun_14_1556,2IFCnew,3,DIAN07,
2IFCnew,30,0,30,0,0.2672373,1,No,9.8,-1,Hit,0.502539800001,True,False,stimulusDIAN07_2IFCnew_2019_Jun_14_1556_61,stimulusDIAN07_2IFCnew_2019_Jun_14_1556_62,True,2019_Jun_14_1556,2IFCnew,3,DIAN07,
2IFCnew,31,0,31,0,0.1000953,2,Yes,15.3,-1,Correct Rejection,0.5341174,False,True,stimulusDIAN07_2IFCnew_2019_Jun_14_1556_63,stimulusDIAN07_2IFCnew_2019_Jun_14_1556_64,True,2019_Jun_14_1556,2IFCnew,3,DIAN07,
2IFCnew,32,0,32,0,0.567268299999,6,No,5.8,-1,Miss,0.5673739,True,False,stimulusDIAN07_2IFCnew_2019_Jun_14_1556_65,stimulusDIAN07_2IFCnew_2019_Jun_14_1556_66,True,2019_Jun_14_1556,2IFCnew,3,DIAN07,
2IFCnew,33,0,33,0,0.467553699999,1,No,11.2,-1,Hit,0.534166099999,True,False,stimulusDIAN07_2IFCnew_2019_Jun_14_1556_67,stimulusDIAN07_2IFCnew_2019_Jun_14_1556_68,True,2019_Jun_14_1556,2IFCnew,3,DIAN07,
2IFCnew,34,0,34,0,0.4003718,2,Yes,16.9,-1,Correct Rejection,0.666244200001,False,True,stimulusDIAN07_2IFCnew_2019_Jun_14_1556_69,stimulusDIAN07_2IFCnew_2019_Jun_14_1556_70,True,2019_Jun_14_1556,2IFCnew,3,DIAN07,
2IFCnew,35,0,35,0,0.5667787,2,Yes,12.5,-1,Correct Rejection,0.566908700001,False,True,stimulusDIAN07_2IFCnew_2019_Jun_14_1556_71,stimulusDIAN07_2IFCnew_2019_Jun_14_1556_72,True,2019_Jun_14_1556,2IFCnew,3,DIAN07,
2IFCnew,36,0,36,0,0.433897,1,No,13.9,-1,Hit,0.634025,True,False,stimulusDIAN07_2IFCnew_2019_Jun_14_1556_73,stimulusDIAN07_2IFCnew_2019_Jun_14_1556_74,True,2019_Jun_14_1556,2IFCnew,3,DIAN07,
2IFCnew,37,0,37,0,0.3671443,4,Yes,8.1,-1,Miss,0.4675123,True,False,stimulusDIAN07_2IFCnew_2019_Jun_14_1556_75,stimulusDIAN07_2IFCnew_2019_Jun_14_1556_76,True,2019_Jun_14_1556,2IFCnew,3,DIAN07,
2IFCnew,38,0,38,0,0.466679499999,1,No,5.8,-1,Hit,0.4673168,True,False,stimulusDIAN07_2IFCnew_2019_Jun_14_1556_77,stimulusDIAN07_2IFCnew_2019_Jun_14_1556_78,True,2019_Jun_14_1556,2IFCnew,3,DIAN07,
2IFCnew,39,0,39,0,0.467356,1,No,9.8,-1,Hit,0.4674145,True,False,stimulusDIAN07_2IFCnew_2019_Jun_14_1556_79,stimulusDIAN07_2IFCnew_2019_Jun_14_1556_80,True,2019_Jun_14_1556,2IFCnew,3,DIAN07,
2IFCnew,40,0,40,0,0.4667963,3,No,8.1,-1,False Alarm,0.667543099999,False,True,stimulusDIAN07_2IFCnew_2019_Jun_14_1556_81,stimulusDIAN07_2IFCnew_2019_Jun_14_1556_82,True,2019_Jun_14_1556,2IFCnew,3,DIAN07,
2IFCnew,41,0,41,0,0.6338352,6,No,5.8,-1,Miss,0.734270999999,True,False,stimulusDIAN07_2IFCnew_2019_Jun_14_1556_83,stimulusDIAN07_2IFCnew_2019_Jun_14_1556_84,True,2019_Jun_14_1556,2IFCnew,3,DIAN07,
2IFCnew,42,0,42,0,0.4666296,2,Yes,8.1,-1,Correct Rejection,0.5347499,False,True,stimulusDIAN07_2IFCnew_2019_Jun_14_1556_85,stimulusDIAN07_2IFCnew_2019_Jun_14_1556_86,True,2019_Jun_14_1556,2IFCnew,3,DIAN07,
2IFCnew,43,0,43,0,0.4336479,1,No,8.1,-1,Hit,0.7339751,True,False,stimulusDIAN07_2IFCnew_2019_Jun_14_1556_87,stimulusDIAN07_2IFCnew_2019_Jun_14_1556_88,True,2019_Jun_14_1556,2IFCnew,3,DIAN07,
2IFCnew,44,0,44,0,0.3331721,2,Yes,11.2,-1,Correct Rejection,0.5672623,False,True,stimulusDIAN07_2IFCnew_2019_Jun_14_1556_89,stimulusDIAN07_2IFCnew_2019_Jun_14_1556_90,True,2019_Jun_14_1556,2IFCnew,3,DIAN07,
2IFCnew,45,0,45,0,0.667764100001,6,No,5.8,-1,Miss,0.7330757,True,False,stimulusDIAN07_2IFCnew_2019_Jun_14_1556_91,stimulusDIAN07_2IFCnew_2019_Jun_14_1556_92,True,2019_Jun_14_1556,2IFCnew,3,DIAN07,
2IFCnew,46,0,46,0,0.5002436,2,Yes,9.8,-1,Correct Rejection,0.800645400001,False,True,stimulusDIAN07_2IFCnew_2019_Jun_14_1556_93,stimulusDIAN07_2IFCnew_2019_Jun_14_1556_94,True,2019_Jun_14_1556,2IFCnew,3,DIAN07,
2IFCnew,47,0,47,0,0.434041,2,Yes,16.9,-1,Correct Rejection,0.6007677,False,True,stimulusDIAN07_2IFCnew_2019_Jun_14_1556_95,stimulusDIAN07_2IFCnew_2019_Jun_14_1556_96,True,2019_Jun_14_1556,2IFCnew,3,DIAN07,
2IFCnew,48,0,48,0,0.4332622,3,No,9.8,-1,False Alarm,0.767883099999,False,True,stimulusDIAN07_2IFCnew_2019_Jun_14_1556_97,stimulusDIAN07_2IFCnew_2019_Jun_14_1556_98,True,2019_Jun_14_1556,2IFCnew,3,DIAN07,
2IFCnew,49,0,49,0,0.468221800001,2,Yes,15.3,-1,Correct Rejection,0.5002893,False,True,stimulusDIAN07_2IFCnew_2019_Jun_14_1556_99,stimulusDIAN07_2IFCnew_2019_Jun_14_1556_100,True,2019_Jun_14_1556,2IFCnew,3,DIAN07,
2IFCnew,50,0,50,0,0.333652300001,1,No,16.9,-1,Hit,0.5337078,True,False,stimulusDIAN07_2IFCnew_2019_Jun_14_1556_101,stimulusDIAN07_2IFCnew_2019_Jun_14_1556_102,True,2019_Jun_14_1556,2IFCnew,3,DIAN07,
2IFCnew,51,0,51,0,0.2671314,1,No,13.9,-1,Hit,0.467626600001,True,False,stimulusDIAN07_2IFCnew_2019_Jun_14_1556_103,stimulusDIAN07_2IFCnew_2019_Jun_14_1556_104,True,2019_Jun_14_1556,2IFCnew,3,DIAN07,
2IFCnew,52,0,52,0,0.2340711,1,No,8.1,-1,Hit,0.600773,True,False,stimulusDIAN07_2IFCnew_2019_Jun_14_1556_105,stimulusDIAN07_2IFCnew_2019_Jun_14_1556_106,True,2019_Jun_14_1556,2IFCnew,3,DIAN07,
2IFCnew,53,0,53,0,0.1669248,1,No,11.2,-1,Hit,0.7006896,True,False,stimulusDIAN07_2IFCnew_2019_Jun_14_1556_107,stimulusDIAN07_2IFCnew_2019_Jun_14_1556_108,True,2019_Jun_14_1556,2IFCnew,3,DIAN07,
2IFCnew,54,0,54,0,0.4337214,2,Yes,9.8,-1,Correct Rejection,0.6339759,False,True,stimulusDIAN07_2IFCnew_2019_Jun_14_1556_109,stimulusDIAN07_2IFCnew_2019_Jun_14_1556_110,True,2019_Jun_14_1556,2IFCnew,3,DIAN07,
2IFCnew,55,0,55,0,0.3327941,3,No,5.8,-1,False Alarm,0.5681334,False,True,stimulusDIAN07_2IFCnew_2019_Jun_14_1556_111,stimulusDIAN07_2IFCnew_2019_Jun_14_1556_112,True,2019_Jun_14_1556,2IFCnew,3,DIAN07,
2IFCnew,56,0,56,0,0.100363500001,2,Yes,9.8,-1,Correct Rejection,0.5345562,False,True,stimulusDIAN07_2IFCnew_2019_Jun_14_1556_113,stimulusDIAN07_2IFCnew_2019_Jun_14_1556_114,True,2019_Jun_14_1556,2IFCnew,3,DIAN07,
2IFCnew,57,0,57,0,0.3988916,3,No,5.8,-1,False Alarm,0.4686468,False,True,stimulusDIAN07_2IFCnew_2019_Jun_14_1556_115,stimulusDIAN07_2IFCnew_2019_Jun_14_1556_116,True,2019_Jun_14_1556,2IFCnew,3,DIAN07,
2IFCnew,58,0,58,0,0.233478,1,No,12.5,-1,Hit,0.4335298,True,False,stimulusDIAN07_2IFCnew_2019_Jun_14_1556_117,stimulusDIAN07_2IFCnew_2019_Jun_14_1556_118,True,2019_Jun_14_1556,2IFCnew,3,DIAN07,
2IFCnew,59,0,59,0,0.301222100001,1,No,11.2,-1,Hit,0.4320458,True,False,stimulusDIAN07_2IFCnew_2019_Jun_14_1556_119,stimulusDIAN07_2IFCnew_2019_Jun_14_1556_120,True,2019_Jun_14_1556,2IFCnew,3,DIAN07,
2IFCnew,60,0,60,0,0.366881899999,5,Yes,16.9,-1,False Alarm,0.3312335,False,True,stimulusDIAN07_2IFCnew_2019_Jun_14_1556_121,stimulusDIAN07_2IFCnew_2019_Jun_14_1556_122,True,2019_Jun_14_1556,2IFCnew,3,DIAN07,
2IFCnew,61,0,61,0,0.3337203,2,Yes,11.2,-1,Correct Rejection,0.6672545,False,True,stimulusDIAN07_2IFCnew_2019_Jun_14_1556_123,stimulusDIAN07_2IFCnew_2019_Jun_14_1556_124,True,2019_Jun_14_1556,2IFCnew,3,DIAN07,
2IFCnew,62,0,62,0,0.2669561,2,Yes,15.3,-1,Correct Rejection,0.5345254,False,True,stimulusDIAN07_2IFCnew_2019_Jun_14_1556_125,stimulusDIAN07_2IFCnew_2019_Jun_14_1556_126,True,2019_Jun_14_1556,2IFCnew,3,DIAN07,
2IFCnew,63,0,63,0,0.267183200001,2,Yes,13.9,-1,Correct Rejection,0.50035,False,True,stimulusDIAN07_2IFCnew_2019_Jun_14_1556_127,stimulusDIAN07_2IFCnew_2019_Jun_14_1556_128,True,2019_Jun_14_1556,2IFCnew,3,DIAN07,
2IFCnew,64,0,64,0,0.3008297,2,Yes,12.5,-1,Correct Rejection,0.4689056,False,True,stimulusDIAN07_2IFCnew_2019_Jun_14_1556_129,stimulusDIAN07_2IFCnew_2019_Jun_14_1556_130,True,2019_Jun_14_1556,2IFCnew,3,DIAN07,
2IFCnew,65,0,65,0,0.3670418,1,No,11.2,-1,Hit,0.4671807,True,False,stimulusDIAN07_2IFCnew_2019_Jun_14_1556_131,stimulusDIAN07_2IFCnew_2019_Jun_14_1556_132,True,2019_Jun_14_1556,2IFCnew,3,DIAN07,
2IFCnew,66,0,66,0,-1,1,No,15.3,-1,Hit,0.4669639,True,False,stimulusDIAN07_2IFCnew_2019_Jun_14_1556_133,stimulusDIAN07_2IFCnew_2019_Jun_14_1556_134,True,2019_Jun_14_1556,2IFCnew,3,DIAN07,
2IFCnew,67,0,67,0,0.2334289,2,Yes,15.3,-1,Correct Rejection,0.533927699999,False,True,stimulusDIAN07_2IFCnew_2019_Jun_14_1556_135,stimulusDIAN07_2IFCnew_2019_Jun_14_1556_136,True,2019_Jun_14_1556,2IFCnew,3,DIAN07,
2IFCnew,68,0,68,0,0.3332236,1,No,9.8,-1,Hit,0.502267899999,True,False,stimulusDIAN07_2IFCnew_2019_Jun_14_1556_137,stimulusDIAN07_2IFCnew_2019_Jun_14_1556_138,True,2019_Jun_14_1556,2IFCnew,3,DIAN07,
2IFCnew,69,0,69,0,0.3671693,3,No,12.5,-1,False Alarm,0.6013048,False,True,stimulusDIAN07_2IFCnew_2019_Jun_14_1556_139,stimulusDIAN07_2IFCnew_2019_Jun_14_1556_140,True,2019_Jun_14_1556,2IFCnew,3,DIAN07,
2IFCnew,70,0,70,0,0.1333978,1,No,12.5,-1,Hit,0.5018414,True,False,stimulusDIAN07_2IFCnew_2019_Jun_14_1556_141,stimulusDIAN07_2IFCnew_2019_Jun_14_1556_142,True,2019_Jun_14_1556,2IFCnew,3,DIAN07,
2IFCnew,71,0,71,0,0.367278299999,2,Yes,9.8,-1,Correct Rejection,0.535485699999,False,True,stimulusDIAN07_2IFCnew_2019_Jun_14_1556_143,stimulusDIAN07_2IFCnew_2019_Jun_14_1556_144,True,2019_Jun_14_1556,2IFCnew,3,DIAN07,
2IFCnew,72,0,72,0,0.0335863,1,No,13.9,-1,Hit,0.4337875,True,False,stimulusDIAN07_2IFCnew_2019_Jun_14_1556_145,stimulusDIAN07_2IFCnew_2019_Jun_14_1556_146,True,2019_Jun_14_1556,2IFCnew,3,DIAN07,
2IFCnew,73,0,73,0,0.0331117999995,1,No,16.9,-1,Hit,0.4348723,True,False,stimulusDIAN07_2IFCnew_2019_Jun_14_1556_147,stimulusDIAN07_2IFCnew_2019_Jun_14_1556_148,True,2019_Jun_14_1556,2IFCnew,3,DIAN07,
2IFCnew,74,0,74,0,0.4995694,2,Yes,9.8,-1,Correct Rejection,0.4671452,False,True,stimulusDIAN07_2IFCnew_2019_Jun_14_1556_149,stimulusDIAN07_2IFCnew_2019_Jun_14_1556_150,True,2019_Jun_14_1556,2IFCnew,3,DIAN07,
2IFCnew,0,0,0,0,0.3014279,5,Yes,13.9,-1,False Alarm,0.5346061,False,True,stimulusDIAN07_2IFCnew_2019_Jun_14_1556_151,stimulusDIAN07_2IFCnew_2019_Jun_14_1556_152,True,2019_Jun_14_1556,2IFCnew,3,DIAN07,
2IFCnew,1,0,1,0,0.733755,6,No,8.1,-1,Miss,0.5008547,True,False,stimulusDIAN07_2IFCnew_2019_Jun_14_1556_153,stimulusDIAN07_2IFCnew_2019_Jun_14_1556_154,True,2019_Jun_14_1556,2IFCnew,3,DIAN07,
2IFCnew,2,0,2,0,0.3341163,1,No,11.2,-1,Hit,0.5674287,True,False,stimulusDIAN07_2IFCnew_2019_Jun_14_1556_155,stimulusDIAN07_2IFCnew_2019_Jun_14_1556_156,True,2019_Jun_14_1556,2IFCnew,3,DIAN07,
2IFCnew,3,0,3,0,0.333348900001,2,Yes,13.9,-1,Correct Rejection,0.5337908,False,True,stimulusDIAN07_2IFCnew_2019_Jun_14_1556_157,stimulusDIAN07_2IFCnew_2019_Jun_14_1556_158,True,2019_Jun_14_1556,2IFCnew,3,DIAN07,
2IFCnew,4,0,4,0,0.5339567,8,No,5.8,-1,Correct Rejection,0.56732,False,True,stimulusDIAN07_2IFCnew_2019_Jun_14_1556_159,stimulusDIAN07_2IFCnew_2019_Jun_14_1556_160,True,2019_Jun_14_1556,2IFCnew,3,DIAN07,
2IFCnew,5,0,5,0,0.5678156,3,No,5.8,-1,False Alarm,0.6675032,False,True,stimulusDIAN07_2IFCnew_2019_Jun_14_1556_161,stimulusDIAN07_2IFCnew_2019_Jun_14_1556_162,True,2019_Jun_14_1556,2IFCnew,3,DIAN07,
2IFCnew,6,0,6,0,0.4339063,2,Yes,12.5,-1,Correct Rejection,0.6340309,False,True,stimulusDIAN07_2IFCnew_2019_Jun_14_1556_163,stimulusDIAN07_2IFCnew_2019_Jun_14_1556_164,True,2019_Jun_14_1556,2IFCnew,3,DIAN07,
2IFCnew,7,0,7,0,0.3340691,3,No,11.2,-1,False Alarm,0.5346854,False,True,stimulusDIAN07_2IFCnew_2019_Jun_14_1556_165,stimulusDIAN07_2IFCnew_2019_Jun_14_1556_166,True,2019_Jun_14_1556,2IFCnew,3,DIAN07,
2IFCnew,8,0,8,0,0.2672856,2,Yes,15.3,-1,Correct Rejection,0.5672425,False,True,stimulusDIAN07_2IFCnew_2019_Jun_14_1556_167,stimulusDIAN07_2IFCnew_2019_Jun_14_1556_168,True,2019_Jun_14_1556,2IFCnew,3,DIAN07,
2IFCnew,9,0,9,0,0.300058100001,6,No,12.5,-1,Miss,0.5010265,True,False,stimulusDIAN07_2IFCnew_2019_Jun_14_1556_169,stimulusDIAN07_2IFCnew_2019_Jun_14_1556_170,True,2019_Jun_14_1556,2IFCnew,3,DIAN07,
2IFCnew,10,0,10,0,0.3672794,2,Yes,8.1,-1,Correct Rejection,0.6673736,False,True,stimulusDIAN07_2IFCnew_2019_Jun_14_1556_171,stimulusDIAN07_2IFCnew_2019_Jun_14_1556_172,True,2019_Jun_14_1556,2IFCnew,3,DIAN07,
2IFCnew,11,0,11,0,0.3001281,2,Yes,12.5,-1,Correct Rejection,0.600292900001,False,True,stimulusDIAN07_2IFCnew_2019_Jun_14_1556_173,stimulusDIAN07_2IFCnew_2019_Jun_14_1556_174,True,2019_Jun_14_1556,2IFCnew,3,DIAN07,
2IFCnew,12,0,12,0,0.200401900001,2,Yes,5.8,-1,Correct Rejection,0.7016507,False,True,stimulusDIAN07_2IFCnew_2019_Jun_14_1556_175,stimulusDIAN07_2IFCnew_2019_Jun_14_1556_176,True,2019_Jun_14_1556,2IFCnew,3,DIAN07,
2IFCnew,13,0,13,0,0.3338554,1,No,9.8,-1,Hit,0.5337712,True,False,stimulusDIAN07_2IFCnew_2019_Jun_14_1556_177,stimulusDIAN07_2IFCnew_2019_Jun_14_1556_178,True,2019_Jun_14_1556,2IFCnew,3,DIAN07,
2IFCnew,14,0,14,0,0.367232000001,1,No,12.5,-1,Hit,0.5006734,True,False,stimulusDIAN07_2IFCnew_2019_Jun_14_1556_179,stimulusDIAN07_2IFCnew_2019_Jun_14_1556_180,True,2019_Jun_14_1556,2IFCnew,3,DIAN07,
2IFCnew,15,0,15,0,0.567419999999,3,No,8.1,-1,False Alarm,0.6002415,False,True,stimulusDIAN07_2IFCnew_2019_Jun_14_1556_181,stimulusDIAN07_2IFCnew_2019_Jun_14_1556_182,True,2019_Jun_14_1556,2IFCnew,3,DIAN07,
2IFCnew,16,0,16,0,0.0670518999996,1,No,13.9,-1,Hit,0.5339402,True,False,stimulusDIAN07_2IFCnew_2019_Jun_14_1556_183,stimulusDIAN07_2IFCnew_2019_Jun_14_1556_184,True,2019_Jun_14_1556,2IFCnew,3,DIAN07,
2IFCnew,17,0,17,0,0.3651908,2,Yes,16.9,-1,Correct Rejection,0.6337521,False,True,stimulusDIAN07_2IFCnew_2019_Jun_14_1556_185,stimulusDIAN07_2IFCnew_2019_Jun_14_1556_186,True,2019_Jun_14_1556,2IFCnew,3,DIAN07,
2IFCnew,18,0,18,0,0.400795,2,Yes,12.5,-1,Correct Rejection,0.6681058,False,True,stimulusDIAN07_2IFCnew_2019_Jun_14_1556_187,stimulusDIAN07_2IFCnew_2019_Jun_14_1556_188,True,2019_Jun_14_1556,2IFCnew,3,DIAN07,
2IFCnew,19,0,19,0,0.3668035,3,No,5.8,-1,False Alarm,0.467072799999,False,True,stimulusDIAN07_2IFCnew_2019_Jun_14_1556_189,stimulusDIAN07_2IFCnew_2019_Jun_14_1556_190,True,2019_Jun_14_1556,2IFCnew,3,DIAN07,
2IFCnew,20,0,20,0,0.2336637,1,No,11.2,-1,Hit,0.6683161,True,False,stimulusDIAN07_2IFCnew_2019_Jun_14_1556_191,stimulusDIAN07_2IFCnew_2019_Jun_14_1556_192,True,2019_Jun_14_1556,2IFCnew,3,DIAN07,
2IFCnew,21,0,21,0,0.0338071999995,1,No,16.9,-1,Hit,0.500563000001,True,False,stimulusDIAN07_2IFCnew_2019_Jun_14_1556_193,stimulusDIAN07_2IFCnew_2019_Jun_14_1556_194,True,2019_Jun_14_1556,2IFCnew,3,DIAN07,
2IFCnew,22,0,22,0,0.2673752,3,No,12.5,-1,False Alarm,0.7020625,False,True,stimulusDIAN07_2IFCnew_2019_Jun_14_1556_195,stimulusDIAN07_2IFCnew_2019_Jun_14_1556_196,True,2019_Jun_14_1556,2IFCnew,3,DIAN07,
2IFCnew,23,0,23,0,0.400339999999,1,No,8.1,-1,Hit,0.6342173,True,False,stimulusDIAN07_2IFCnew_2019_Jun_14_1556_197,stimulusDIAN07_2IFCnew_2019_Jun_14_1556_198,True,2019_Jun_14_1556,2IFCnew,3,DIAN07,
2IFCnew,24,0,24,0,0.0991200000008,2,Yes,8.1,-1,Correct Rejection,0.601453400001,False,True,stimulusDIAN07_2IFCnew_2019_Jun_14_1556_199,stimulusDIAN07_2IFCnew_2019_Jun_14_1556_200,True,2019_Jun_14_1556,2IFCnew,3,DIAN07,
2IFCnew,25,0,25,0,0.0668771999999,2,Yes,8.1,-1,Correct Rejection,0.5015463,False,True,stimulusDIAN07_2IFCnew_2019_Jun_14_1556_201,stimulusDIAN07_2IFCnew_2019_Jun_14_1556_202,True,2019_Jun_14_1556,2IFCnew,3,DIAN07,
2IFCnew,26,0,26,0,0.0340315000003,1,No,16.9,-1,Hit,0.5006813,True,False,stimulusDIAN07_2IFCnew_2019_Jun_14_1556_203,stimulusDIAN07_2IFCnew_2019_Jun_14_1556_204,True,2019_Jun_14_1556,2IFCnew,3,DIAN07,
2IFCnew,27,0,27,0,0.0335724000006,1,No,15.3,-1,Hit,0.5338971,True,False,stimulusDIAN07_2IFCnew_2019_Jun_14_1556_205,stimulusDIAN07_2IFCnew_2019_Jun_14_1556_206,True,2019_Jun_14_1556,2IFCnew,3,DIAN07,
2IFCnew,28,0,28,0,0.133538,1,No,12.5,-1,Hit,0.6012094,True,False,stimulusDIAN07_2IFCnew_2019_Jun_14_1556_207,stimulusDIAN07_2IFCnew_2019_Jun_14_1556_208,True,2019_Jun_14_1556,2IFCnew,3,DIAN07,
2IFCnew,29,0,29,0,0.0670683999997,1,No,13.9,-1,Hit,0.5008531,True,False,stimulusDIAN07_2IFCnew_2019_Jun_14_1556_209,stimulusDIAN07_2IFCnew_2019_Jun_14_1556_210,True,2019_Jun_14_1556,2IFCnew,3,DIAN07,
2IFCnew,30,0,30,0,-1,1,No,12.5,-1,Hit,0.4674258,True,False,stimulusDIAN07_2IFCnew_2019_Jun_14_1556_211,stimulusDIAN07_2IFCnew_2019_Jun_14_1556_212,True,2019_Jun_14_1556,2IFCnew,3,DIAN07,
2IFCnew,31,0,31,0,0.3681222,2,Yes,13.9,-1,Correct Rejection,0.5340156,False,True,stimulusDIAN07_2IFCnew_2019_Jun_14_1556_213,stimulusDIAN07_2IFCnew_2019_Jun_14_1556_214,True,2019_Jun_14_1556,2IFCnew,3,DIAN07,
2IFCnew,32,0,32,0,0.2339768,4,Yes,5.8,-1,Miss,0.6004117,True,False,stimulusDIAN07_2IFCnew_2019_Jun_14_1556_215,stimulusDIAN07_2IFCnew_2019_Jun_14_1556_216,True,2019_Jun_14_1556,2IFCnew,3,DIAN07,
2IFCnew,33,0,33,0,0.0335227000005,1,No,15.3,-1,Hit,0.3671463,True,False,stimulusDIAN07_2IFCnew_2019_Jun_14_1556_217,stimulusDIAN07_2IFCnew_2019_Jun_14_1556_218,True,2019_Jun_14_1556,2IFCnew,3,DIAN07,
2IFCnew,34,0,34,0,0.1004117,1,No,16.9,-1,Hit,0.4341772,True,False,stimulusDIAN07_2IFCnew_2019_Jun_14_1556_219,stimulusDIAN07_2IFCnew_2019_Jun_14_1556_220,True,2019_Jun_14_1556,2IFCnew,3,DIAN07,
2IFCnew,35,0,35,0,0.0670739999996,1,No,15.3,-1,Hit,0.5335967,True,False,stimulusDIAN07_2IFCnew_2019_Jun_14_1556_221,stimulusDIAN07_2IFCnew_2019_Jun_14_1556_222,True,2019_Jun_14_1556,2IFCnew,3,DIAN07,
2IFCnew,36,0,36,0,-1,1,No,15.3,-1,Hit,0.3671021,True,False,stimulusDIAN07_2IFCnew_2019_Jun_14_1556_223,stimulusDIAN07_2IFCnew_2019_Jun_14_1556_224,True,2019_Jun_14_1556,2IFCnew,3,DIAN07,
2IFCnew,37,0,37,0,0.1335075,1,No,13.9,-1,Hit,0.467707199999,True,False,stimulusDIAN07_2IFCnew_2019_Jun_14_1556_225,stimulusDIAN07_2IFCnew_2019_Jun_14_1556_226,True,2019_Jun_14_1556,2IFCnew,3,DIAN07,
2IFCnew,38,0,38,0,0.2667601,2,Yes,16.9,-1,Correct Rejection,0.600578899999,False,True,stimulusDIAN07_2IFCnew_2019_Jun_14_1556_227,stimulusDIAN07_2IFCnew_2019_Jun_14_1556_228,True,2019_Jun_14_1556,2IFCnew,3,DIAN07,
2IFCnew,39,0,39,0,0.1981632,3,No,13.9,-1,False Alarm,0.6010709,False,True,stimulusDIAN07_2IFCnew_2019_Jun_14_1556_229,stimulusDIAN07_2IFCnew_2019_Jun_14_1556_230,True,2019_Jun_14_1556,2IFCnew,3,DIAN07,
2IFCnew,40,0,40,0,0.0665844999994,1,No,15.3,-1,Hit,0.5340546,True,False,stimulusDIAN07_2IFCnew_2019_Jun_14_1556_231,stimulusDIAN07_2IFCnew_2019_Jun_14_1556_232,True,2019_Jun_14_1556,2IFCnew,3,DIAN07,
2IFCnew,41,0,41,0,0.1339005,1,No,11.2,-1,Hit,0.6013206,True,False,stimulusDIAN07_2IFCnew_2019_Jun_14_1556_233,stimulusDIAN07_2IFCnew_2019_Jun_14_1556_234,True,2019_Jun_14_1556,2IFCnew,3,DIAN07,
2IFCnew,42,0,42,0,0.0670423000001,1,No,9.8,-1,Hit,0.467259,True,False,stimulusDIAN07_2IFCnew_2019_Jun_14_1556_235,stimulusDIAN07_2IFCnew_2019_Jun_14_1556_236,True,2019_Jun_14_1556,2IFCnew,3,DIAN07,
2IFCnew,43,0,43,0,0.0999120000006,1,No,15.3,-1,Hit,0.4673573,True,False,stimulusDIAN07_2IFCnew_2019_Jun_14_1556_237,stimulusDIAN07_2IFCnew_2019_Jun_14_1556_238,True,2019_Jun_14_1556,2IFCnew,3,DIAN07,
2IFCnew,44,0,44,0,0.333454600001,2,Yes,12.5,-1,Correct Rejection,0.5333416,False,True,stimulusDIAN07_2IFCnew_2019_Jun_14_1556_239,stimulusDIAN07_2IFCnew_2019_Jun_14_1556_240,True,2019_Jun_14_1556,2IFCnew,3,DIAN07,
2IFCnew,45,0,45,0,0.467386,2,Yes,5.8,-1,Correct Rejection,0.8676789,False,True,stimulusDIAN07_2IFCnew_2019_Jun_14_1556_241,stimulusDIAN07_2IFCnew_2019_Jun_14_1556_242,True,2019_Jun_14_1556,2IFCnew,3,DIAN07,
2IFCnew,46,0,46,0,-1,1,Yes,15.3,-1,Hit,0.4666707,True,False,stimulusDIAN07_2IFCnew_2019_Jun_14_1556_243,stimulusDIAN07_2IFCnew_2019_Jun_14_1556_244,True,2019_Jun_14_1556,2IFCnew,3,DIAN07,
2IFCnew,47,0,47,0,0.1003093,1,No,11.2,-1,Hit,0.466436199999,True,False,stimulusDIAN07_2IFCnew_2019_Jun_14_1556_245,stimulusDIAN07_2IFCnew_2019_Jun_14_1556_246,True,2019_Jun_14_1556,2IFCnew,3,DIAN07,
2IFCnew,48,0,48,0,0.0335984000003,1,No,15.3,-1,Hit,0.4674317,True,False,stimulusDIAN07_2IFCnew_2019_Jun_14_1556_247,stimulusDIAN07_2IFCnew_2019_Jun_14_1556_248,True,2019_Jun_14_1556,2IFCnew,3,DIAN07,
2IFCnew,49,0,49,0,0.2667515,1,No,13.9,-1,Hit,0.4675584,True,False,stimulusDIAN07_2IFCnew_2019_Jun_14_1556_249,stimulusDIAN07_2IFCnew_2019_Jun_14_1556_250,True,2019_Jun_14_1556,2IFCnew,3,DIAN07,
2IFCnew,50,0,50,0,0.2332817,1,No,11.2,-1,Hit,0.46712,True,False,stimulusDIAN07_2IFCnew_2019_Jun_14_1556_251,stimulusDIAN07_2IFCnew_2019_Jun_14_1556_252,True,2019_Jun_14_1556,2IFCnew,3,DIAN07,
2IFCnew,51,0,51,0,0.2336555,1,No,9.8,-1,Hit,0.500062,True,False,stimulusDIAN07_2IFCnew_2019_Jun_14_1556_253,stimulusDIAN07_2IFCnew_2019_Jun_14_1556_254,True,2019_Jun_14_1556,2IFCnew,3,DIAN07,
2IFCnew,52,0,52,0,0.3338359,2,Yes,16.9,-1,Correct Rejection,0.567179,False,True,stimulusDIAN07_2IFCnew_2019_Jun_14_1556_255,stimulusDIAN07_2IFCnew_2019_Jun_14_1556_256,True,2019_Jun_14_1556,2IFCnew,3,DIAN07,
2IFCnew,53,0,53,0,-1,1,Yes,12.5,-1,Hit,0.4686046,True,False,stimulusDIAN07_2IFCnew_2019_Jun_14_1556_257,stimulusDIAN07_2IFCnew_2019_Jun_14_1556_258,True,2019_Jun_14_1556,2IFCnew,3,DIAN07,
2IFCnew,54,0,54,0,0.0675102999994,1,No,12.5,-1,Hit,0.4343493,True,False,stimulusDIAN07_2IFCnew_2019_Jun_14_1556_259,stimulusDIAN07_2IFCnew_2019_Jun_14_1556_260,True,2019_Jun_14_1556,2IFCnew,3,DIAN07,
2IFCnew,55,0,55,0,0.2333931,1,No,8.1,-1,Hit,0.501757399999,True,False,stimulusDIAN07_2IFCnew_2019_Jun_14_1556_261,stimulusDIAN07_2IFCnew_2019_Jun_14_1556_262,True,2019_Jun_14_1556,2IFCnew,3,DIAN07,
2IFCnew,56,0,56,0,0.5681341,5,Yes,16.9,-1,False Alarm,0.567753300001,False,True,stimulusDIAN07_2IFCnew_2019_Jun_14_1556_263,stimulusDIAN07_2IFCnew_2019_Jun_14_1556_264,True,2019_Jun_14_1556,2IFCnew,3,DIAN07,
2IFCnew,57,0,57,0,0.3333553,2,Yes,16.9,-1,Correct Rejection,0.667528499999,False,True,stimulusDIAN07_2IFCnew_2019_Jun_14_1556_265,stimulusDIAN07_2IFCnew_2019_Jun_14_1556_266,True,2019_Jun_14_1556,2IFCnew,3,DIAN07,
2IFCnew,58,0,58,0,0.2003191,1,No,11.2,-1,Hit,0.433475899999,True,False,stimulusDIAN07_2IFCnew_2019_Jun_14_1556_267,stimulusDIAN07_2IFCnew_2019_Jun_14_1556_268,True,2019_Jun_14_1556,2IFCnew,3,DIAN07,
2IFCnew,59,0,59,0,0.3341978,2,Yes,9.8,-1,Correct Rejection,0.6011728,False,True,stimulusDIAN07_2IFCnew_2019_Jun_14_1556_269,stimulusDIAN07_2IFCnew_2019_Jun_14_1556_270,True,2019_Jun_14_1556,2IFCnew,3,DIAN07,
2IFCnew,60,0,60,0,0.3003035,1,No,13.9,-1,Hit,0.4006501,True,False,stimulusDIAN07_2IFCnew_2019_Jun_14_1556_271,stimulusDIAN07_2IFCnew_2019_Jun_14_1556_272,True,2019_Jun_14_1556,2IFCnew,3,DIAN07,
2IFCnew,61,0,61,0,0.2335326,1,No,12.5,-1,Hit,0.500804,True,False,stimulusDIAN07_2IFCnew_2019_Jun_14_1556_273,stimulusDIAN07_2IFCnew_2019_Jun_14_1556_274,True,2019_Jun_14_1556,2IFCnew,3,DIAN07,
2IFCnew,62,0,62,0,0.333468,1,No,8.1,-1,Hit,0.5010703,True,False,stimulusDIAN07_2IFCnew_2019_Jun_14_1556_275,stimulusDIAN07_2IFCnew_2019_Jun_14_1556_276,True,2019_Jun_14_1556,2IFCnew,3,DIAN07,
2IFCnew,63,0,63,0,0.3673296,5,Yes,13.9,-1,False Alarm,0.5671375,False,True,stimulusDIAN07_2IFCnew_2019_Jun_14_1556_277,stimulusDIAN07_2IFCnew_2019_Jun_14_1556_278,True,2019_Jun_14_1556,2IFCnew,3,DIAN07,
2IFCnew,64,0,64,0,0.4005579,5,Yes,12.5,-1,False Alarm,0.5661934,False,True,stimulusDIAN07_2IFCnew_2019_Jun_14_1556_279,stimulusDIAN07_2IFCnew_2019_Jun_14_1556_280,True,2019_Jun_14_1556,2IFCnew,3,DIAN07,
2IFCnew,65,0,65,0,0.6680329,8,No,5.8,-1,Correct Rejection,0.7673341,False,True,stimulusDIAN07_2IFCnew_2019_Jun_14_1556_281,stimulusDIAN07_2IFCnew_2019_Jun_14_1556_282,True,2019_Jun_14_1556,2IFCnew,3,DIAN07,
2IFCnew,66,0,66,0,0.1002282,1,No,16.9,-1,Hit,0.4667707,True,False,stimulusDIAN07_2IFCnew_2019_Jun_14_1556_283,stimulusDIAN07_2IFCnew_2019_Jun_14_1556_284,True,2019_Jun_14_1556,2IFCnew,3,DIAN07,
2IFCnew,67,0,67,0,0.233719299999,1,No,15.3,-1,Hit,0.400613100001,True,False,stimulusDIAN07_2IFCnew_2019_Jun_14_1556_285,stimulusDIAN07_2IFCnew_2019_Jun_14_1556_286,True,2019_Jun_14_1556,2IFCnew,3,DIAN07,
2IFCnew,68,0,68,0,0.0996720000003,1,No,9.8,-1,Hit,0.500757899999,True,False,stimulusDIAN07_2IFCnew_2019_Jun_14_1556_287,stimulusDIAN07_2IFCnew_2019_Jun_14_1556_288,True,2019_Jun_14_1556,2IFCnew,3,DIAN07,
2IFCnew,69,0,69,0,0.1335688,3,No,8.1,-1,False Alarm,0.467442,False,True,stimulusDIAN07_2IFCnew_2019_Jun_14_1556_289,stimulusDIAN07_2IFCnew_2019_Jun_14_1556_290,True,2019_Jun_14_1556,2IFCnew,3,DIAN07,
2IFCnew,70,0,70,0,0.2670033,2,Yes,13.9,-1,Correct Rejection,0.5336706,False,True,stimulusDIAN07_2IFCnew_2019_Jun_14_1556_291,stimulusDIAN07_2IFCnew_2019_Jun_14_1556_292,True,2019_Jun_14_1556,2IFCnew,3,DIAN07,
2IFCnew,71,0,71,0,0.167716,1,No,16.9,-1,Hit,0.469030900001,True,False,stimulusDIAN07_2IFCnew_2019_Jun_14_1556_293,stimulusDIAN07_2IFCnew_2019_Jun_14_1556_294,True,2019_Jun_14_1556,2IFCnew,3,DIAN07,
2IFCnew,72,0,72,0,0.1337295,3,No,12.5,-1,False Alarm,0.5658881,False,True,stimulusDIAN07_2IFCnew_2019_Jun_14_1556_295,stimulusDIAN07_2IFCnew_2019_Jun_14_1556_296,True,2019_Jun_14_1556,2IFCnew,3,DIAN07,
2IFCnew,73,0,73,0,0.133540700001,1,No,15.3,-1,Hit,0.4673844,True,False,stimulusDIAN07_2IFCnew_2019_Jun_14_1556_297,stimulusDIAN07_2IFCnew_2019_Jun_14_1556_298,True,2019_Jun_14_1556,2IFCnew,3,DIAN07,
2IFCnew,74,0,74,0,0.3990765,4,Yes,5.8,-1,Miss,0.7007091,True,False,stimulusDIAN07_2IFCnew_2019_Jun_14_1556_299,stimulusDIAN07_2IFCnew_2019_Jun_14_1556_300,True,2019_Jun_14_1556,2IFCnew,3,DIAN07,
2IFCnew,0,0,0,0,0.5005446,6,No,13.9,-1,Miss,0.667359399999,True,False,stimulusDIAN07_2IFCnew_2019_Jun_14_1556_301,stimulusDIAN07_2IFCnew_2019_Jun_14_1556_302,True,2019_Jun_14_1556,2IFCnew,3,DIAN07,
2IFCnew,1,0,1,0,0.2999369,2,Yes,5.8,-1,Correct Rejection,0.5005655,False,True,stimulusDIAN07_2IFCnew_2019_Jun_14_1556_303,stimulusDIAN07_2IFCnew_2019_Jun_14_1556_304,True,2019_Jun_14_1556,2IFCnew,3,DIAN07,
2IFCnew,2,0,2,0,0.2006625,1,No,13.9,-1,Hit,0.467441199999,True,False,stimulusDIAN07_2IFCnew_2019_Jun_14_1556_305,stimulusDIAN07_2IFCnew_2019_Jun_14_1556_306,True,2019_Jun_14_1556,2IFCnew,3,DIAN07,
2IFCnew,3,0,3,0,0.3672777,1,No,15.3,-1,Hit,0.5004126,True,False,stimulusDIAN07_2IFCnew_2019_Jun_14_1556_307,stimulusDIAN07_2IFCnew_2019_Jun_14_1556_308,True,2019_Jun_14_1556,2IFCnew,3,DIAN07,
2IFCnew,4,0,4,0,-1,3,No,13.9,-1,Correct Rejection,0.4333153,False,True,stimulusDIAN07_2IFCnew_2019_Jun_14_1556_309,stimulusDIAN07_2IFCnew_2019_Jun_14_1556_310,True,2019_Jun_14_1556,2IFCnew,3,DIAN07,
2IFCnew,5,0,5,0,0.2335021,1,No,16.9,-1,Hit,0.600028,True,False,stimulusDIAN07_2IFCnew_2019_Jun_14_1556_311,stimulusDIAN07_2IFCnew_2019_Jun_14_1556_312,True,2019_Jun_14_1556,2IFCnew,3,DIAN07,
2IFCnew,6,0,6,0,0.5005418,1,No,16.9,-1,Hit,0.533797,True,False,stimulusDIAN07_2IFCnew_2019_Jun_14_1556_313,stimulusDIAN07_2IFCnew_2019_Jun_14_1556_314,True,2019_Jun_14_1556,2IFCnew,3,DIAN07,
2IFCnew,7,0,7,0,0.367400499999,2,Yes,13.9,-1,Correct Rejection,0.500633000001,False,True,stimulusDIAN07_2IFCnew_2019_Jun_14_1556_315,stimulusDIAN07_2IFCnew_2019_Jun_14_1556_316,True,2019_Jun_14_1556,2IFCnew,3,DIAN07,
2IFCnew,8,0,8,0,0.3336591,1,No,5.8,-1,Hit,0.5684145,True,False,stimulusDIAN07_2IFCnew_2019_Jun_14_1556_317,stimulusDIAN07_2IFCnew_2019_Jun_14_1556_318,True,2019_Jun_14_1556,2IFCnew,3,DIAN07,
2IFCnew,9,0,9,0,0.2673178,2,Yes,5.8,-1,Correct Rejection,0.500568500001,False,True,stimulusDIAN07_2IFCnew_2019_Jun_14_1556_319,stimulusDIAN07_2IFCnew_2019_Jun_14_1556_320,True,2019_Jun_14_1556,2IFCnew,3,DIAN07,
2IFCnew,10,0,10,0,0.300725,1,No,11.2,-1,Hit,0.5351706,True,False,stimulusDIAN07_2IFCnew_2019_Jun_14_1556_321,stimulusDIAN07_2IFCnew_2019_Jun_14_1556_322,True,2019_Jun_14_1556,2IFCnew,3,DIAN07,
2IFCnew,11,0,11,0,0.4681908,3,No,9.8,-1,False Alarm,0.5676317,False,True,stimulusDIAN07_2IFCnew_2019_Jun_14_1556_323,stimulusDIAN07_2IFCnew_2019_Jun_14_1556_324,True,2019_Jun_14_1556,2IFCnew,3,DIAN07,
2IFCnew,12,0,12,0,0.402049599999,2,Yes,12.5,-1,Correct Rejection,0.4675814,False,True,stimulusDIAN07_2IFCnew_2019_Jun_14_1556_325,stimulusDIAN07_2IFCnew_2019_Jun_14_1556_326,True,2019_Jun_14_1556,2IFCnew,3,DIAN07,
2IFCnew,13,0,13,0,0.3666383,2,Yes,15.3,-1,Correct Rejection,0.5670261,False,True,stimulusDIAN07_2IFCnew_2019_Jun_14_1556_327,stimulusDIAN07_2IFCnew_2019_Jun_14_1556_328,True,2019_Jun_14_1556,2IFCnew,3,DIAN07,
2IFCnew,14,0,14,0,0.367672699999,3,No,16.9,-1,False Alarm,0.63444,False,True,stimulusDIAN07_2IFCnew_2019_Jun_14_1556_329,stimulusDIAN07_2IFCnew_2019_Jun_14_1556_330,True,2019_Jun_14_1556,2IFCnew,3,DIAN07,
2IFCnew,15,0,15,0,0.3675744,5,Yes,15.3,-1,False Alarm,0.4669263,False,True,stimulusDIAN07_2IFCnew_2019_Jun_14_1556_331,stimulusDIAN07_2IFCnew_2019_Jun_14_1556_332,True,2019_Jun_14_1556,2IFCnew,3,DIAN07,
2IFCnew,16,0,16,0,0.3671433,6,No,5.8,-1,Miss,0.7006852,True,False,stimulusDIAN07_2IFCnew_2019_Jun_14_1556_333,stimulusDIAN07_2IFCnew_2019_Jun_14_1556_334,True,2019_Jun_14_1556,2IFCnew,3,DIAN07,
2IFCnew,17,0,17,0,0.5004852,2,Yes,15.3,-1,Correct Rejection,0.534197,False,True,stimulusDIAN07_2IFCnew_2019_Jun_14_1556_335,stimulusDIAN07_2IFCnew_2019_Jun_14_1556_336,True,2019_Jun_14_1556,2IFCnew,3,DIAN07,
2IFCnew,18,0,18,0,0.5340668,2,Yes,9.8,-1,Correct Rejection,0.5009067,False,True,stimulusDIAN07_2IFCnew_2019_Jun_14_1556_337,stimulusDIAN07_2IFCnew_2019_Jun_14_1556_338,True,2019_Jun_14_1556,2IFCnew,3,DIAN07,
2IFCnew,19,0,19,0,0.2670566,4,Yes,5.8,-1,Miss,0.6340405,True,False,stimulusDIAN07_2IFCnew_2019_Jun_14_1556_339,stimulusDIAN07_2IFCnew_2019_Jun_14_1556_340,True,2019_Jun_14_1556,2IFCnew,3,DIAN07,
2IFCnew,20,0,20,0,0.2668745,4,Yes,5.8,-1,Miss,0.6019146,True,False,stimulusDIAN07_2IFCnew_2019_Jun_14_1556_341,stimulusDIAN07_2IFCnew_2019_Jun_14_1556_342,True,2019_Jun_14_1556,2IFCnew,3,DIAN07,
2IFCnew,21,0,21,0,0.5668512,5,Yes,16.9,-1,False Alarm,0.4664989,False,True,stimulusDIAN07_2IFCnew_2019_Jun_14_1556_343,stimulusDIAN07_2IFCnew_2019_Jun_14_1556_344,True,2019_Jun_14_1556,2IFCnew,3,DIAN07,
2IFCnew,22,0,22,0,0.5668237,5,Yes,13.9,-1,False Alarm,0.5667415,False,True,stimulusDIAN07_2IFCnew_2019_Jun_14_1556_345,stimulusDIAN07_2IFCnew_2019_Jun_14_1556_346,True,2019_Jun_14_1556,2IFCnew,3,DIAN07,
2IFCnew,23,0,23,0,0.3672391,2,Yes,12.5,-1,Correct Rejection,0.6348046,False,True,stimulusDIAN07_2IFCnew_2019_Jun_14_1556_347,stimulusDIAN07_2IFCnew_2019_Jun_14_1556_348,True,2019_Jun_14_1556,2IFCnew,3,DIAN07,
2IFCnew,24,0,24,0,0.3010763,2,Yes,9.8,-1,Correct Rejection,0.5338652,False,True,stimulusDIAN07_2IFCnew_2019_Jun_14_1556_349,stimulusDIAN07_2IFCnew_2019_Jun_14_1556_350,True,2019_Jun_14_1556,2IFCnew,3,DIAN07,
2IFCnew,25,0,25,0,0.433520799999,1,No,9.8,-1,Hit,0.501021900001,True,False,stimulusDIAN07_2IFCnew_2019_Jun_14_1556_351,stimulusDIAN07_2IFCnew_2019_Jun_14_1556_352,True,2019_Jun_14_1556,2IFCnew,3,DIAN07,
2IFCnew,26,0,26,0,0.3002866,2,Yes,8.1,-1,Correct Rejection,0.5341356,False,True,stimulusDIAN07_2IFCnew_2019_Jun_14_1556_353,stimulusDIAN07_2IFCnew_2019_Jun_14_1556_354,True,2019_Jun_14_1556,2IFCnew,3,DIAN07,
2IFCnew,27,0,27,0,0.233751700001,2,Yes,15.3,-1,Correct Rejection,0.667160399999,False,True,stimulusDIAN07_2IFCnew_2019_Jun_14_1556_355,stimulusDIAN07_2IFCnew_2019_Jun_14_1556_356,True,2019_Jun_14_1556,2IFCnew,3,DIAN07,
2IFCnew,28,0,28,0,0.3007657,2,Yes,8.1,-1,Correct Rejection,0.5674961,False,True,stimulusDIAN07_2IFCnew_2019_Jun_14_1556_357,stimulusDIAN07_2IFCnew_2019_Jun_14_1556_358,True,2019_Jun_14_1556,2IFCnew,3,DIAN07,
2IFCnew,29,0,29,0,0.0668391999998,1,No,9.8,-1,Hit,0.4672752,True,False,stimulusDIAN07_2IFCnew_2019_Jun_14_1556_359,stimulusDIAN07_2IFCnew_2019_Jun_14_1556_360,True,2019_Jun_14_1556,2IFCnew,3,DIAN07,
2IFCnew,30,0,30,0,0.3005086,2,Yes,16.9,-1,Correct Rejection,0.5340509,False,True,stimulusDIAN07_2IFCnew_2019_Jun_14_1556_361,stimulusDIAN07_2IFCnew_2019_Jun_14_1556_362,True,2019_Jun_14_1556,2IFCnew,3,DIAN07,
2IFCnew,31,0,31,0,0.7018147,6,No,11.2,-1,Miss,0.4335226,True,False,stimulusDIAN07_2IFCnew_2019_Jun_14_1556_363,stimulusDIAN07_2IFCnew_2019_Jun_14_1556_364,True,2019_Jun_14_1556,2IFCnew,3,DIAN07,
2IFCnew,32,0,32,0,0.433598099999,1,No,11.2,-1,Hit,0.4994873,True,False,stimulusDIAN07_2IFCnew_2019_Jun_14_1556_365,stimulusDIAN07_2IFCnew_2019_Jun_14_1556_366,True,2019_Jun_14_1556,2IFCnew,3,DIAN07,
2IFCnew,33,0,33,0,0.434413999999,1,No,9.8,-1,Hit,0.4674588,True,False,stimulusDIAN07_2IFCnew_2019_Jun_14_1556_367,stimulusDIAN07_2IFCnew_2019_Jun_14_1556_368,True,2019_Jun_14_1556,2IFCnew,3,DIAN07,
2IFCnew,34,0,34,0,0.433937,3,No,5.8,-1,False Alarm,0.6006947,False,True,stimulusDIAN07_2IFCnew_2019_Jun_14_1556_369,stimulusDIAN07_2IFCnew_2019_Jun_14_1556_370,True,2019_Jun_14_1556,2IFCnew,3,DIAN07,
2IFCnew,35,0,35,0,0.200076399999,5,Yes,12.5,-1,False Alarm,0.4008676,False,True,stimulusDIAN07_2IFCnew_2019_Jun_14_1556_371,stimulusDIAN07_2IFCnew_2019_Jun_14_1556_372,True,2019_Jun_14_1556,2IFCnew,3,DIAN07,
2IFCnew,36,0,36,0,-1,1,Yes,15.3,-1,Hit,0.5332696,True,False,stimulusDIAN07_2IFCnew_2019_Jun_14_1556_373,stimulusDIAN07_2IFCnew_2019_Jun_14_1556_374,True,2019_Jun_14_1556,2IFCnew,3,DIAN07,
2IFCnew,37,0,37,0,0.2672428,2,Yes,5.8,-1,Correct Rejection,0.6005574,False,True,stimulusDIAN07_2IFCnew_2019_Jun_14_1556_375,stimulusDIAN07_2IFCnew_2019_Jun_14_1556_376,True,2019_Jun_14_1556,2IFCnew,3,DIAN07,
2IFCnew,38,0,38,0,-1,1,Yes,13.9,-1,Hit,0.5002759,True,False,stimulusDIAN07_2IFCnew_2019_Jun_14_1556_377,stimulusDIAN07_2IFCnew_2019_Jun_14_1556_378,True,2019_Jun_14_1556,2IFCnew,3,DIAN07,
2IFCnew,39,0,39,0,-1,1,Yes,8.1,-1,Hit,0.5335897,True,False,stimulusDIAN07_2IFCnew_2019_Jun_14_1556_379,stimulusDIAN07_2IFCnew_2019_Jun_14_1556_380,True,2019_Jun_14_1556,2IFCnew,3,DIAN07,
2IFCnew,40,0,40,0,0.2002407,2,Yes,15.3,-1,Correct Rejection,0.6675193,False,True,stimulusDIAN07_2IFCnew_2019_Jun_14_1556_381,stimulusDIAN07_2IFCnew_2019_Jun_14_1556_382,True,2019_Jun_14_1556,2IFCnew,3,DIAN07,
2IFCnew,41,0,41,0,0.0665461999997,1,No,16.9,-1,Hit,0.5668729,True,False,stimulusDIAN07_2IFCnew_2019_Jun_14_1556_383,stimulusDIAN07_2IFCnew_2019_Jun_14_1556_384,True,2019_Jun_14_1556,2IFCnew,3,DIAN07,
2IFCnew,42,0,42,0,0.400954000001,2,Yes,12.5,-1,Correct Rejection,0.6690773,False,True,stimulusDIAN07_2IFCnew_2019_Jun_14_1556_385,stimulusDIAN07_2IFCnew_2019_Jun_14_1556_386,True,2019_Jun_14_1556,2IFCnew,3,DIAN07,
2IFCnew,43,0,43,0,0.1337385,2,Yes,16.9,-1,Correct Rejection,0.5004257,False,True,stimulusDIAN07_2IFCnew_2019_Jun_14_1556_387,stimulusDIAN07_2IFCnew_2019_Jun_14_1556_388,True,2019_Jun_14_1556,2IFCnew,3,DIAN07,
2IFCnew,44,0,44,0,0.3015575,2,Yes,12.5,-1,Correct Rejection,0.6336703,False,True,stimulusDIAN07_2IFCnew_2019_Jun_14_1556_389,stimulusDIAN07_2IFCnew_2019_Jun_14_1556_390,True,2019_Jun_14_1556,2IFCnew,3,DIAN07,
2IFCnew,45,0,45,0,0.6004579,1,No,13.9,-1,Hit,0.4665957,True,False,stimulusDIAN07_2IFCnew_2019_Jun_14_1556_391,stimulusDIAN07_2IFCnew_2019_Jun_14_1556_392,True,2019_Jun_14_1556,2IFCnew,3,DIAN07,
2IFCnew,46,0,46,0,0.3335204,1,No,13.9,-1,Hit,0.567334599999,True,False,stimulusDIAN07_2IFCnew_2019_Jun_14_1556_393,stimulusDIAN07_2IFCnew_2019_Jun_14_1556_394,True,2019_Jun_14_1556,2IFCnew,3,DIAN07,
2IFCnew,47,0,47,0,0.3673475,2,Yes,12.5,-1,Correct Rejection,0.668366100001,False,True,stimulusDIAN07_2IFCnew_2019_Jun_14_1556_395,stimulusDIAN07_2IFCnew_2019_Jun_14_1556_396,True,2019_Jun_14_1556,2IFCnew,3,DIAN07,
2IFCnew,48,0,48,0,0.7343931,2,Yes,9.8,-1,Correct Rejection,0.6337909,False,True,stimulusDIAN07_2IFCnew_2019_Jun_14_1556_397,stimulusDIAN07_2IFCnew_2019_Jun_14_1556_398,True,2019_Jun_14_1556,2IFCnew,3,DIAN07,
2IFCnew,49,0,49,0,-1,2,Yes,8.1,-1,False Alarm,0.8006887,False,True,stimulusDIAN07_2IFCnew_2019_Jun_14_1556_399,stimulusDIAN07_2IFCnew_2019_Jun_14_1556_400,True,2019_Jun_14_1556,2IFCnew,3,DIAN07,
2IFCnew,50,0,50,0,-1,1,Yes,13.9,-1,Hit,0.4674027,True,False,stimulusDIAN07_2IFCnew_2019_Jun_14_1556_401,stimulusDIAN07_2IFCnew_2019_Jun_14_1556_402,True,2019_Jun_14_1556,2IFCnew,3,DIAN07,
2IFCnew,51,0,51,0,0.6006176,5,Yes,15.3,-1,False Alarm,0.6685716,False,True,stimulusDIAN07_2IFCnew_2019_Jun_14_1556_403,stimulusDIAN07_2IFCnew_2019_Jun_14_1556_404,True,2019_Jun_14_1556,2IFCnew,3,DIAN07,
2IFCnew,52,0,52,0,0.5005855,5,Yes,11.2,-1,False Alarm,0.734134900001,False,True,stimulusDIAN07_2IFCnew_2019_Jun_14_1556_405,stimulusDIAN07_2IFCnew_2019_Jun_14_1556_406,True,2019_Jun_14_1556,2IFCnew,3,DIAN07,
2IFCnew,53,0,53,0,0.2339569,1,No,9.8,-1,Hit,0.6008322,True,False,stimulusDIAN07_2IFCnew_2019_Jun_14_1556_407,stimulusDIAN07_2IFCnew_2019_Jun_14_1556_408,True,2019_Jun_14_1556,2IFCnew,3,DIAN07,
2IFCnew,54,0,54,0,0.1343804,1,No,5.8,-1,Hit,0.5006632,True,False,stimulusDIAN07_2IFCnew_2019_Jun_14_1556_409,stimulusDIAN07_2IFCnew_2019_Jun_14_1556_410,True,2019_Jun_14_1556,2IFCnew,3,DIAN07,
2IFCnew,55,0,55,0,0.1335282,1,No,13.9,-1,Hit,0.4341305,True,False,stimulusDIAN07_2IFCnew_2019_Jun_14_1556_411,stimulusDIAN07_2IFCnew_2019_Jun_14_1556_412,True,2019_Jun_14_1556,2IFCnew,3,DIAN07,
2IFCnew,56,0,56,0,0.2343609,1,No,9.8,-1,Hit,0.4336356,True,False,stimulusDIAN07_2IFCnew_2019_Jun_14_1556_413,stimulusDIAN07_2IFCnew_2019_Jun_14_1556_414,True,2019_Jun_14_1556,2IFCnew,3,DIAN07,
2IFCnew,57,0,57,0,0.0675702999997,1,No,13.9,-1,Hit,0.4330603,True,False,stimulusDIAN07_2IFCnew_2019_Jun_14_1556_415,stimulusDIAN07_2IFCnew_2019_Jun_14_1556_416,True,2019_Jun_14_1556,2IFCnew,3,DIAN07,
2IFCnew,58,0,58,0,0.2998387,1,No,5.8,-1,Hit,0.5340305,True,False,stimulusDIAN07_2IFCnew_2019_Jun_14_1556_417,stimulusDIAN07_2IFCnew_2019_Jun_14_1556_418,True,2019_Jun_14_1556,2IFCnew,3,DIAN07,
2IFCnew,59,0,59,0,0.3004065,3,No,12.5,-1,False Alarm,0.467035000001,False,True,stimulusDIAN07_2IFCnew_2019_Jun_14_1556_419,stimulusDIAN07_2IFCnew_2019_Jun_14_1556_420,True,2019_Jun_14_1556,2IFCnew,3,DIAN07,
2IFCnew,60,0,60,0,0.4330371,5,Yes,9.8,-1,False Alarm,0.5029583,False,True,stimulusDIAN07_2IFCnew_2019_Jun_14_1556_421,stimulusDIAN07_2IFCnew_2019_Jun_14_1556_422,True,2019_Jun_14_1556,2IFCnew,3,DIAN07,
2IFCnew,61,0,61,0,0.2670352,1,No,11.2,-1,Hit,0.4688282,True,False,stimulusDIAN07_2IFCnew_2019_Jun_14_1556_423,stimulusDIAN07_2IFCnew_2019_Jun_14_1556_424,True,2019_Jun_14_1556,2IFCnew,3,DIAN07,
2IFCnew,62,0,62,0,0.3671698,2,Yes,5.8,-1,Correct Rejection,0.567777,False,True,stimulusDIAN07_2IFCnew_2019_Jun_14_1556_425,stimulusDIAN07_2IFCnew_2019_Jun_14_1556_426,True,2019_Jun_14_1556,2IFCnew,3,DIAN07,
2IFCnew,63,0,63,0,0.3009597,2,Yes,16.9,-1,Correct Rejection,0.5334619,False,True,stimulusDIAN07_2IFCnew_2019_Jun_14_1556_427,stimulusDIAN07_2IFCnew_2019_Jun_14_1556_428,True,2019_Jun_14_1556,2IFCnew,3,DIAN07,
2IFCnew,64,0,64,0,0.3327919,1,No,11.2,-1,Hit,0.502183,True,False,stimulusDIAN07_2IFCnew_2019_Jun_14_1556_429,stimulusDIAN07_2IFCnew_2019_Jun_14_1556_430,True,2019_Jun_14_1556,2IFCnew,3,DIAN07,
2IFCnew,65,0,65,0,-1,1,No,12.5,-1,Hit,0.4340762,True,False,stimulusDIAN07_2IFCnew_2019_Jun_14_1556_431,stimulusDIAN07_2IFCnew_2019_Jun_14_1556_432,True,2019_Jun_14_1556,2IFCnew,3,DIAN07,
2IFCnew,66,0,66,0,0.2005812,1,No,8.1,-1,Hit,0.5340154,True,False,stimulusDIAN07_2IFCnew_2019_Jun_14_1556_433,stimulusDIAN07_2IFCnew_2019_Jun_14_1556_434,True,2019_Jun_14_1556,2IFCnew,3,DIAN07,
2IFCnew,67,0,67,0,0.400521699999,2,Yes,8.1,-1,Correct Rejection,0.5345063,False,True,stimulusDIAN07_2IFCnew_2019_Jun_14_1556_435,stimulusDIAN07_2IFCnew_2019_Jun_14_1556_436,True,2019_Jun_14_1556,2IFCnew,3,DIAN07,
2IFCnew,68,0,68,0,0.1002708,1,No,12.5,-1,Hit,0.5354722,True,False,stimulusDIAN07_2IFCnew_2019_Jun_14_1556_437,stimulusDIAN07_2IFCnew_2019_Jun_14_1556_438,True,2019_Jun_14_1556,2IFCnew,3,DIAN07,
2IFCnew,69,0,69,0,0.2670509,1,No,16.9,-1,Hit,0.4347149,True,False,stimulusDIAN07_2IFCnew_2019_Jun_14_1556_439,stimulusDIAN07_2IFCnew_2019_Jun_14_1556_440,True,2019_Jun_14_1556,2IFCnew,3,DIAN07,
2IFCnew,70,0,70,0,0.4335742,1,No,13.9,-1,Hit,0.4338735,True,False,stimulusDIAN07_2IFCnew_2019_Jun_14_1556_441,stimulusDIAN07_2IFCnew_2019_Jun_14_1556_442,True,2019_Jun_14_1556,2IFCnew,3,DIAN07,
2IFCnew,71,0,71,0,0.3003643,2,Yes,9.8,-1,Correct Rejection,0.6011648,False,True,stimulusDIAN07_2IFCnew_2019_Jun_14_1556_443,stimulusDIAN07_2IFCnew_2019_Jun_14_1556_444,True,2019_Jun_14_1556,2IFCnew,3,DIAN07,
2IFCnew,72,0,72,0,0.4335259,1,No,15.3,-1,Hit,0.433689,True,False,stimulusDIAN07_2IFCnew_2019_Jun_14_1556_445,stimulusDIAN07_2IFCnew_2019_Jun_14_1556_446,True,2019_Jun_14_1556,2IFCnew,3,DIAN07,
2IFCnew,73,0,73,0,0.400505199999,2,Yes,9.8,-1,Correct Rejection,0.533482,False,True,stimulusDIAN07_2IFCnew_2019_Jun_14_1556_447,stimulusDIAN07_2IFCnew_2019_Jun_14_1556_448,True,2019_Jun_14_1556,2IFCnew,3,DIAN07,
2IFCnew,74,0,74,0,0.401141599999,1,No,15.3,-1,Hit,0.4345599,True,False,stimulusDIAN07_2IFCnew_2019_Jun_14_1556_449,stimulusDIAN07_2IFCnew_2019_Jun_14_1556_450,True,2019_Jun_14_1556,2IFCnew,3,DIAN07,
2IFCnew,0,0,0,0,0.4337745,5,Yes,15.3,-1,False Alarm,0.4673369,False,True,stimulusDIAN07_2IFCnew_2019_Jun_14_1556_451,stimulusDIAN07_2IFCnew_2019_Jun_14_1556_452,True,2019_Jun_14_1556,2IFCnew,3,DIAN07,
2IFCnew,1,0,1,0,0.3998859,1,No,8.1,-1,Hit,0.6005578,True,False,stimulusDIAN07_2IFCnew_2019_Jun_14_1556_453,stimulusDIAN07_2IFCnew_2019_Jun_14_1556_454,True,2019_Jun_14_1556,2IFCnew,3,DIAN07,
2IFCnew,2,0,2,0,0.400588,1,No,13.9,-1,Hit,0.434864299999,True,False,stimulusDIAN07_2IFCnew_2019_Jun_14_1556_455,stimulusDIAN07_2IFCnew_2019_Jun_14_1556_456,True,2019_Jun_14_1556,2IFCnew,3,DIAN07,
2IFCnew,3,0,3,0,0.3003924,1,No,9.8,-1,Hit,0.4631487,True,False,stimulusDIAN07_2IFCnew_2019_Jun_14_1556_457,stimulusDIAN07_2IFCnew_2019_Jun_14_1556_458,True,2019_Jun_14_1556,2IFCnew,3,DIAN07,
2IFCnew,4,0,4,0,0.233421899999,3,No,11.2,-1,False Alarm,0.500590199999,False,True,stimulusDIAN07_2IFCnew_2019_Jun_14_1556_459,stimulusDIAN07_2IFCnew_2019_Jun_14_1556_460,True,2019_Jun_14_1556,2IFCnew,3,DIAN07,
2IFCnew,5,0,5,0,0.3010772,1,No,5.8,-1,Hit,0.5003656,True,False,stimulusDIAN07_2IFCnew_2019_Jun_14_1556_461,stimulusDIAN07_2IFCnew_2019_Jun_14_1556_462,True,2019_Jun_14_1556,2IFCnew,3,DIAN07,
2IFCnew,6,0,6,0,0.2336186,3,No,12.5,-1,False Alarm,0.3680326,False,True,stimulusDIAN07_2IFCnew_2019_Jun_14_1556_463,stimulusDIAN07_2IFCnew_2019_Jun_14_1556_464,True,2019_Jun_14_1556,2IFCnew,3,DIAN07,
2IFCnew,7,0,7,0,0.500634999999,5,Yes,12.5,-1,False Alarm,0.4675019,False,True,stimulusDIAN07_2IFCnew_2019_Jun_14_1556_465,stimulusDIAN07_2IFCnew_2019_Jun_14_1556_466,True,2019_Jun_14_1556,2IFCnew,3,DIAN07,
2IFCnew,8,0,8,0,0.3991584,4,Yes,9.8,-1,Miss,0.6689179,True,False,stimulusDIAN07_2IFCnew_2019_Jun_14_1556_467,stimulusDIAN07_2IFCnew_2019_Jun_14_1556_468,True,2019_Jun_14_1556,2IFCnew,3,DIAN07,
2IFCnew,9,0,9,0,0.0675568999995,1,No,11.2,-1,Hit,0.4676552,True,False,stimulusDIAN07_2IFCnew_2019_Jun_14_1556_469,stimulusDIAN07_2IFCnew_2019_Jun_14_1556_470,True,2019_Jun_14_1556,2IFCnew,3,DIAN07,
2IFCnew,10,0,10,0,0.4004448,2,Yes,13.9,-1,Correct Rejection,0.666333,False,True,stimulusDIAN07_2IFCnew_2019_Jun_14_1556_471,stimulusDIAN07_2IFCnew_2019_Jun_14_1556_472,True,2019_Jun_14_1556,2IFCnew,3,DIAN07,
2IFCnew,11,0,11,0,0.2003273,1,No,16.9,-1,Hit,0.5673563,True,False,stimulusDIAN07_2IFCnew_2019_Jun_14_1556_473,stimulusDIAN07_2IFCnew_2019_Jun_14_1556_474,True,2019_Jun_14_1556,2IFCnew,3,DIAN07,
2IFCnew,12,0,12,0,0.266991799999,1,No,11.2,-1,Hit,0.4996567,True,False,stimulusDIAN07_2IFCnew_2019_Jun_14_1556_475,stimulusDIAN07_2IFCnew_2019_Jun_14_1556_476,True,2019_Jun_14_1556,2IFCnew,3,DIAN07,
2IFCnew,13,0,13,0,0.5007117,5,Yes,8.1,-1,False Alarm,0.4339696,False,True,stimulusDIAN07_2IFCnew_2019_Jun_14_1556_477,stimulusDIAN07_2IFCnew_2019_Jun_14_1556_478,True,2019_Jun_14_1556,2IFCnew,3,DIAN07,
2IFCnew,14,0,14,0,0.3337444,1,No,12.5,-1,Hit,0.4673573,True,False,stimulusDIAN07_2IFCnew_2019_Jun_14_1556_479,stimulusDIAN07_2IFCnew_2019_Jun_14_1556_480,True,2019_Jun_14_1556,2IFCnew,3,DIAN07,
2IFCnew,15,0,15,0,0.399942999999,3,No,12.5,-1,False Alarm,0.50131,False,True,stimulusDIAN07_2IFCnew_2019_Jun_14_1556_481,stimulusDIAN07_2IFCnew_2019_Jun_14_1556_482,True,2019_Jun_14_1556,2IFCnew,3,DIAN07,
2IFCnew,16,0,16,0,0.3670454,3,No,13.9,-1,False Alarm,0.464285999999,False,True,stimulusDIAN07_2IFCnew_2019_Jun_14_1556_483,stimulusDIAN07_2IFCnew_2019_Jun_14_1556_484,True,2019_Jun_14_1556,2IFCnew,3,DIAN07,
2IFCnew,17,0,17,0,0.4339926,2,Yes,5.8,-1,Correct Rejection,0.767631199999,False,True,stimulusDIAN07_2IFCnew_2019_Jun_14_1556_485,stimulusDIAN07_2IFCnew_2019_Jun_14_1556_486,True,2019_Jun_14_1556,2IFCnew,3,DIAN07,
2IFCnew,18,0,18,0,0.1336529,1,No,16.9,-1,Hit,0.4340776,True,False,stimulusDIAN07_2IFCnew_2019_Jun_14_1556_487,stimulusDIAN07_2IFCnew_2019_Jun_14_1556_488,True,2019_Jun_14_1556,2IFCnew,3,DIAN07,
2IFCnew,19,0,19,0,0.3671557,1,No,11.2,-1,Hit,0.600350899999,True,False,stimulusDIAN07_2IFCnew_2019_Jun_14_1556_489,stimulusDIAN07_2IFCnew_2019_Jun_14_1556_490,True,2019_Jun_14_1556,2IFCnew,3,DIAN07,
2IFCnew,20,0,20,0,0.200348699999,3,No,13.9,-1,False Alarm,0.5006963,False,True,stimulusDIAN07_2IFCnew_2019_Jun_14_1556_491,stimulusDIAN07_2IFCnew_2019_Jun_14_1556_492,True,2019_Jun_14_1556,2IFCnew,3,DIAN07,
2IFCnew,21,0,21,0,0.1002896,1,No,8.1,-1,Hit,0.4339813,True,False,stimulusDIAN07_2IFCnew_2019_Jun_14_1556_493,stimulusDIAN07_2IFCnew_2019_Jun_14_1556_494,True,2019_Jun_14_1556,2IFCnew,3,DIAN07,
2IFCnew,22,0,22,0,0.300158200001,1,No,8.1,-1,Hit,0.4673985,True,False,stimulusDIAN07_2IFCnew_2019_Jun_14_1556_495,stimulusDIAN07_2IFCnew_2019_Jun_14_1556_496,True,2019_Jun_14_1556,2IFCnew,3,DIAN07,
2IFCnew,23,0,23,0,0.1672231,2,Yes,13.9,-1,Correct Rejection,0.5678003,False,True,stimulusDIAN07_2IFCnew_2019_Jun_14_1556_497,stimulusDIAN07_2IFCnew_2019_Jun_14_1556_498,True,2019_Jun_14_1556,2IFCnew,3,DIAN07,
2IFCnew,24,0,24,0,0.0335733000002,1,No,12.5,-1,Hit,0.4337976,True,False,stimulusDIAN07_2IFCnew_2019_Jun_14_1556_499,stimulusDIAN07_2IFCnew_2019_Jun_14_1556_500,True,2019_Jun_14_1556,2IFCnew,3,DIAN07,
2IFCnew,25,0,25,0,0.1008972,2,Yes,12.5,-1,Correct Rejection,0.5342374,False,True,stimulusDIAN07_2IFCnew_2019_Jun_14_1556_501,stimulusDIAN07_2IFCnew_2019_Jun_14_1556_502,True,2019_Jun_14_1556,2IFCnew,3,DIAN07,
2IFCnew,26,0,26,0,0.4339543,5,Yes,12.5,-1,False Alarm,0.5008224,False,True,stimulusDIAN07_2IFCnew_2019_Jun_14_1556_503,stimulusDIAN07_2IFCnew_2019_Jun_14_1556_504,True,2019_Jun_14_1556,2IFCnew,3,DIAN07,
2IFCnew,27,0,27,0,0.234066200001,1,No,13.9,-1,Hit,0.4667968,True,False,stimulusDIAN07_2IFCnew_2019_Jun_14_1556_505,stimulusDIAN07_2IFCnew_2019_Jun_14_1556_506,True,2019_Jun_14_1556,2IFCnew,3,DIAN07,
2IFCnew,28,0,28,0,0.4004352,1,No,11.2,-1,Hit,0.634127400001,True,False,stimulusDIAN07_2IFCnew_2019_Jun_14_1556_507,stimulusDIAN07_2IFCnew_2019_Jun_14_1556_508,True,2019_Jun_14_1556,2IFCnew,3,DIAN07,
2IFCnew,29,0,29,0,0.1684581,3,No,15.3,-1,False Alarm,0.4338958,False,True,stimulusDIAN07_2IFCnew_2019_Jun_14_1556_509,stimulusDIAN07_2IFCnew_2019_Jun_14_1556_510,True,2019_Jun_14_1556,2IFCnew,3,DIAN07,
2IFCnew,30,0,30,0,0.1670499,1,No,12.5,-1,Hit,0.5000402,True,False,stimulusDIAN07_2IFCnew_2019_Jun_14_1556_511,stimulusDIAN07_2IFCnew_2019_Jun_14_1556_512,True,2019_Jun_14_1556,2IFCnew,3,DIAN07,
2IFCnew,31,0,31,0,0.2337981,1,No,13.9,-1,Hit,0.4681472,True,False,stimulusDIAN07_2IFCnew_2019_Jun_14_1556_513,stimulusDIAN07_2IFCnew_2019_Jun_14_1556_514,True,2019_Jun_14_1556,2IFCnew,3,DIAN07,
2IFCnew,32,0,32,0,0.367797299999,1,No,13.9,-1,Hit,0.4347368,True,False,stimulusDIAN07_2IFCnew_2019_Jun_14_1556_515,stimulusDIAN07_2IFCnew_2019_Jun_14_1556_516,True,2019_Jun_14_1556,2IFCnew,3,DIAN07,
2IFCnew,33,0,33,0,0.2672999,3,No,16.9,-1,False Alarm,0.4672808,False,True,stimulusDIAN07_2IFCnew_2019_Jun_14_1556_517,stimulusDIAN07_2IFCnew_2019_Jun_14_1556_518,True,2019_Jun_14_1556,2IFCnew,3,DIAN07,
2IFCnew,34,0,34,0,0.6672391,5,Yes,13.9,-1,False Alarm,0.6004695,False,True,stimulusDIAN07_2IFCnew_2019_Jun_14_1556_519,stimulusDIAN07_2IFCnew_2019_Jun_14_1556_520,True,2019_Jun_14_1556,2IFCnew,3,DIAN07,
2IFCnew,35,0,35,0,0.6346099,3,No,13.9,-1,False Alarm,0.567961799999,False,True,stimulusDIAN07_2IFCnew_2019_Jun_14_1556_521,stimulusDIAN07_2IFCnew_2019_Jun_14_1556_522,True,2019_Jun_14_1556,2IFCnew,3,DIAN07,
2IFCnew,36,0,36,0,0.367046,2,Yes,11.2,-1,Correct Rejection,0.699940799999,False,True,stimulusDIAN07_2IFCnew_2019_Jun_14_1556_523,stimulusDIAN07_2IFCnew_2019_Jun_14_1556_524,True,2019_Jun_14_1556,2IFCnew,3,DIAN07,
2IFCnew,37,0,37,0,0.633968599999,5,Yes,16.9,-1,False Alarm,0.7008437,False,True,stimulusDIAN07_2IFCnew_2019_Jun_14_1556_525,stimulusDIAN07_2IFCnew_2019_Jun_14_1556_526,True,2019_Jun_14_1556,2IFCnew,3,DIAN07,
2IFCnew,38,0,38,0,0.3341161,1,No,13.9,-1,Hit,0.5347773,True,False,stimulusDIAN07_2IFCnew_2019_Jun_14_1556_527,stimulusDIAN07_2IFCnew_2019_Jun_14_1556_528,True,2019_Jun_14_1556,2IFCnew,3,DIAN07,
2IFCnew,39,0,39,0,0.5008683,5,Yes,13.9,-1,False Alarm,0.6353878,False,True,stimulusDIAN07_2IFCnew_2019_Jun_14_1556_529,stimulusDIAN07_2IFCnew_2019_Jun_14_1556_530,True,2019_Jun_14_1556,2IFCnew,3,DIAN07,
2IFCnew,40,0,40,0,0.6007335,1,No,9.8,-1,Hit,0.5342377,True,False,stimulusDIAN07_2IFCnew_2019_Jun_14_1556_531,stimulusDIAN07_2IFCnew_2019_Jun_14_1556_532,True,2019_Jun_14_1556,2IFCnew,3,DIAN07,
2IFCnew,41,0,41,0,0.534322500001,1,No,5.8,-1,Hit,0.5351865,True,False,stimulusDIAN07_2IFCnew_2019_Jun_14_1556_533,stimulusDIAN07_2IFCnew_2019_Jun_14_1556_534,True,2019_Jun_14_1556,2IFCnew,3,DIAN07,
2IFCnew,42,0,42,0,0.333413900001,1,No,9.8,-1,Hit,0.4670618,True,False,stimulusDIAN07_2IFCnew_2019_Jun_14_1556_535,stimulusDIAN07_2IFCnew_2019_Jun_14_1556_536,True,2019_Jun_14_1556,2IFCnew,3,DIAN07,
2IFCnew,43,0,43,0,0.501203,4,Yes,8.1,-1,Miss,0.667891800001,True,False,stimulusDIAN07_2IFCnew_2019_Jun_14_1556_537,stimulusDIAN07_2IFCnew_2019_Jun_14_1556_538,True,2019_Jun_14_1556,2IFCnew,3,DIAN07,
2IFCnew,44,0,44,0,0.4671133,2,Yes,9.8,-1,Correct Rejection,0.8007511,False,True,stimulusDIAN07_2IFCnew_2019_Jun_14_1556_539,stimulusDIAN07_2IFCnew_2019_Jun_14_1556_540,True,2019_Jun_14_1556,2IFCnew,3,DIAN07,
2IFCnew,45,0,45,0,0.4015687,1,No,12.5,-1,Hit,0.5341899,True,False,stimulusDIAN07_2IFCnew_2019_Jun_14_1556_541,stimulusDIAN07_2IFCnew_2019_Jun_14_1556_542,True,2019_Jun_14_1556,2IFCnew,3,DIAN07,
2IFCnew,46,0,46,0,0.4017914,1,No,8.1,-1,Hit,0.5002475,True,False,stimulusDIAN07_2IFCnew_2019_Jun_14_1556_543,stimulusDIAN07_2IFCnew_2019_Jun_14_1556_544,True,2019_Jun_14_1556,2IFCnew,3,DIAN07,
2IFCnew,47,0,47,0,0.167142400001,1,No,5.8,-1,Hit,0.5010081,True,False,stimulusDIAN07_2IFCnew_2019_Jun_14_1556_545,stimulusDIAN07_2IFCnew_2019_Jun_14_1556_546,True,2019_Jun_14_1556,2IFCnew,3,DIAN07,
2IFCnew,48,0,48,0,0.4008102,2,Yes,5.8,-1,Correct Rejection,0.701288,False,True,stimulusDIAN07_2IFCnew_2019_Jun_14_1556_547,stimulusDIAN07_2IFCnew_2019_Jun_14_1556_548,True,2019_Jun_14_1556,2IFCnew,3,DIAN07,
2IFCnew,49,0,49,0,0.3017672,1,No,15.3,-1,Hit,0.500735000001,True,False,stimulusDIAN07_2IFCnew_2019_Jun_14_1556_549,stimulusDIAN07_2IFCnew_2019_Jun_14_1556_550,True,2019_Jun_14_1556,2IFCnew,3,DIAN07,
2IFCnew,50,0,50,0,0.301081099999,1,No,15.3,-1,Hit,0.4347879,True,False,stimulusDIAN07_2IFCnew_2019_Jun_14_1556_551,stimulusDIAN07_2IFCnew_2019_Jun_14_1556_552,True,2019_Jun_14_1556,2IFCnew,3,DIAN07,
2IFCnew,51,0,51,0,0.5010551,4,Yes,5.8,-1,Miss,0.567124599999,True,False,stimulusDIAN07_2IFCnew_2019_Jun_14_1556_553,stimulusDIAN07_2IFCnew_2019_Jun_14_1556_554,True,2019_Jun_14_1556,2IFCnew,3,DIAN07,
2IFCnew,52,0,52,0,0.233825699999,1,No,13.9,-1,Hit,0.401314600001,True,False,stimulusDIAN07_2IFCnew_2019_Jun_14_1556_555,stimulusDIAN07_2IFCnew_2019_Jun_14_1556_556,True,2019_Jun_14_1556,2IFCnew,3,DIAN07,
2IFCnew,53,0,53,0,0.1335856,1,No,5.8,-1,Hit,0.5007425,True,False,stimulusDIAN07_2IFCnew_2019_Jun_14_1556_557,stimulusDIAN07_2IFCnew_2019_Jun_14_1556_558,True,2019_Jun_14_1556,2IFCnew,3,DIAN07,
2IFCnew,54,0,54,0,0.26614,2,Yes,9.8,-1,Correct Rejection,0.5669791,False,True,stimulusDIAN07_2IFCnew_2019_Jun_14_1556_559,stimulusDIAN07_2IFCnew_2019_Jun_14_1556_560,True,2019_Jun_14_1556,2IFCnew,3,DIAN07,
2IFCnew,55,0,55,0,0.2331554,2,Yes,5.8,-1,Correct Rejection,0.6337755,False,True,stimulusDIAN07_2IFCnew_2019_Jun_14_1556_561,stimulusDIAN07_2IFCnew_2019_Jun_14_1556_562,True,2019_Jun_14_1556,2IFCnew,3,DIAN07,
2IFCnew,56,0,56,0,0.601001200001,3,No,15.3,-1,False Alarm,0.4671648,False,True,stimulusDIAN07_2IFCnew_2019_Jun_14_1556_563,stimulusDIAN07_2IFCnew_2019_Jun_14_1556_564,True,2019_Jun_14_1556,2IFCnew,3,DIAN07,
2IFCnew,57,0,57,0,0.3006015,2,Yes,12.5,-1,Correct Rejection,0.5675292,False,True,stimulusDIAN07_2IFCnew_2019_Jun_14_1556_565,stimulusDIAN07_2IFCnew_2019_Jun_14_1556_566,True,2019_Jun_14_1556,2IFCnew,3,DIAN07,
2IFCnew,58,0,58,0,0.3998057,1,No,9.8,-1,Hit,0.600923000001,True,False,stimulusDIAN07_2IFCnew_2019_Jun_14_1556_567,stimulusDIAN07_2IFCnew_2019_Jun_14_1556_568,True,2019_Jun_14_1556,2IFCnew,3,DIAN07,
2IFCnew,59,0,59,0,0.166784,3,No,8.1,-1,False Alarm,0.4662839,False,True,stimulusDIAN07_2IFCnew_2019_Jun_14_1556_569,stimulusDIAN07_2IFCnew_2019_Jun_14_1556_570,True,2019_Jun_14_1556,2IFCnew,3,DIAN07,
2IFCnew,60,0,60,0,0.4007837,1,No,13.9,-1,Hit,0.4676452,True,False,stimulusDIAN07_2IFCnew_2019_Jun_14_1556_571,stimulusDIAN07_2IFCnew_2019_Jun_14_1556_572,True,2019_Jun_14_1556,2IFCnew,3,DIAN07,
2IFCnew,61,0,61,0,0.6006656,2,Yes,12.5,-1,Correct Rejection,0.6339342,False,True,stimulusDIAN07_2IFCnew_2019_Jun_14_1556_573,stimulusDIAN07_2IFCnew_2019_Jun_14_1556_574,True,2019_Jun_14_1556,2IFCnew,3,DIAN07,
2IFCnew,62,0,62,0,0.300329600001,1,No,15.3,-1,Hit,0.433124599999,True,False,stimulusDIAN07_2IFCnew_2019_Jun_14_1556_575,stimulusDIAN07_2IFCnew_2019_Jun_14_1556_576,True,2019_Jun_14_1556,2IFCnew,3,DIAN07,
2IFCnew,63,0,63,0,0.3338299,3,No,16.9,-1,False Alarm,0.5351178,False,True,stimulusDIAN07_2IFCnew_2019_Jun_14_1556_577,stimulusDIAN07_2IFCnew_2019_Jun_14_1556_578,True,2019_Jun_14_1556,2IFCnew,3,DIAN07,
2IFCnew,64,0,64,0,0.3669726,1,No,5.8,-1,Hit,0.5001125,True,False,stimulusDIAN07_2IFCnew_2019_Jun_14_1556_579,stimulusDIAN07_2IFCnew_2019_Jun_14_1556_580,True,2019_Jun_14_1556,2IFCnew,3,DIAN07,
2IFCnew,65,0,65,0,0.3664729,1,No,9.8,-1,Hit,0.435257100001,True,False,stimulusDIAN07_2IFCnew_2019_Jun_14_1556_581,stimulusDIAN07_2IFCnew_2019_Jun_14_1556_582,True,2019_Jun_14_1556,2IFCnew,3,DIAN07,
2IFCnew,66,0,66,0,0.3671098,3,No,8.1,-1,False Alarm,0.4337908,False,True,stimulusDIAN07_2IFCnew_2019_Jun_14_1556_583,stimulusDIAN07_2IFCnew_2019_Jun_14_1556_584,True,2019_Jun_14_1556,2IFCnew,3,DIAN07,
2IFCnew,67,0,67,0,0.4337574,3,No,11.2,-1,False Alarm,0.46752,False,True,stimulusDIAN07_2IFCnew_2019_Jun_14_1556_585,stimulusDIAN07_2IFCnew_2019_Jun_14_1556_586,True,2019_Jun_14_1556,2IFCnew,3,DIAN07,
2IFCnew,68,0,68,0,0.3673706,2,Yes,11.2,-1,Correct Rejection,0.6342728,False,True,stimulusDIAN07_2IFCnew_2019_Jun_14_1556_587,stimulusDIAN07_2IFCnew_2019_Jun_14_1556_588,True,2019_Jun_14_1556,2IFCnew,3,DIAN07,
2IFCnew,69,0,69,0,0.3670754,1,No,8.1,-1,Hit,0.5344407,True,False,stimulusDIAN07_2IFCnew_2019_Jun_14_1556_589,stimulusDIAN07_2IFCnew_2019_Jun_14_1556_590,True,2019_Jun_14_1556,2IFCnew,3,DIAN07,
2IFCnew,70,0,70,0,0.266654900001,1,No,13.9,-1,Hit,0.4677982,True,False,stimulusDIAN07_2IFCnew_2019_Jun_14_1556_591,stimulusDIAN07_2IFCnew_2019_Jun_14_1556_592,True,2019_Jun_14_1556,2IFCnew,3,DIAN07,
2IFCnew,71,0,71,0,0.333601099999,3,No,9.8,-1,False Alarm,0.4998551,False,True,stimulusDIAN07_2IFCnew_2019_Jun_14_1556_593,stimulusDIAN07_2IFCnew_2019_Jun_14_1556_594,True,2019_Jun_14_1556,2IFCnew,3,DIAN07,
2IFCnew,72,0,72,0,0.300466799999,3,No,13.9,-1,False Alarm,0.4340866,False,True,stimulusDIAN07_2IFCnew_2019_Jun_14_1556_595,stimulusDIAN07_2IFCnew_2019_Jun_14_1556_596,True,2019_Jun_14_1556,2IFCnew,3,DIAN07,
2IFCnew,73,0,73,0,0.734067,6,No,11.2,-1,Miss,0.4670849,True,False,stimulusDIAN07_2IFCnew_2019_Jun_14_1556_597,stimulusDIAN07_2IFCnew_2019_Jun_14_1556_598,True,2019_Jun_14_1556,2IFCnew,3,DIAN07,
2IFCnew,74,0,74,0,0.1667503,1,No,16.9,-1,Hit,0.6338938,True,False,stimulusDIAN07_2IFCnew_2019_Jun_14_1556_599,stimulusDIAN07_2IFCnew_2019_Jun_14_1556_600,True,2019_Jun_14_1556,2IFCnew,3,DIAN07,
2IFCnew,0,0,0,0,0.2670722,3,No,13.9,-1,False Alarm,0.599812,False,True,stimulusDIAN07_2IFCnew_2019_Jun_14_1556_601,stimulusDIAN07_2IFCnew_2019_Jun_14_1556_602,True,2019_Jun_14_1556,2IFCnew,3,DIAN07,
2IFCnew,1,0,1,0,0.367208600001,1,No,9.8,-1,Hit,0.4340981,True,False,stimulusDIAN07_2IFCnew_2019_Jun_14_1556_603,stimulusDIAN07_2IFCnew_2019_Jun_14_1556_604,True,2019_Jun_14_1556,2IFCnew,3,DIAN07,
2IFCnew,2,0,2,0,0.167285,1,No,11.2,-1,Hit,0.4671413,True,False,stimulusDIAN07_2IFCnew_2019_Jun_14_1556_605,stimulusDIAN07_2IFCnew_2019_Jun_14_1556_606,True,2019_Jun_14_1556,2IFCnew,3,DIAN07,
2IFCnew,3,0,3,0,0.233849499999,2,Yes,12.5,-1,Correct Rejection,0.633554200001,False,True,stimulusDIAN07_2IFCnew_2019_Jun_14_1556_607,stimulusDIAN07_2IFCnew_2019_Jun_14_1556_608,True,2019_Jun_14_1556,2IFCnew,3,DIAN07,
2IFCnew,4,0,4,0,0.1335689,6,No,9.8,-1,Miss,0.4681919,True,False,stimulusDIAN07_2IFCnew_2019_Jun_14_1556_609,stimulusDIAN07_2IFCnew_2019_Jun_14_1556_610,True,2019_Jun_14_1556,2IFCnew,3,DIAN07,
2IFCnew,5,0,5,0,0.0999855999999,4,Yes,8.1,-1,Miss,0.5676256,True,False,stimulusDIAN07_2IFCnew_2019_Jun_14_1556_611,stimulusDIAN07_2IFCnew_2019_Jun_14_1556_612,True,2019_Jun_14_1556,2IFCnew,3,DIAN07,
2IFCnew,6,0,6,0,0.3005101,2,Yes,9.8,-1,Correct Rejection,0.6004195,False,True,stimulusDIAN07_2IFCnew_2019_Jun_14_1556_613,stimulusDIAN07_2IFCnew_2019_Jun_14_1556_614,True,2019_Jun_14_1556,2IFCnew,3,DIAN07,
2IFCnew,7,0,7,0,0.3334464,1,No,9.8,-1,Hit,0.467527,True,False,stimulusDIAN07_2IFCnew_2019_Jun_14_1556_615,stimulusDIAN07_2IFCnew_2019_Jun_14_1556_616,True,2019_Jun_14_1556,2IFCnew,3,DIAN07,
2IFCnew,8,0,8,0,0.0671642999996,1,No,15.3,-1,Hit,0.4672173,True,False,stimulusDIAN07_2IFCnew_2019_Jun_14_1556_617,stimulusDIAN07_2IFCnew_2019_Jun_14_1556_618,True,2019_Jun_14_1556,2IFCnew,3,DIAN07,
2IFCnew,9,0,9,0,0.2678483,3,No,13.9,-1,False Alarm,0.4344067,False,True,stimulusDIAN07_2IFCnew_2019_Jun_14_1556_619,stimulusDIAN07_2IFCnew_2019_Jun_14_1556_620,True,2019_Jun_14_1556,2IFCnew,3,DIAN07,
2IFCnew,10,0,10,0,0.2995069,2,Yes,13.9,-1,Correct Rejection,0.5337965,False,True,stimulusDIAN07_2IFCnew_2019_Jun_14_1556_621,stimulusDIAN07_2IFCnew_2019_Jun_14_1556_622,True,2019_Jun_14_1556,2IFCnew,3,DIAN07,
2IFCnew,11,0,11,0,0.5676156,4,Yes,9.8,-1,Miss,0.6681716,True,False,stimulusDIAN07_2IFCnew_2019_Jun_14_1556_623,stimulusDIAN07_2IFCnew_2019_Jun_14_1556_624,True,2019_Jun_14_1556,2IFCnew,3,DIAN07,
2IFCnew,12,0,12,0,0.3011347,3,No,8.1,-1,False Alarm,0.4336381,False,True,stimulusDIAN07_2IFCnew_2019_Jun_14_1556_625,stimulusDIAN07_2IFCnew_2019_Jun_14_1556_626,True,2019_Jun_14_1556,2IFCnew,3,DIAN07,
2IFCnew,13,0,13,0,0.5672016,4,Yes,8.1,-1,Miss,0.501510100001,True,False,stimulusDIAN07_2IFCnew_2019_Jun_14_1556_627,stimulusDIAN07_2IFCnew_2019_Jun_14_1556_628,True,2019_Jun_14_1556,2IFCnew,3,DIAN07,
2IFCnew,14,0,14,0,0.4006994,1,No,11.2,-1,Hit,0.4674286,True,False,stimulusDIAN07_2IFCnew_2019_Jun_14_1556_629,stimulusDIAN07_2IFCnew_2019_Jun_14_1556_630,True,2019_Jun_14_1556,2IFCnew,3,DIAN07,
2IFCnew,15,0,15,0,0.3670027,2,Yes,9.8,-1,Correct Rejection,0.501232799999,False,True,stimulusDIAN07_2IFCnew_2019_Jun_14_1556_631,stimulusDIAN07_2IFCnew_2019_Jun_14_1556_632,True,2019_Jun_14_1556,2IFCnew,3,DIAN07,
2IFCnew,16,0,16,0,0.2677062,1,No,8.1,-1,Hit,0.434029499999,True,False,stimulusDIAN07_2IFCnew_2019_Jun_14_1556_633,stimulusDIAN07_2IFCnew_2019_Jun_14_1556_634,True,2019_Jun_14_1556,2IFCnew,3,DIAN07,
2IFCnew,17,0,17,0,0.5674908,3,No,5.8,-1,False Alarm,0.4680538,False,True,stimulusDIAN07_2IFCnew_2019_Jun_14_1556_635,stimulusDIAN07_2IFCnew_2019_Jun_14_1556_636,True,2019_Jun_14_1556,2IFCnew,3,DIAN07,
2IFCnew,18,0,18,0,0.534409,5,Yes,9.8,-1,False Alarm,0.4673442,False,True,stimulusDIAN07_2IFCnew_2019_Jun_14_1556_637,stimulusDIAN07_2IFCnew_2019_Jun_14_1556_638,True,2019_Jun_14_1556,2IFCnew,3,DIAN07,
2IFCnew,19,0,19,0,0.1651507,2,Yes,5.8,-1,Correct Rejection,0.565924699999,False,True,stimulusDIAN07_2IFCnew_2019_Jun_14_1556_639,stimulusDIAN07_2IFCnew_2019_Jun_14_1556_640,True,2019_Jun_14_1556,2IFCnew,3,DIAN07,
2IFCnew,20,0,20,0,0.4673762,1,No,9.8,-1,Hit,0.5336457,True,False,stimulusDIAN07_2IFCnew_2019_Jun_14_1556_641,stimulusDIAN07_2IFCnew_2019_Jun_14_1556_642,True,2019_Jun_14_1556,2IFCnew,3,DIAN07,
2IFCnew,21,0,21,0,0.6338161,5,Yes,11.2,-1,False Alarm,0.5341944,False,True,stimulusDIAN07_2IFCnew_2019_Jun_14_1556_643,stimulusDIAN07_2IFCnew_2019_Jun_14_1556_644,True,2019_Jun_14_1556,2IFCnew,3,DIAN07,
2IFCnew,22,0,22,0,0.2000864,2,Yes,11.2,-1,Correct Rejection,0.5335874,False,True,stimulusDIAN07_2IFCnew_2019_Jun_14_1556_645,stimulusDIAN07_2IFCnew_2019_Jun_14_1556_646,True,2019_Jun_14_1556,2IFCnew,3,DIAN07,
2IFCnew,23,0,23,0,0.300534,2,Yes,15.3,-1,Correct Rejection,0.7025257,False,True,stimulusDIAN07_2IFCnew_2019_Jun_14_1556_647,stimulusDIAN07_2IFCnew_2019_Jun_14_1556_648,True,2019_Jun_14_1556,2IFCnew,3,DIAN07,
2IFCnew,24,0,24,0,0.2003099,2,Yes,5.8,-1,Correct Rejection,0.5004078,False,True,stimulusDIAN07_2IFCnew_2019_Jun_14_1556_649,stimulusDIAN07_2IFCnew_2019_Jun_14_1556_650,True,2019_Jun_14_1556,2IFCnew,3,DIAN07,
2IFCnew,25,0,25,0,0.4340336,2,Yes,9.8,-1,Correct Rejection,0.6674521,False,True,stimulusDIAN07_2IFCnew_2019_Jun_14_1556_651,stimulusDIAN07_2IFCnew_2019_Jun_14_1556_652,True,2019_Jun_14_1556,2IFCnew,3,DIAN07,
2IFCnew,26,0,26,0,0.4342729,2,Yes,12.5,-1,Correct Rejection,0.566912,False,True,stimulusDIAN07_2IFCnew_2019_Jun_14_1556_653,stimulusDIAN07_2IFCnew_2019_Jun_14_1556_654,True,2019_Jun_14_1556,2IFCnew,3,DIAN07,
2IFCnew,27,0,27,0,0.4006061,1,No,9.8,-1,Hit,0.6338747,True,False,stimulusDIAN07_2IFCnew_2019_Jun_14_1556_655,stimulusDIAN07_2IFCnew_2019_Jun_14_1556_656,True,2019_Jun_14_1556,2IFCnew,3,DIAN07,
2IFCnew,28,0,28,0,0.434272,2,Yes,12.5,-1,Correct Rejection,0.5338854,False,True,stimulusDIAN07_2IFCnew_2019_Jun_14_1556_657,stimulusDIAN07_2IFCnew_2019_Jun_14_1556_658,True,2019_Jun_14_1556,2IFCnew,3,DIAN07,
2IFCnew,29,0,29,0,0.0676033,2,Yes,12.5,-1,Correct Rejection,0.4340974,False,True,stimulusDIAN07_2IFCnew_2019_Jun_14_1556_659,stimulusDIAN07_2IFCnew_2019_Jun_14_1556_660,True,2019_Jun_14_1556,2IFCnew,3,DIAN07,
2IFCnew,30,0,30,0,0.2676029,1,No,16.9,-1,Hit,0.6671526,True,False,stimulusDIAN07_2IFCnew_2019_Jun_14_1556_661,stimulusDIAN07_2IFCnew_2019_Jun_14_1556_662,True,2019_Jun_14_1556,2IFCnew,3,DIAN07,
2IFCnew,31,0,31,0,0.3670987,2,Yes,5.8,-1,Correct Rejection,0.43407,False,True,stimulusDIAN07_2IFCnew_2019_Jun_14_1556_663,stimulusDIAN07_2IFCnew_2019_Jun_14_1556_664,True,2019_Jun_14_1556,2IFCnew,3,DIAN07,
2IFCnew,32,0,32,0,-1,0,Yes,8.1,-1,No Answer,-1,False,True,stimulusDIAN07_2IFCnew_2019_Jun_14_1556_665,stimulusDIAN07_2IFCnew_2019_Jun_14_1556_666,True,2019_Jun_14_1556,2IFCnew,3,DIAN07,
2IFCnew,33,0,33,0,0.3004415,1,No,12.5,-1,Hit,0.5330838,True,False,stimulusDIAN07_2IFCnew_2019_Jun_14_1556_667,stimulusDIAN07_2IFCnew_2019_Jun_14_1556_668,True,2019_Jun_14_1556,2IFCnew,3,DIAN07,
2IFCnew,34,0,34,0,0.3341108,1,No,9.8,-1,Hit,0.4667005,True,False,stimulusDIAN07_2IFCnew_2019_Jun_14_1556_669,stimulusDIAN07_2IFCnew_2019_Jun_14_1556_670,True,2019_Jun_14_1556,2IFCnew,3,DIAN07,
2IFCnew,35,0,35,0,0.4001432,2,Yes,5.8,-1,Correct Rejection,0.4341627,False,True,stimulusDIAN07_2IFCnew_2019_Jun_14_1556_671,stimulusDIAN07_2IFCnew_2019_Jun_14_1556_672,True,2019_Jun_14_1556,2IFCnew,3,DIAN07,
2IFCnew,36,0,36,0,0.4340388,6,No,9.8,-1,Miss,0.4679273,True,False,stimulusDIAN07_2IFCnew_2019_Jun_14_1556_673,stimulusDIAN07_2IFCnew_2019_Jun_14_1556_674,True,2019_Jun_14_1556,2IFCnew,3,DIAN07,
2IFCnew,37,0,37,0,0.3002557,2,Yes,8.1,-1,Correct Rejection,0.5328027,False,True,stimulusDIAN07_2IFCnew_2019_Jun_14_1556_675,stimulusDIAN07_2IFCnew_2019_Jun_14_1556_676,True,2019_Jun_14_1556,2IFCnew,3,DIAN07,
2IFCnew,38,0,38,0,0.2667365,1,No,11.2,-1,Hit,0.6339547,True,False,stimulusDIAN07_2IFCnew_2019_Jun_14_1556_677,stimulusDIAN07_2IFCnew_2019_Jun_14_1556_678,True,2019_Jun_14_1556,2IFCnew,3,DIAN07,
2IFCnew,39,0,39,0,0.3014429,2,Yes,13.9,-1,Correct Rejection,0.7673282,False,True,stimulusDIAN07_2IFCnew_2019_Jun_14_1556_679,stimulusDIAN07_2IFCnew_2019_Jun_14_1556_680,True,2019_Jun_14_1556,2IFCnew,3,DIAN07,
2IFCnew,40,0,40,0,0.134378700001,2,Yes,12.5,-1,Correct Rejection,0.6315491,False,True,stimulusDIAN07_2IFCnew_2019_Jun_14_1556_681,stimulusDIAN07_2IFCnew_2019_Jun_14_1556_682,True,2019_Jun_14_1556,2IFCnew,3,DIAN07,
2IFCnew,41,0,41,0,0.0344023999996,1,No,9.8,-1,Hit,0.4674286,True,False,stimulusDIAN07_2IFCnew_2019_Jun_14_1556_683,stimulusDIAN07_2IFCnew_2019_Jun_14_1556_684,True,2019_Jun_14_1556,2IFCnew,3,DIAN07,
2IFCnew,42,0,42,0,0.2671076,1,No,16.9,-1,Hit,0.5008871,True,False,stimulusDIAN07_2IFCnew_2019_Jun_14_1556_685,stimulusDIAN07_2IFCnew_2019_Jun_14_1556_686,True,2019_Jun_14_1556,2IFCnew,3,DIAN07,
2IFCnew,43,0,43,0,0.1674243,1,No,5.8,-1,Hit,0.635201499999,True,False,stimulusDIAN07_2IFCnew_2019_Jun_14_1556_687,stimulusDIAN07_2IFCnew_2019_Jun_14_1556_688,True,2019_Jun_14_1556,2IFCnew,3,DIAN07,
2IFCnew,44,0,44,0,0.166659,1,No,8.1,-1,Hit,0.5003794,True,False,stimulusDIAN07_2IFCnew_2019_Jun_14_1556_689,stimulusDIAN07_2IFCnew_2019_Jun_14_1556_690,True,2019_Jun_14_1556,2IFCnew,3,DIAN07,
2IFCnew,45,0,45,0,0.0341780999997,1,No,15.3,-1,Hit,0.5006422,True,False,stimulusDIAN07_2IFCnew_2019_Jun_14_1556_691,stimulusDIAN07_2IFCnew_2019_Jun_14_1556_692,True,2019_Jun_14_1556,2IFCnew,3,DIAN07,
2IFCnew,46,0,46,0,-1,1,No,16.9,-1,Hit,0.4340262,True,False,stimulusDIAN07_2IFCnew_2019_Jun_14_1556_693,stimulusDIAN07_2IFCnew_2019_Jun_14_1556_694,True,2019_Jun_14_1556,2IFCnew,3,DIAN07,
2IFCnew,47,0,47,0,0.4674733,2,Yes,16.9,-1,Correct Rejection,0.7998786,False,True,stimulusDIAN07_2IFCnew_2019_Jun_14_1556_695,stimulusDIAN07_2IFCnew_2019_Jun_14_1556_696,True,2019_Jun_14_1556,2IFCnew,3,DIAN07,
2IFCnew,48,0,48,0,0.2005829,1,No,8.1,-1,Hit,0.5674,True,False,stimulusDIAN07_2IFCnew_2019_Jun_14_1556_697,stimulusDIAN07_2IFCnew_2019_Jun_14_1556_698,True,2019_Jun_14_1556,2IFCnew,3,DIAN07,
2IFCnew,49,0,49,0,0.2004748,1,No,13.9,-1,Hit,0.5680056,True,False,stimulusDIAN07_2IFCnew_2019_Jun_14_1556_699,stimulusDIAN07_2IFCnew_2019_Jun_14_1556_700,True,2019_Jun_14_1556,2IFCnew,3,DIAN07,
2IFCnew,50,0,50,0,0.2336926,1,No,13.9,-1,Hit,0.466913300001,True,False,stimulusDIAN07_2IFCnew_2019_Jun_14_1556_701,stimulusDIAN07_2IFCnew_2019_Jun_14_1556_702,True,2019_Jun_14_1556,2IFCnew,3,DIAN07,
2IFCnew,51,0,51,0,0.1995842,3,No,16.9,-1,False Alarm,0.500884300001,False,True,stimulusDIAN07_2IFCnew_2019_Jun_14_1556_703,stimulusDIAN07_2IFCnew_2019_Jun_14_1556_704,True,2019_Jun_14_1556,2IFCnew,3,DIAN07,
2IFCnew,52,0,52,0,0.1336163,1,No,13.9,-1,Hit,0.4679288,True,False,stimulusDIAN07_2IFCnew_2019_Jun_14_1556_705,stimulusDIAN07_2IFCnew_2019_Jun_14_1556_706,True,2019_Jun_14_1556,2IFCnew,3,DIAN07,
2IFCnew,53,0,53,0,0.6341409,5,Yes,13.9,-1,False Alarm,0.5004712,False,True,stimulusDIAN07_2IFCnew_2019_Jun_14_1556_707,stimulusDIAN07_2IFCnew_2019_Jun_14_1556_708,True,2019_Jun_14_1556,2IFCnew,3,DIAN07,
2IFCnew,54,0,54,0,0.500677600001,5,Yes,15.3,-1,False Alarm,0.567628,False,True,stimulusDIAN07_2IFCnew_2019_Jun_14_1556_709,stimulusDIAN07_2IFCnew_2019_Jun_14_1556_710,True,2019_Jun_14_1556,2IFCnew,3,DIAN07,
2IFCnew,55,0,55,0,0.1337902,1,No,13.9,-1,Hit,0.4671296,True,False,stimulusDIAN07_2IFCnew_2019_Jun_14_1556_711,stimulusDIAN07_2IFCnew_2019_Jun_14_1556_712,True,2019_Jun_14_1556,2IFCnew,3,DIAN07,
2IFCnew,56,0,56,0,0.400102600001,1,No,15.3,-1,Hit,0.500578700001,True,False,stimulusDIAN07_2IFCnew_2019_Jun_14_1556_713,stimulusDIAN07_2IFCnew_2019_Jun_14_1556_714,True,2019_Jun_14_1556,2IFCnew,3,DIAN07,
2IFCnew,57,0,57,0,0.1006562,2,Yes,5.8,-1,Correct Rejection,0.5674483,False,True,stimulusDIAN07_2IFCnew_2019_Jun_14_1556_715,stimulusDIAN07_2IFCnew_2019_Jun_14_1556_716,True,2019_Jun_14_1556,2IFCnew,3,DIAN07,
2IFCnew,58,0,58,0,0.266815000001,2,Yes,12.5,-1,Correct Rejection,0.5670126,False,True,stimulusDIAN07_2IFCnew_2019_Jun_14_1556_717,stimulusDIAN07_2IFCnew_2019_Jun_14_1556_718,True,2019_Jun_14_1556,2IFCnew,3,DIAN07,
2IFCnew,59,0,59,0,0.0671033999988,1,No,13.9,-1,Hit,0.4352198,True,False,stimulusDIAN07_2IFCnew_2019_Jun_14_1556_719,stimulusDIAN07_2IFCnew_2019_Jun_14_1556_720,True,2019_Jun_14_1556,2IFCnew,3,DIAN07,
2IFCnew,60,0,60,0,0.100405000001,1,No,16.9,-1,Hit,0.467033000001,True,False,stimulusDIAN07_2IFCnew_2019_Jun_14_1556_721,stimulusDIAN07_2IFCnew_2019_Jun_14_1556_722,True,2019_Jun_14_1556,2IFCnew,3,DIAN07,
2IFCnew,61,0,61,0,0.0669023000009,1,No,12.5,-1,Hit,0.434537900001,True,False,stimulusDIAN07_2IFCnew_2019_Jun_14_1556_723,stimulusDIAN07_2IFCnew_2019_Jun_14_1556_724,True,2019_Jun_14_1556,2IFCnew,3,DIAN07,
2IFCnew,62,0,62,0,0.567753900001,5,Yes,12.5,-1,False Alarm,0.434677700001,False,True,stimulusDIAN07_2IFCnew_2019_Jun_14_1556_725,stimulusDIAN07_2IFCnew_2019_Jun_14_1556_726,True,2019_Jun_14_1556,2IFCnew,3,DIAN07,
2IFCnew,63,0,63,0,0.100357399999,2,Yes,11.2,-1,Correct Rejection,0.5669179,False,True,stimulusDIAN07_2IFCnew_2019_Jun_14_1556_727,stimulusDIAN07_2IFCnew_2019_Jun_14_1556_728,True,2019_Jun_14_1556,2IFCnew,3,DIAN07,
2IFCnew,64,0,64,0,0.0333591999988,3,No,16.9,-1,False Alarm,0.468005000001,False,True,stimulusDIAN07_2IFCnew_2019_Jun_14_1556_729,stimulusDIAN07_2IFCnew_2019_Jun_14_1556_730,True,2019_Jun_14_1556,2IFCnew,3,DIAN07,
2IFCnew,65,0,65,0,0.5689081,5,Yes,5.8,-1,False Alarm,0.467292000001,False,True,stimulusDIAN07_2IFCnew_2019_Jun_14_1556_731,stimulusDIAN07_2IFCnew_2019_Jun_14_1556_732,True,2019_Jun_14_1556,2IFCnew,3,DIAN07,
2IFCnew,66,0,66,0,0.133112399999,2,Yes,13.9,-1,Correct Rejection,0.534601199999,False,True,stimulusDIAN07_2IFCnew_2019_Jun_14_1556_733,stimulusDIAN07_2IFCnew_2019_Jun_14_1556_734,True,2019_Jun_14_1556,2IFCnew,3,DIAN07,
2IFCnew,67,0,67,0,0.1338075,2,Yes,8.1,-1,Correct Rejection,0.567105100001,False,True,stimulusDIAN07_2IFCnew_2019_Jun_14_1556_735,stimulusDIAN07_2IFCnew_2019_Jun_14_1556_736,True,2019_Jun_14_1556,2IFCnew,3,DIAN07,
2IFCnew,68,0,68,0,0.534705399999,1,No,15.3,-1,Hit,0.5678948,True,False,stimulusDIAN07_2IFCnew_2019_Jun_14_1556_737,stimulusDIAN07_2IFCnew_2019_Jun_14_1556_738,True,2019_Jun_14_1556,2IFCnew,3,DIAN07,
2IFCnew,69,0,69,0,0.434437100001,2,Yes,8.1,-1,Correct Rejection,0.599579899999,False,True,stimulusDIAN07_2IFCnew_2019_Jun_14_1556_739,stimulusDIAN07_2IFCnew_2019_Jun_14_1556_740,True,2019_Jun_14_1556,2IFCnew,3,DIAN07,
2IFCnew,70,0,70,0,0.400508800001,1,No,9.8,-1,Hit,0.667989,True,False,stimulusDIAN07_2IFCnew_2019_Jun_14_1556_741,stimulusDIAN07_2IFCnew_2019_Jun_14_1556_742,True,2019_Jun_14_1556,2IFCnew,3,DIAN07,
2IFCnew,71,0,71,0,0.467865500001,1,No,9.8,-1,Hit,0.567683200001,True,False,stimulusDIAN07_2IFCnew_2019_Jun_14_1556_743,stimulusDIAN07_2IFCnew_2019_Jun_14_1556_744,True,2019_Jun_14_1556,2IFCnew,3,DIAN07,
2IFCnew,72,0,72,0,0.0671294000003,1,No,15.3,-1,Hit,0.467267599999,True,False,stimulusDIAN07_2IFCnew_2019_Jun_14_1556_745,stimulusDIAN07_2IFCnew_2019_Jun_14_1556_746,True,2019_Jun_14_1556,2IFCnew,3,DIAN07,
2IFCnew,73,0,73,0,0.4005034,1,No,12.5,-1,Hit,0.467036,True,False,stimulusDIAN07_2IFCnew_2019_Jun_14_1556_747,stimulusDIAN07_2IFCnew_2019_Jun_14_1556_748,True,2019_Jun_14_1556,2IFCnew,3,DIAN07,
2IFCnew,74,0,74,0,0.167056800001,1,No,12.5,-1,Hit,0.43403,True,False,stimulusDIAN07_2IFCnew_2019_Jun_14_1556_749,stimulusDIAN07_2IFCnew_2019_Jun_14_1556_750,True,2019_Jun_14_1556,2IFCnew,3,DIAN07,
2IFCnew,0,0,0,0,-1,0,No,11.2,-1,No Answer,-1,False,True,stimulusDIAN07_2IFCnew_2019_Jun_14_1556_751,stimulusDIAN07_2IFCnew_2019_Jun_14_1556_752,True,2019_Jun_14_1556,2IFCnew,3,DIAN07,
2IFCnew,1,0,1,0,0.3005335,1,No,11.2,-1,Hit,0.434179,True,False,stimulusDIAN07_2IFCnew_2019_Jun_14_1556_753,stimulusDIAN07_2IFCnew_2019_Jun_14_1556_754,True,2019_Jun_14_1556,2IFCnew,3,DIAN07,
2IFCnew,2,0,2,0,0.2671185,3,No,13.9,-1,False Alarm,0.467054199999,False,True,stimulusDIAN07_2IFCnew_2019_Jun_14_1556_755,stimulusDIAN07_2IFCnew_2019_Jun_14_1556_756,True,2019_Jun_14_1556,2IFCnew,3,DIAN07,
2IFCnew,3,0,3,0,0.4005239,5,Yes,15.3,-1,False Alarm,0.434382099998,False,True,stimulusDIAN07_2IFCnew_2019_Jun_14_1556_757,stimulusDIAN07_2IFCnew_2019_Jun_14_1556_758,True,2019_Jun_14_1556,2IFCnew,3,DIAN07,
2IFCnew,4,0,4,0,0.5339121,1,No,8.1,-1,Hit,0.467587300001,True,False,stimulusDIAN07_2IFCnew_2019_Jun_14_1556_759,stimulusDIAN07_2IFCnew_2019_Jun_14_1556_760,True,2019_Jun_14_1556,2IFCnew,3,DIAN07,
2IFCnew,5,0,5,0,0.1328543,3,No,9.8,-1,False Alarm,0.434087899999,False,True,stimulusDIAN07_2IFCnew_2019_Jun_14_1556_761,stimulusDIAN07_2IFCnew_2019_Jun_14_1556_762,True,2019_Jun_14_1556,2IFCnew,3,DIAN07,
2IFCnew,6,0,6,0,0.334260199999,1,No,16.9,-1,Hit,0.499919899999,True,False,stimulusDIAN07_2IFCnew_2019_Jun_14_1556_763,stimulusDIAN07_2IFCnew_2019_Jun_14_1556_764,True,2019_Jun_14_1556,2IFCnew,3,DIAN07,
2IFCnew,7,0,7,0,0.6683742,1,No,9.8,-1,Hit,0.4005481,True,False,stimulusDIAN07_2IFCnew_2019_Jun_14_1556_765,stimulusDIAN07_2IFCnew_2019_Jun_14_1556_766,True,2019_Jun_14_1556,2IFCnew,3,DIAN07,
2IFCnew,8,0,8,0,0.367706000001,3,No,5.8,-1,False Alarm,0.500407899999,False,True,stimulusDIAN07_2IFCnew_2019_Jun_14_1556_767,stimulusDIAN07_2IFCnew_2019_Jun_14_1556_768,True,2019_Jun_14_1556,2IFCnew,3,DIAN07,
2IFCnew,9,0,9,0,0.634174499999,5,Yes,16.9,-1,False Alarm,0.6007386,False,True,stimulusDIAN07_2IFCnew_2019_Jun_14_1556_769,stimulusDIAN07_2IFCnew_2019_Jun_14_1556_770,True,2019_Jun_14_1556,2IFCnew,3,DIAN07,
2IFCnew,10,0,10,0,0.567077900001,5,Yes,16.9,-1,False Alarm,0.4341104,False,True,stimulusDIAN07_2IFCnew_2019_Jun_14_1556_771,stimulusDIAN07_2IFCnew_2019_Jun_14_1556_772,True,2019_Jun_14_1556,2IFCnew,3,DIAN07,
2IFCnew,11,0,11,0,0.0336671000005,1,No,11.2,-1,Hit,0.467329399999,True,False,stimulusDIAN07_2IFCnew_2019_Jun_14_1556_773,stimulusDIAN07_2IFCnew_2019_Jun_14_1556_774,True,2019_Jun_14_1556,2IFCnew,3,DIAN07,
2IFCnew,12,0,12,0,0.4013641,3,No,5.8,-1,False Alarm,0.6006478,False,True,stimulusDIAN07_2IFCnew_2019_Jun_14_1556_775,stimulusDIAN07_2IFCnew_2019_Jun_14_1556_776,True,2019_Jun_14_1556,2IFCnew,3,DIAN07,
2IFCnew,13,0,13,0,0.4318965,1,No,9.8,-1,Hit,0.5671957,True,False,stimulusDIAN07_2IFCnew_2019_Jun_14_1556_777,stimulusDIAN07_2IFCnew_2019_Jun_14_1556_778,True,2019_Jun_14_1556,2IFCnew,3,DIAN07,
2IFCnew,14,0,14,0,0.600719,5,Yes,13.9,-1,False Alarm,0.5676112,False,True,stimulusDIAN07_2IFCnew_2019_Jun_14_1556_779,stimulusDIAN07_2IFCnew_2019_Jun_14_1556_780,True,2019_Jun_14_1556,2IFCnew,3,DIAN07,
2IFCnew,15,0,15,0,0.667301899999,5,Yes,9.8,-1,False Alarm,0.4677477,False,True,stimulusDIAN07_2IFCnew_2019_Jun_14_1556_781,stimulusDIAN07_2IFCnew_2019_Jun_14_1556_782,True,2019_Jun_14_1556,2IFCnew,3,DIAN07,
2IFCnew,16,0,16,0,0.4007248,2,Yes,16.9,-1,Correct Rejection,0.567396,False,True,stimulusDIAN07_2IFCnew_2019_Jun_14_1556_783,stimulusDIAN07_2IFCnew_2019_Jun_14_1556_784,True,2019_Jun_14_1556,2IFCnew,3,DIAN07,
2IFCnew,17,0,17,0,0.266782299999,1,No,11.2,-1,Hit,0.434014799999,True,False,stimulusDIAN07_2IFCnew_2019_Jun_14_1556_785,stimulusDIAN07_2IFCnew_2019_Jun_14_1556_786,True,2019_Jun_14_1556,2IFCnew,3,DIAN07,
2IFCnew,18,0,18,0,0.500646300001,1,No,9.8,-1,Hit,0.5340609,True,False,stimulusDIAN07_2IFCnew_2019_Jun_14_1556_787,stimulusDIAN07_2IFCnew_2019_Jun_14_1556_788,True,2019_Jun_14_1556,2IFCnew,3,DIAN07,
2IFCnew,19,0,19,0,0.433023699999,1,No,12.5,-1,Hit,0.433867400001,True,False,stimulusDIAN07_2IFCnew_2019_Jun_14_1556_789,stimulusDIAN07_2IFCnew_2019_Jun_14_1556_790,True,2019_Jun_14_1556,2IFCnew,3,DIAN07,
2IFCnew,20,0,20,0,0.430913099999,5,Yes,16.9,-1,False Alarm,0.4348869,False,True,stimulusDIAN07_2IFCnew_2019_Jun_14_1556_791,stimulusDIAN07_2IFCnew_2019_Jun_14_1556_792,True,2019_Jun_14_1556,2IFCnew,3,DIAN07,
2IFCnew,21,0,21,0,0.366781700001,2,Yes,9.8,-1,Correct Rejection,0.567681099999,False,True,stimulusDIAN07_2IFCnew_2019_Jun_14_1556_793,stimulusDIAN07_2IFCnew_2019_Jun_14_1556_794,True,2019_Jun_14_1556,2IFCnew,3,DIAN07,
2IFCnew,22,0,22,0,0.467349800001,1,No,15.3,-1,Hit,0.433999399998,True,False,stimulusDIAN07_2IFCnew_2019_Jun_14_1556_795,stimulusDIAN07_2IFCnew_2019_Jun_14_1556_796,True,2019_Jun_14_1556,2IFCnew,3,DIAN07,
2IFCnew,23,0,23,0,0.401312599999,1,No,15.3,-1,Hit,0.4336941,True,False,stimulusDIAN07_2IFCnew_2019_Jun_14_1556_797,stimulusDIAN07_2IFCnew_2019_Jun_14_1556_798,True,2019_Jun_14_1556,2IFCnew,3,DIAN07,
2IFCnew,24,0,24,0,0.466972,2,Yes,12.5,-1,Correct Rejection,0.5340063,False,True,stimulusDIAN07_2IFCnew_2019_Jun_14_1556_799,stimulusDIAN07_2IFCnew_2019_Jun_14_1556_800,True,2019_Jun_14_1556,2IFCnew,3,DIAN07,
2IFCnew,25,0,25,0,0.6672258,7,Yes,8.1,-1,Hit,0.5342189,True,False,stimulusDIAN07_2IFCnew_2019_Jun_14_1556_801,stimulusDIAN07_2IFCnew_2019_Jun_14_1556_802,True,2019_Jun_14_1556,2IFCnew,3,DIAN07,
2IFCnew,26,0,26,0,0.166469200001,1,No,15.3,-1,Hit,0.434272699998,True,False,stimulusDIAN07_2IFCnew_2019_Jun_14_1556_803,stimulusDIAN07_2IFCnew_2019_Jun_14_1556_804,True,2019_Jun_14_1556,2IFCnew,3,DIAN07,
2IFCnew,27,0,27,0,0.2335146,1,No,8.1,-1,Hit,0.4673552,True,False,stimulusDIAN07_2IFCnew_2019_Jun_14_1556_805,stimulusDIAN07_2IFCnew_2019_Jun_14_1556_806,True,2019_Jun_14_1556,2IFCnew,3,DIAN07,
2IFCnew,28,0,28,0,0.467067900001,5,Yes,9.8,-1,False Alarm,0.601113799999,False,True,stimulusDIAN07_2IFCnew_2019_Jun_14_1556_807,stimulusDIAN07_2IFCnew_2019_Jun_14_1556_808,True,2019_Jun_14_1556,2IFCnew,3,DIAN07,
2IFCnew,29,0,29,0,0.1340313,1,No,15.3,-1,Hit,0.434035900002,True,False,stimulusDIAN07_2IFCnew_2019_Jun_14_1556_809,stimulusDIAN07_2IFCnew_2019_Jun_14_1556_810,True,2019_Jun_14_1556,2IFCnew,3,DIAN07,
2IFCnew,30,0,30,0,0.167511799998,1,No,8.1,-1,Hit,0.467701599999,True,False,stimulusDIAN07_2IFCnew_2019_Jun_14_1556_811,stimulusDIAN07_2IFCnew_2019_Jun_14_1556_812,True,2019_Jun_14_1556,2IFCnew,3,DIAN07,
2IFCnew,31,0,31,0,0.7002961,8,No,5.8,-1,Correct Rejection,0.766783000001,False,True,stimulusDIAN07_2IFCnew_2019_Jun_14_1556_813,stimulusDIAN07_2IFCnew_2019_Jun_14_1556_814,True,2019_Jun_14_1556,2IFCnew,3,DIAN07,
2IFCnew,32,0,32,0,0.102076499999,2,Yes,12.5,-1,Correct Rejection,0.5007429,False,True,stimulusDIAN07_2IFCnew_2019_Jun_14_1556_815,stimulusDIAN07_2IFCnew_2019_Jun_14_1556_816,True,2019_Jun_14_1556,2IFCnew,3,DIAN07,
2IFCnew,33,0,33,0,0.100443200001,2,Yes,13.9,-1,Correct Rejection,0.5667395,False,True,stimulusDIAN07_2IFCnew_2019_Jun_14_1556_817,stimulusDIAN07_2IFCnew_2019_Jun_14_1556_818,True,2019_Jun_14_1556,2IFCnew,3,DIAN07,
2IFCnew,34,0,34,0,0.0676503000013,3,No,16.9,-1,False Alarm,0.500611400001,False,True,stimulusDIAN07_2IFCnew_2019_Jun_14_1556_819,stimulusDIAN07_2IFCnew_2019_Jun_14_1556_820,True,2019_Jun_14_1556,2IFCnew,3,DIAN07,
2IFCnew,35,0,35,0,0.8340398,5,Yes,9.8,-1,False Alarm,0.8008328,False,True,stimulusDIAN07_2IFCnew_2019_Jun_14_1556_821,stimulusDIAN07_2IFCnew_2019_Jun_14_1556_822,True,2019_Jun_14_1556,2IFCnew,3,DIAN07,
2IFCnew,36,0,36,0,0.367447100001,2,Yes,12.5,-1,Correct Rejection,0.534551100001,False,True,stimulusDIAN07_2IFCnew_2019_Jun_14_1556_823,stimulusDIAN07_2IFCnew_2019_Jun_14_1556_824,True,2019_Jun_14_1556,2IFCnew,3,DIAN07,
2IFCnew,37,0,37,0,0.3339937,5,Yes,16.9,-1,False Alarm,0.533831700001,False,True,stimulusDIAN07_2IFCnew_2019_Jun_14_1556_825,stimulusDIAN07_2IFCnew_2019_Jun_14_1556_826,True,2019_Jun_14_1556,2IFCnew,3,DIAN07,
2IFCnew,38,0,38,0,0.567634000001,1,No,15.3,-1,Hit,0.4669065,True,False,stimulusDIAN07_2IFCnew_2019_Jun_14_1556_827,stimulusDIAN07_2IFCnew_2019_Jun_14_1556_828,True,2019_Jun_14_1556,2IFCnew,3,DIAN07,
2IFCnew,39,0,39,0,0.400753100001,2,Yes,16.9,-1,Correct Rejection,0.5669547,False,True,stimulusDIAN07_2IFCnew_2019_Jun_14_1556_829,stimulusDIAN07_2IFCnew_2019_Jun_14_1556_830,True,2019_Jun_14_1556,2IFCnew,3,DIAN07,
2IFCnew,40,0,40,0,0.2634447,1,No,16.9,-1,Hit,0.466773100001,True,False,stimulusDIAN07_2IFCnew_2019_Jun_14_1556_831,stimulusDIAN07_2IFCnew_2019_Jun_14_1556_832,True,2019_Jun_14_1556,2IFCnew,3,DIAN07,
2IFCnew,41,0,41,0,0.367295600001,2,Yes,11.2,-1,Correct Rejection,0.633749699999,False,True,stimulusDIAN07_2IFCnew_2019_Jun_14_1556_833,stimulusDIAN07_2IFCnew_2019_Jun_14_1556_834,True,2019_Jun_14_1556,2IFCnew,3,DIAN07,
2IFCnew,42,0,42,0,0.267006599999,1,No,13.9,-1,Hit,0.467188100001,True,False,stimulusDIAN07_2IFCnew_2019_Jun_14_1556_835,stimulusDIAN07_2IFCnew_2019_Jun_14_1556_836,True,2019_Jun_14_1556,2IFCnew,3,DIAN07,
2IFCnew,43,0,43,0,0.300375000001,1,No,8.1,-1,Hit,0.4659734,True,False,stimulusDIAN07_2IFCnew_2019_Jun_14_1556_837,stimulusDIAN07_2IFCnew_2019_Jun_14_1556_838,True,2019_Jun_14_1556,2IFCnew,3,DIAN07,
2IFCnew,44,0,44,0,0.266990800001,1,No,5.8,-1,Hit,0.4675837,True,False,stimulusDIAN07_2IFCnew_2019_Jun_14_1556_839,stimulusDIAN07_2IFCnew_2019_Jun_14_1556_840,True,2019_Jun_14_1556,2IFCnew,3,DIAN07,
2IFCnew,45,0,45,0,0.2672671,1,No,5.8,-1,Hit,0.533812900001,True,False,stimulusDIAN07_2IFCnew_2019_Jun_14_1556_841,stimulusDIAN07_2IFCnew_2019_Jun_14_1556_842,True,2019_Jun_14_1556,2IFCnew,3,DIAN07,
2IFCnew,46,0,46,0,0.1664671,1,No,12.5,-1,Hit,0.433993799999,True,False,stimulusDIAN07_2IFCnew_2019_Jun_14_1556_843,stimulusDIAN07_2IFCnew_2019_Jun_14_1556_844,True,2019_Jun_14_1556,2IFCnew,3,DIAN07,
2IFCnew,47,0,47,0,0.0673504999995,1,No,8.1,-1,Hit,0.4332063,True,False,stimulusDIAN07_2IFCnew_2019_Jun_14_1556_845,stimulusDIAN07_2IFCnew_2019_Jun_14_1556_846,True,2019_Jun_14_1556,2IFCnew,3,DIAN07,
2IFCnew,48,0,48,0,0.167717299999,3,No,5.8,-1,False Alarm,0.4340691,False,True,stimulusDIAN07_2IFCnew_2019_Jun_14_1556_847,stimulusDIAN07_2IFCnew_2019_Jun_14_1556_848,True,2019_Jun_14_1556,2IFCnew,3,DIAN07,
2IFCnew,49,0,49,0,0.2670607,2,Yes,13.9,-1,Correct Rejection,0.6005902,False,True,stimulusDIAN07_2IFCnew_2019_Jun_14_1556_849,stimulusDIAN07_2IFCnew_2019_Jun_14_1556_850,True,2019_Jun_14_1556,2IFCnew,3,DIAN07,
2IFCnew,50,0,50,0,0.5344549,6,No,11.2,-1,Miss,0.7007373,True,False,stimulusDIAN07_2IFCnew_2019_Jun_14_1556_851,stimulusDIAN07_2IFCnew_2019_Jun_14_1556_852,True,2019_Jun_14_1556,2IFCnew,3,DIAN07,
2IFCnew,51,0,51,0,0.467034399999,1,No,5.8,-1,Hit,0.5690985,True,False,stimulusDIAN07_2IFCnew_2019_Jun_14_1556_853,stimulusDIAN07_2IFCnew_2019_Jun_14_1556_854,True,2019_Jun_14_1556,2IFCnew,3,DIAN07,
2IFCnew,52,0,52,0,0.2678861,3,No,5.8,-1,False Alarm,0.5678677,False,True,stimulusDIAN07_2IFCnew_2019_Jun_14_1556_855,stimulusDIAN07_2IFCnew_2019_Jun_14_1556_856,True,2019_Jun_14_1556,2IFCnew,3,DIAN07,
2IFCnew,53,0,53,0,0.3006898,2,Yes,5.8,-1,Correct Rejection,0.534107399999,False,True,stimulusDIAN07_2IFCnew_2019_Jun_14_1556_857,stimulusDIAN07_2IFCnew_2019_Jun_14_1556_858,True,2019_Jun_14_1556,2IFCnew,3,DIAN07,
2IFCnew,54,0,54,0,0.233835700001,2,Yes,11.2,-1,Correct Rejection,0.6334701,False,True,stimulusDIAN07_2IFCnew_2019_Jun_14_1556_859,stimulusDIAN07_2IFCnew_2019_Jun_14_1556_860,True,2019_Jun_14_1556,2IFCnew,3,DIAN07,
2IFCnew,55,0,55,0,0.267096199999,2,Yes,11.2,-1,Correct Rejection,0.600344800001,False,True,stimulusDIAN07_2IFCnew_2019_Jun_14_1556_861,stimulusDIAN07_2IFCnew_2019_Jun_14_1556_862,True,2019_Jun_14_1556,2IFCnew,3,DIAN07,
2IFCnew,56,0,56,0,0.0671865000004,1,No,16.9,-1,Hit,0.5003022,True,False,stimulusDIAN07_2IFCnew_2019_Jun_14_1556_863,stimulusDIAN07_2IFCnew_2019_Jun_14_1556_864,True,2019_Jun_14_1556,2IFCnew,3,DIAN07,
2IFCnew,57,0,57,0,0.1003948,1,No,15.3,-1,Hit,0.4672909,True,False,stimulusDIAN07_2IFCnew_2019_Jun_14_1556_865,stimulusDIAN07_2IFCnew_2019_Jun_14_1556_866,True,2019_Jun_14_1556,2IFCnew,3,DIAN07,
2IFCnew,58,0,58,0,0.133365600001,1,No,9.8,-1,Hit,0.6000604,True,False,stimulusDIAN07_2IFCnew_2019_Jun_14_1556_867,stimulusDIAN07_2IFCnew_2019_Jun_14_1556_868,True,2019_Jun_14_1556,2IFCnew,3,DIAN07,
2IFCnew,59,0,59,0,0.100166499999,3,No,12.5,-1,False Alarm,0.4339537,False,True,stimulusDIAN07_2IFCnew_2019_Jun_14_1556_869,stimulusDIAN07_2IFCnew_2019_Jun_14_1556_870,True,2019_Jun_14_1556,2IFCnew,3,DIAN07,
2IFCnew,60,0,60,0,0.467208800001,1,No,5.8,-1,Hit,0.4683171,True,False,stimulusDIAN07_2IFCnew_2019_Jun_14_1556_871,stimulusDIAN07_2IFCnew_2019_Jun_14_1556_872,True,2019_Jun_14_1556,2IFCnew,3,DIAN07,
2IFCnew,61,0,61,0,0.399195800001,1,No,8.1,-1,Hit,0.466871299999,True,False,stimulusDIAN07_2IFCnew_2019_Jun_14_1556_873,stimulusDIAN07_2IFCnew_2019_Jun_14_1556_874,True,2019_Jun_14_1556,2IFCnew,3,DIAN07,
2IFCnew,62,0,62,0,0.367281299999,1,No,8.1,-1,Hit,0.5367224,True,False,stimulusDIAN07_2IFCnew_2019_Jun_14_1556_875,stimulusDIAN07_2IFCnew_2019_Jun_14_1556_876,True,2019_Jun_14_1556,2IFCnew,3,DIAN07,
2IFCnew,63,0,63,0,0.600907399999,5,Yes,16.9,-1,False Alarm,0.4668389,False,True,stimulusDIAN07_2IFCnew_2019_Jun_14_1556_877,stimulusDIAN07_2IFCnew_2019_Jun_14_1556_878,True,2019_Jun_14_1556,2IFCnew,3,DIAN07,
2IFCnew,64,0,64,0,0.467451,1,No,9.8,-1,Hit,0.467350100002,True,False,stimulusDIAN07_2IFCnew_2019_Jun_14_1556_879,stimulusDIAN07_2IFCnew_2019_Jun_14_1556_880,True,2019_Jun_14_1556,2IFCnew,3,DIAN07,
2IFCnew,65,0,65,0,0.400436399999,2,Yes,11.2,-1,Correct Rejection,0.667214700001,False,True,stimulusDIAN07_2IFCnew_2019_Jun_14_1556_881,stimulusDIAN07_2IFCnew_2019_Jun_14_1556_882,True,2019_Jun_14_1556,2IFCnew,3,DIAN07,
2IFCnew,66,0,66,0,0.167169599999,1,No,16.9,-1,Hit,0.468542100001,True,False,stimulusDIAN07_2IFCnew_2019_Jun_14_1556_883,stimulusDIAN07_2IFCnew_2019_Jun_14_1556_884,True,2019_Jun_14_1556,2IFCnew,3,DIAN07,
2IFCnew,67,0,67,0,0.366940599999,1,No,5.8,-1,Hit,0.5347991,True,False,stimulusDIAN07_2IFCnew_2019_Jun_14_1556_885,stimulusDIAN07_2IFCnew_2019_Jun_14_1556_886,True,2019_Jun_14_1556,2IFCnew,3,DIAN07,
2IFCnew,68,0,68,0,0.600127,5,Yes,9.8,-1,False Alarm,0.466963000001,False,True,stimulusDIAN07_2IFCnew_2019_Jun_14_1556_887,stimulusDIAN07_2IFCnew_2019_Jun_14_1556_888,True,2019_Jun_14_1556,2IFCnew,3,DIAN07,
2IFCnew,69,0,69,0,0.300527199999,2,Yes,16.9,-1,Correct Rejection,0.567350200001,False,True,stimulusDIAN07_2IFCnew_2019_Jun_14_1556_889,stimulusDIAN07_2IFCnew_2019_Jun_14_1556_890,True,2019_Jun_14_1556,2IFCnew,3,DIAN07,
2IFCnew,70,0,70,0,0.7675611,1,No,8.1,-1,Hit,0.467247500001,True,False,stimulusDIAN07_2IFCnew_2019_Jun_14_1556_891,stimulusDIAN07_2IFCnew_2019_Jun_14_1556_892,True,2019_Jun_14_1556,2IFCnew,3,DIAN07,
2IFCnew,71,0,71,0,0.467347,3,No,5.8,-1,False Alarm,0.400690400002,False,True,stimulusDIAN07_2IFCnew_2019_Jun_14_1556_893,stimulusDIAN07_2IFCnew_2019_Jun_14_1556_894,True,2019_Jun_14_1556,2IFCnew,3,DIAN07,
2IFCnew,72,0,72,0,0.133840500001,1,No,13.9,-1,Hit,0.400295699999,True,False,stimulusDIAN07_2IFCnew_2019_Jun_14_1556_895,stimulusDIAN07_2IFCnew_2019_Jun_14_1556_896,True,2019_Jun_14_1556,2IFCnew,3,DIAN07,
2IFCnew,73,0,73,0,0.533694100001,5,Yes,16.9,-1,False Alarm,0.566896100001,False,True,stimulusDIAN07_2IFCnew_2019_Jun_14_1556_897,stimulusDIAN07_2IFCnew_2019_Jun_14_1556_898,True,2019_Jun_14_1556,2IFCnew,3,DIAN07,
2IFCnew,74,0,74,0,0.599595899999,5,Yes,15.3,-1,False Alarm,0.501491499999,False,True,stimulusDIAN07_2IFCnew_2019_Jun_14_1556_899,stimulusDIAN07_2IFCnew_2019_Jun_14_1556_900,True,2019_Jun_14_1556,2IFCnew,3,DIAN07,
2IFCnew,0,0,0,0,0.366157100001,3,No,12.5,-1,False Alarm,0.5675472,False,True,stimulusDIAN07_2IFCnew_2019_Jun_14_1556_901,stimulusDIAN07_2IFCnew_2019_Jun_14_1556_902,True,2019_Jun_14_1556,2IFCnew,3,DIAN07,
2IFCnew,1,0,1,0,0.333983999999,1,No,8.1,-1,Hit,0.500693800001,True,False,stimulusDIAN07_2IFCnew_2019_Jun_14_1556_903,stimulusDIAN07_2IFCnew_2019_Jun_14_1556_904,True,2019_Jun_14_1556,2IFCnew,3,DIAN07,
2IFCnew,2,0,2,0,0.4339798,6,No,13.9,-1,Miss,0.534693000001,True,False,stimulusDIAN07_2IFCnew_2019_Jun_14_1556_905,stimulusDIAN07_2IFCnew_2019_Jun_14_1556_906,True,2019_Jun_14_1556,2IFCnew,3,DIAN07,
2IFCnew,3,0,3,0,0.300638299999,1,No,12.5,-1,Hit,0.434014100001,True,False,stimulusDIAN07_2IFCnew_2019_Jun_14_1556_907,stimulusDIAN07_2IFCnew_2019_Jun_14_1556_908,True,2019_Jun_14_1556,2IFCnew,3,DIAN07,
2IFCnew,4,0,4,0,0.467080600001,3,No,11.2,-1,False Alarm,0.4348854,False,True,stimulusDIAN07_2IFCnew_2019_Jun_14_1556_909,stimulusDIAN07_2IFCnew_2019_Jun_14_1556_910,True,2019_Jun_14_1556,2IFCnew,3,DIAN07,
2IFCnew,5,0,5,0,0.567176299999,1,No,8.1,-1,Hit,0.4338797,True,False,stimulusDIAN07_2IFCnew_2019_Jun_14_1556_911,stimulusDIAN07_2IFCnew_2019_Jun_14_1556_912,True,2019_Jun_14_1556,2IFCnew,3,DIAN07,
2IFCnew,6,0,6,0,0.2681546,2,Yes,15.3,-1,Correct Rejection,0.5334896,False,True,stimulusDIAN07_2IFCnew_2019_Jun_14_1556_913,stimulusDIAN07_2IFCnew_2019_Jun_14_1556_914,True,2019_Jun_14_1556,2IFCnew,3,DIAN07,
2IFCnew,7,0,7,0,0.4336035,1,No,5.8,-1,Hit,0.434085000001,True,False,stimulusDIAN07_2IFCnew_2019_Jun_14_1556_915,stimulusDIAN07_2IFCnew_2019_Jun_14_1556_916,True,2019_Jun_14_1556,2IFCnew,3,DIAN07,
2IFCnew,8,0,8,0,0.333872199999,2,Yes,11.2,-1,Correct Rejection,0.6671534,False,True,stimulusDIAN07_2IFCnew_2019_Jun_14_1556_917,stimulusDIAN07_2IFCnew_2019_Jun_14_1556_918,True,2019_Jun_14_1556,2IFCnew,3,DIAN07,
2IFCnew,9,0,9,0,-1,1,Yes,16.9,-1,Hit,0.4670499,True,False,stimulusDIAN07_2IFCnew_2019_Jun_14_1556_919,stimulusDIAN07_2IFCnew_2019_Jun_14_1556_920,True,2019_Jun_14_1556,2IFCnew,3,DIAN07,
2IFCnew,10,0,10,0,0.3670305,2,Yes,9.8,-1,Correct Rejection,0.568373800001,False,True,stimulusDIAN07_2IFCnew_2019_Jun_14_1556_921,stimulusDIAN07_2IFCnew_2019_Jun_14_1556_922,True,2019_Jun_14_1556,2IFCnew,3,DIAN07,
2IFCnew,11,0,11,0,0.4340113,4,Yes,9.8,-1,Miss,0.667392900001,True,False,stimulusDIAN07_2IFCnew_2019_Jun_14_1556_923,stimulusDIAN07_2IFCnew_2019_Jun_14_1556_924,True,2019_Jun_14_1556,2IFCnew,3,DIAN07,
2IFCnew,12,0,12,0,0.5343017,8,No,8.1,-1,Correct Rejection,0.7014623,False,True,stimulusDIAN07_2IFCnew_2019_Jun_14_1556_925,stimulusDIAN07_2IFCnew_2019_Jun_14_1556_926,True,2019_Jun_14_1556,2IFCnew,3,DIAN07,
2IFCnew,13,0,13,0,0.533583999999,1,No,5.8,-1,Hit,0.602161700001,True,False,stimulusDIAN07_2IFCnew_2019_Jun_14_1556_927,stimulusDIAN07_2IFCnew_2019_Jun_14_1556_928,True,2019_Jun_14_1556,2IFCnew,3,DIAN07,
2IFCnew,14,0,14,0,-1,1,No,13.9,-1,Hit,0.535165400001,True,False,stimulusDIAN07_2IFCnew_2019_Jun_14_1556_929,stimulusDIAN07_2IFCnew_2019_Jun_14_1556_930,True,2019_Jun_14_1556,2IFCnew,3,DIAN07,
2IFCnew,15,0,15,0,0.3672006,4,Yes,8.1,-1,Miss,0.601981199999,True,False,stimulusDIAN07_2IFCnew_2019_Jun_14_1556_931,stimulusDIAN07_2IFCnew_2019_Jun_14_1556_932,True,2019_Jun_14_1556,2IFCnew,3,DIAN07,
2IFCnew,16,0,16,0,0.6003826,2,Yes,11.2,-1,Correct Rejection,0.633855300001,False,True,stimulusDIAN07_2IFCnew_2019_Jun_14_1556_933,stimulusDIAN07_2IFCnew_2019_Jun_14_1556_934,True,2019_Jun_14_1556,2IFCnew,3,DIAN07,
2IFCnew,17,0,17,0,0.3671655,2,Yes,11.2,-1,Correct Rejection,0.634325999999,False,True,stimulusDIAN07_2IFCnew_2019_Jun_14_1556_935,stimulusDIAN07_2IFCnew_2019_Jun_14_1556_936,True,2019_Jun_14_1556,2IFCnew,3,DIAN07,
2IFCnew,18,0,18,0,0.400627199999,2,Yes,8.1,-1,Correct Rejection,0.567400299999,False,True,stimulusDIAN07_2IFCnew_2019_Jun_14_1556_937,stimulusDIAN07_2IFCnew_2019_Jun_14_1556_938,True,2019_Jun_14_1556,2IFCnew,3,DIAN07,
2IFCnew,19,0,19,0,0.467639499999,3,No,16.9,-1,False Alarm,0.6005802,False,True,stimulusDIAN07_2IFCnew_2019_Jun_14_1556_939,stimulusDIAN07_2IFCnew_2019_Jun_14_1556_940,True,2019_Jun_14_1556,2IFCnew,3,DIAN07,
2IFCnew,20,0,20,0,0.4331628,2,Yes,15.3,-1,Correct Rejection,0.6660713,False,True,stimulusDIAN07_2IFCnew_2019_Jun_14_1556_941,stimulusDIAN07_2IFCnew_2019_Jun_14_1556_942,True,2019_Jun_14_1556,2IFCnew,3,DIAN07,
2IFCnew,21,0,21,0,0.8340639,6,No,11.2,-1,Miss,0.6004572,True,False,stimulusDIAN07_2IFCnew_2019_Jun_14_1556_943,stimulusDIAN07_2IFCnew_2019_Jun_14_1556_944,True,2019_Jun_14_1556,2IFCnew,3,DIAN07,
2IFCnew,22,0,22,0,0.4673107,1,No,5.8,-1,Hit,0.5340959,True,False,stimulusDIAN07_2IFCnew_2019_Jun_14_1556_945,stimulusDIAN07_2IFCnew_2019_Jun_14_1556_946,True,2019_Jun_14_1556,2IFCnew,3,DIAN07,
2IFCnew,23,0,23,0,0.500165500001,5,Yes,11.2,-1,False Alarm,0.499675200001,False,True,stimulusDIAN07_2IFCnew_2019_Jun_14_1556_947,stimulusDIAN07_2IFCnew_2019_Jun_14_1556_948,True,2019_Jun_14_1556,2IFCnew,3,DIAN07,
2IFCnew,24,0,24,0,0.4671368,2,Yes,13.9,-1,Correct Rejection,0.767531000001,False,True,stimulusDIAN07_2IFCnew_2019_Jun_14_1556_949,stimulusDIAN07_2IFCnew_2019_Jun_14_1556_950,True,2019_Jun_14_1556,2IFCnew,3,DIAN07,
2IFCnew,25,0,25,0,0.5338902,1,No,5.8,-1,Hit,0.5344761,True,False,stimulusDIAN07_2IFCnew_2019_Jun_14_1556_951,stimulusDIAN07_2IFCnew_2019_Jun_14_1556_952,True,2019_Jun_14_1556,2IFCnew,3,DIAN07,
2IFCnew,26,0,26,0,0.6007293,1,No,8.1,-1,Hit,0.500890700001,True,False,stimulusDIAN07_2IFCnew_2019_Jun_14_1556_953,stimulusDIAN07_2IFCnew_2019_Jun_14_1556_954,True,2019_Jun_14_1556,2IFCnew,3,DIAN07,
2IFCnew,27,0,27,0,0.734103700001,5,Yes,9.8,-1,False Alarm,0.8342976,False,True,stimulusDIAN07_2IFCnew_2019_Jun_14_1556_955,stimulusDIAN07_2IFCnew_2019_Jun_14_1556_956,True,2019_Jun_14_1556,2IFCnew,3,DIAN07,
2IFCnew,28,0,28,0,0.7005568,2,Yes,12.5,-1,Correct Rejection,0.767636100001,False,True,stimulusDIAN07_2IFCnew_2019_Jun_14_1556_957,stimulusDIAN07_2IFCnew_2019_Jun_14_1556_958,True,2019_Jun_14_1556,2IFCnew,3,DIAN07,
2IFCnew,29,0,29,0,0.7004504,1,No,5.8,-1,Hit,0.5342752,True,False,stimulusDIAN07_2IFCnew_2019_Jun_14_1556_959,stimulusDIAN07_2IFCnew_2019_Jun_14_1556_960,True,2019_Jun_14_1556,2IFCnew,3,DIAN07,
2IFCnew,30,0,30,0,0.634361099999,1,No,13.9,-1,Hit,0.5337867,True,False,stimulusDIAN07_2IFCnew_2019_Jun_14_1556_961,stimulusDIAN07_2IFCnew_2019_Jun_14_1556_962,True,2019_Jun_14_1556,2IFCnew,3,DIAN07,
2IFCnew,31,0,31,0,0.467522500001,2,Yes,16.9,-1,Correct Rejection,0.733860300001,False,True,stimulusDIAN07_2IFCnew_2019_Jun_14_1556_963,stimulusDIAN07_2IFCnew_2019_Jun_14_1556_964,True,2019_Jun_14_1556,2IFCnew,3,DIAN07,
2IFCnew,32,0,32,0,0.566362900001,1,No,16.9,-1,Hit,0.501379900001,True,False,stimulusDIAN07_2IFCnew_2019_Jun_14_1556_965,stimulusDIAN07_2IFCnew_2019_Jun_14_1556_966,True,2019_Jun_14_1556,2IFCnew,3,DIAN07,
2IFCnew,33,0,33,0,0.400585399999,1,No,8.1,-1,Hit,0.534644700001,True,False,stimulusDIAN07_2IFCnew_2019_Jun_14_1556_967,stimulusDIAN07_2IFCnew_2019_Jun_14_1556_968,True,2019_Jun_14_1556,2IFCnew,3,DIAN07,
2IFCnew,34,0,34,0,0.533904800001,1,No,12.5,-1,Hit,0.534104099999,True,False,stimulusDIAN07_2IFCnew_2019_Jun_14_1556_969,stimulusDIAN07_2IFCnew_2019_Jun_14_1556_970,True,2019_Jun_14_1556,2IFCnew,3,DIAN07,
2IFCnew,35,0,35,0,0.466961700002,2,Yes,8.1,-1,Correct Rejection,0.5000728,False,True,stimulusDIAN07_2IFCnew_2019_Jun_14_1556_971,stimulusDIAN07_2IFCnew_2019_Jun_14_1556_972,True,2019_Jun_14_1556,2IFCnew,3,DIAN07,
2IFCnew,36,0,36,0,0.5672287,1,No,15.3,-1,Hit,0.5674638,True,False,stimulusDIAN07_2IFCnew_2019_Jun_14_1556_973,stimulusDIAN07_2IFCnew_2019_Jun_14_1556_974,True,2019_Jun_14_1556,2IFCnew,3,DIAN07,
2IFCnew,37,0,37,0,0.7341024,2,Yes,13.9,-1,Correct Rejection,0.533859199999,False,True,stimulusDIAN07_2IFCnew_2019_Jun_14_1556_975,stimulusDIAN07_2IFCnew_2019_Jun_14_1556_976,True,2019_Jun_14_1556,2IFCnew,3,DIAN07,
2IFCnew,38,0,38,0,0.4702401,2,Yes,12.5,-1,Correct Rejection,0.468110700001,False,True,stimulusDIAN07_2IFCnew_2019_Jun_14_1556_977,stimulusDIAN07_2IFCnew_2019_Jun_14_1556_978,True,2019_Jun_14_1556,2IFCnew,3,DIAN07,
2IFCnew,39,0,39,0,0.366565600001,2,Yes,9.8,-1,Correct Rejection,0.599946400001,False,True,stimulusDIAN07_2IFCnew_2019_Jun_14_1556_979,stimulusDIAN07_2IFCnew_2019_Jun_14_1556_980,True,2019_Jun_14_1556,2IFCnew,3,DIAN07,
2IFCnew,40,0,40,0,0.433184900001,1,No,16.9,-1,Hit,0.5347327,True,False,stimulusDIAN07_2IFCnew_2019_Jun_14_1556_981,stimulusDIAN07_2IFCnew_2019_Jun_14_1556_982,True,2019_Jun_14_1556,2IFCnew,3,DIAN07,
2IFCnew,41,0,41,0,0.3674209,2,Yes,16.9,-1,Correct Rejection,0.533750499999,False,True,stimulusDIAN07_2IFCnew_2019_Jun_14_1556_983,stimulusDIAN07_2IFCnew_2019_Jun_14_1556_984,True,2019_Jun_14_1556,2IFCnew,3,DIAN07,
2IFCnew,42,0,42,0,0.6006636,8,No,9.8,-1,Correct Rejection,0.5338206,False,True,stimulusDIAN07_2IFCnew_2019_Jun_14_1556_985,stimulusDIAN07_2IFCnew_2019_Jun_14_1556_986,True,2019_Jun_14_1556,2IFCnew,3,DIAN07,
