Task,trials.thisRepN,trials.thisTrialN,trials.thisN,trials.thisIndex,signal_intensity,constant Value,response,time_response,signal_on_stimuluspos1,signal_on_stimuluspos2,stimulus_name_pos1,stimulus_name_pos2,random_intensity,date,expName,session,participant,
2IFC,0,0,0,0,5.8,-1,correct answer,0.5003908,True,False,stimulusDIAN07_2IFC_2019_Jun_14_1637_1,stimulusDIAN07_2IFC_2019_Jun_14_1637_2,True,2019_Jun_14_1637,2IFC,3,DIAN07,
2IFC,1,0,1,0,9.8,-1,correct answer,0.4007454,False,True,stimulusDIAN07_2IFC_2019_Jun_14_1637_3,stimulusDIAN07_2IFC_2019_Jun_14_1637_4,True,2019_Jun_14_1637,2IFC,3,DIAN07,
2IFC,2,0,2,0,16.9,-1,correct answer,0.433722900001,False,True,stimulusDIAN07_2IFC_2019_Jun_14_1637_5,stimulusDIAN07_2IFC_2019_Jun_14_1637_6,True,2019_Jun_14_1637,2IFC,3,DIAN07,
2IFC,3,0,3,0,12.5,-1,correct answer,0.3007239,True,False,stimulusDIAN07_2IFC_2019_Jun_14_1637_7,stimulusDIAN07_2IFC_2019_Jun_14_1637_8,True,2019_Jun_14_1637,2IFC,3,DIAN07,
2IFC,4,0,4,0,16.9,-1,correct answer,0.333433599999,False,True,stimulusDIAN07_2IFC_2019_Jun_14_1637_9,stimulusDIAN07_2IFC_2019_Jun_14_1637_10,True,2019_Jun_14_1637,2IFC,3,DIAN07,
2IFC,5,0,5,0,9.8,-1,correct answer,0.4341709,False,True,stimulusDIAN07_2IFC_2019_Jun_14_1637_11,stimulusDIAN07_2IFC_2019_Jun_14_1637_12,True,2019_Jun_14_1637,2IFC,3,DIAN07,
2IFC,6,0,6,0,13.9,-1,correct answer,0.200543999999,True,False,stimulusDIAN07_2IFC_2019_Jun_14_1637_13,stimulusDIAN07_2IFC_2019_Jun_14_1637_14,True,2019_Jun_14_1637,2IFC,3,DIAN07,
2IFC,7,0,7,0,15.3,-1,correct answer,0.267126500001,True,False,stimulusDIAN07_2IFC_2019_Jun_14_1637_15,stimulusDIAN07_2IFC_2019_Jun_14_1637_16,True,2019_Jun_14_1637,2IFC,3,DIAN07,
2IFC,8,0,8,0,12.5,-1,correct answer,0.200503400001,True,False,stimulusDIAN07_2IFC_2019_Jun_14_1637_17,stimulusDIAN07_2IFC_2019_Jun_14_1637_18,True,2019_Jun_14_1637,2IFC,3,DIAN07,
2IFC,9,0,9,0,9.8,-1,correct answer,0.334339699999,True,False,stimulusDIAN07_2IFC_2019_Jun_14_1637_19,stimulusDIAN07_2IFC_2019_Jun_14_1637_20,True,2019_Jun_14_1637,2IFC,3,DIAN07,
2IFC,10,0,10,0,13.9,-1,correct answer,0.2672884,True,False,stimulusDIAN07_2IFC_2019_Jun_14_1637_21,stimulusDIAN07_2IFC_2019_Jun_14_1637_22,True,2019_Jun_14_1637,2IFC,3,DIAN07,
2IFC,11,0,11,0,9.8,-1,correct answer,0.367047,False,True,stimulusDIAN07_2IFC_2019_Jun_14_1637_23,stimulusDIAN07_2IFC_2019_Jun_14_1637_24,True,2019_Jun_14_1637,2IFC,3,DIAN07,
2IFC,12,0,12,0,8.1,-1,correct answer,0.334118999999,True,False,stimulusDIAN07_2IFC_2019_Jun_14_1637_25,stimulusDIAN07_2IFC_2019_Jun_14_1637_26,True,2019_Jun_14_1637,2IFC,3,DIAN07,
2IFC,13,0,13,0,9.8,-1,correct answer,0.2002737,False,True,stimulusDIAN07_2IFC_2019_Jun_14_1637_27,stimulusDIAN07_2IFC_2019_Jun_14_1637_28,True,2019_Jun_14_1637,2IFC,3,DIAN07,
2IFC,14,0,14,0,5.8,-1,correct answer,0.4008856,False,True,stimulusDIAN07_2IFC_2019_Jun_14_1637_29,stimulusDIAN07_2IFC_2019_Jun_14_1637_30,True,2019_Jun_14_1637,2IFC,3,DIAN07,
2IFC,15,0,15,0,12.5,-1,correct answer,0.4336482,False,True,stimulusDIAN07_2IFC_2019_Jun_14_1637_31,stimulusDIAN07_2IFC_2019_Jun_14_1637_32,True,2019_Jun_14_1637,2IFC,3,DIAN07,
2IFC,16,0,16,0,15.3,-1,correct answer,0.133506300001,True,False,stimulusDIAN07_2IFC_2019_Jun_14_1637_33,stimulusDIAN07_2IFC_2019_Jun_14_1637_34,True,2019_Jun_14_1637,2IFC,3,DIAN07,
2IFC,17,0,17,0,16.9,-1,correct answer,0.2003556,True,False,stimulusDIAN07_2IFC_2019_Jun_14_1637_35,stimulusDIAN07_2IFC_2019_Jun_14_1637_36,True,2019_Jun_14_1637,2IFC,3,DIAN07,
2IFC,18,0,18,0,16.9,-1,correct answer,0.134403799999,True,False,stimulusDIAN07_2IFC_2019_Jun_14_1637_37,stimulusDIAN07_2IFC_2019_Jun_14_1637_38,True,2019_Jun_14_1637,2IFC,3,DIAN07,
2IFC,19,0,19,0,16.9,-1,correct answer,0.3670521,False,True,stimulusDIAN07_2IFC_2019_Jun_14_1637_39,stimulusDIAN07_2IFC_2019_Jun_14_1637_40,True,2019_Jun_14_1637,2IFC,3,DIAN07,
2IFC,20,0,20,0,9.8,-1,correct answer,0.267408400001,True,False,stimulusDIAN07_2IFC_2019_Jun_14_1637_41,stimulusDIAN07_2IFC_2019_Jun_14_1637_42,True,2019_Jun_14_1637,2IFC,3,DIAN07,
2IFC,21,0,21,0,12.5,-1,correct answer,0.1338192,False,True,stimulusDIAN07_2IFC_2019_Jun_14_1637_43,stimulusDIAN07_2IFC_2019_Jun_14_1637_44,True,2019_Jun_14_1637,2IFC,3,DIAN07,
2IFC,22,0,22,0,13.9,-1,correct answer,0.100198399999,True,False,stimulusDIAN07_2IFC_2019_Jun_14_1637_45,stimulusDIAN07_2IFC_2019_Jun_14_1637_46,True,2019_Jun_14_1637,2IFC,3,DIAN07,
2IFC,23,0,23,0,8.1,-1,correct answer,0.1340017,False,True,stimulusDIAN07_2IFC_2019_Jun_14_1637_47,stimulusDIAN07_2IFC_2019_Jun_14_1637_48,True,2019_Jun_14_1637,2IFC,3,DIAN07,
2IFC,24,0,24,0,5.8,-1,correct answer,0.167918900001,True,False,stimulusDIAN07_2IFC_2019_Jun_14_1637_49,stimulusDIAN07_2IFC_2019_Jun_14_1637_50,True,2019_Jun_14_1637,2IFC,3,DIAN07,
2IFC,25,0,25,0,12.5,-1,correct answer,0.466643200001,False,True,stimulusDIAN07_2IFC_2019_Jun_14_1637_51,stimulusDIAN07_2IFC_2019_Jun_14_1637_52,True,2019_Jun_14_1637,2IFC,3,DIAN07,
2IFC,26,0,26,0,12.5,-1,correct answer,0.0673172999996,True,False,stimulusDIAN07_2IFC_2019_Jun_14_1637_53,stimulusDIAN07_2IFC_2019_Jun_14_1637_54,True,2019_Jun_14_1637,2IFC,3,DIAN07,
2IFC,27,0,27,0,8.1,-1,correct answer,0.167061999999,False,True,stimulusDIAN07_2IFC_2019_Jun_14_1637_55,stimulusDIAN07_2IFC_2019_Jun_14_1637_56,True,2019_Jun_14_1637,2IFC,3,DIAN07,
2IFC,28,0,28,0,9.8,-1,correct answer,0.233821599999,False,True,stimulusDIAN07_2IFC_2019_Jun_14_1637_57,stimulusDIAN07_2IFC_2019_Jun_14_1637_58,True,2019_Jun_14_1637,2IFC,3,DIAN07,
2IFC,29,0,29,0,15.3,-1,correct answer,0.367033300001,False,True,stimulusDIAN07_2IFC_2019_Jun_14_1637_59,stimulusDIAN07_2IFC_2019_Jun_14_1637_60,True,2019_Jun_14_1637,2IFC,3,DIAN07,
2IFC,30,0,30,0,8.1,-1,correct answer,0.0665759000003,True,False,stimulusDIAN07_2IFC_2019_Jun_14_1637_61,stimulusDIAN07_2IFC_2019_Jun_14_1637_62,True,2019_Jun_14_1637,2IFC,3,DIAN07,
2IFC,31,0,31,0,12.5,-1,correct answer,0.1001505,True,False,stimulusDIAN07_2IFC_2019_Jun_14_1637_63,stimulusDIAN07_2IFC_2019_Jun_14_1637_64,True,2019_Jun_14_1637,2IFC,3,DIAN07,
2IFC,32,0,32,0,16.9,-1,correct answer,0.333898499999,False,True,stimulusDIAN07_2IFC_2019_Jun_14_1637_65,stimulusDIAN07_2IFC_2019_Jun_14_1637_66,True,2019_Jun_14_1637,2IFC,3,DIAN07,
2IFC,33,0,33,0,12.5,-1,correct answer,0.0674641999994,True,False,stimulusDIAN07_2IFC_2019_Jun_14_1637_67,stimulusDIAN07_2IFC_2019_Jun_14_1637_68,True,2019_Jun_14_1637,2IFC,3,DIAN07,
2IFC,34,0,34,0,11.2,-1,correct answer,0.133732800001,False,True,stimulusDIAN07_2IFC_2019_Jun_14_1637_69,stimulusDIAN07_2IFC_2019_Jun_14_1637_70,True,2019_Jun_14_1637,2IFC,3,DIAN07,
2IFC,35,0,35,0,9.8,-1,correct answer,0.499213499999,False,True,stimulusDIAN07_2IFC_2019_Jun_14_1637_71,stimulusDIAN07_2IFC_2019_Jun_14_1637_72,True,2019_Jun_14_1637,2IFC,3,DIAN07,
2IFC,36,0,36,0,16.9,-1,correct answer,0.267388600001,True,False,stimulusDIAN07_2IFC_2019_Jun_14_1637_73,stimulusDIAN07_2IFC_2019_Jun_14_1637_74,True,2019_Jun_14_1637,2IFC,3,DIAN07,
2IFC,37,0,37,0,16.9,-1,correct answer,0.234078699999,True,False,stimulusDIAN07_2IFC_2019_Jun_14_1637_75,stimulusDIAN07_2IFC_2019_Jun_14_1637_76,True,2019_Jun_14_1637,2IFC,3,DIAN07,
2IFC,38,0,38,0,13.9,-1,correct answer,0.2338385,True,False,stimulusDIAN07_2IFC_2019_Jun_14_1637_77,stimulusDIAN07_2IFC_2019_Jun_14_1637_78,True,2019_Jun_14_1637,2IFC,3,DIAN07,
2IFC,39,0,39,0,16.9,-1,correct answer,0.1001954,True,False,stimulusDIAN07_2IFC_2019_Jun_14_1637_79,stimulusDIAN07_2IFC_2019_Jun_14_1637_80,True,2019_Jun_14_1637,2IFC,3,DIAN07,
2IFC,40,0,40,0,15.3,-1,correct answer,0.0673056999985,True,False,stimulusDIAN07_2IFC_2019_Jun_14_1637_81,stimulusDIAN07_2IFC_2019_Jun_14_1637_82,True,2019_Jun_14_1637,2IFC,3,DIAN07,
2IFC,41,0,41,0,15.3,-1,correct answer,0.367231299999,False,True,stimulusDIAN07_2IFC_2019_Jun_14_1637_83,stimulusDIAN07_2IFC_2019_Jun_14_1637_84,True,2019_Jun_14_1637,2IFC,3,DIAN07,
2IFC,42,0,42,0,13.9,-1,correct answer,0.3355142,False,True,stimulusDIAN07_2IFC_2019_Jun_14_1637_85,stimulusDIAN07_2IFC_2019_Jun_14_1637_86,True,2019_Jun_14_1637,2IFC,3,DIAN07,
2IFC,43,0,43,0,9.8,-1,correct answer,0.200571199999,True,False,stimulusDIAN07_2IFC_2019_Jun_14_1637_87,stimulusDIAN07_2IFC_2019_Jun_14_1637_88,True,2019_Jun_14_1637,2IFC,3,DIAN07,
2IFC,44,0,44,0,12.5,-1,correct answer,0.1003965,True,False,stimulusDIAN07_2IFC_2019_Jun_14_1637_89,stimulusDIAN07_2IFC_2019_Jun_14_1637_90,True,2019_Jun_14_1637,2IFC,3,DIAN07,
2IFC,45,0,45,0,12.5,-1,correct answer,0.234147300001,True,False,stimulusDIAN07_2IFC_2019_Jun_14_1637_91,stimulusDIAN07_2IFC_2019_Jun_14_1637_92,True,2019_Jun_14_1637,2IFC,3,DIAN07,
2IFC,46,0,46,0,16.9,-1,correct answer,0.100349799999,True,False,stimulusDIAN07_2IFC_2019_Jun_14_1637_93,stimulusDIAN07_2IFC_2019_Jun_14_1637_94,True,2019_Jun_14_1637,2IFC,3,DIAN07,
2IFC,47,0,47,0,16.9,-1,correct answer,0.1334307,False,True,stimulusDIAN07_2IFC_2019_Jun_14_1637_95,stimulusDIAN07_2IFC_2019_Jun_14_1637_96,True,2019_Jun_14_1637,2IFC,3,DIAN07,
2IFC,48,0,48,0,8.1,-1,correct answer,0.0671098000003,True,False,stimulusDIAN07_2IFC_2019_Jun_14_1637_97,stimulusDIAN07_2IFC_2019_Jun_14_1637_98,True,2019_Jun_14_1637,2IFC,3,DIAN07,
2IFC,49,0,49,0,8.1,-1,correct answer,0.3667491,True,False,stimulusDIAN07_2IFC_2019_Jun_14_1637_99,stimulusDIAN07_2IFC_2019_Jun_14_1637_100,True,2019_Jun_14_1637,2IFC,3,DIAN07,
2IFC,50,0,50,0,16.9,-1,correct answer,0.267032099999,False,True,stimulusDIAN07_2IFC_2019_Jun_14_1637_101,stimulusDIAN07_2IFC_2019_Jun_14_1637_102,True,2019_Jun_14_1637,2IFC,3,DIAN07,
2IFC,51,0,51,0,8.1,-1,correct answer,0.2338858,False,True,stimulusDIAN07_2IFC_2019_Jun_14_1637_103,stimulusDIAN07_2IFC_2019_Jun_14_1637_104,True,2019_Jun_14_1637,2IFC,3,DIAN07,
2IFC,52,0,52,0,15.3,-1,correct answer,0.333711899999,False,True,stimulusDIAN07_2IFC_2019_Jun_14_1637_105,stimulusDIAN07_2IFC_2019_Jun_14_1637_106,True,2019_Jun_14_1637,2IFC,3,DIAN07,
2IFC,53,0,53,0,11.2,-1,correct answer,0.233644099999,True,False,stimulusDIAN07_2IFC_2019_Jun_14_1637_107,stimulusDIAN07_2IFC_2019_Jun_14_1637_108,True,2019_Jun_14_1637,2IFC,3,DIAN07,
2IFC,54,0,54,0,12.5,-1,correct answer,0.2670569,True,False,stimulusDIAN07_2IFC_2019_Jun_14_1637_109,stimulusDIAN07_2IFC_2019_Jun_14_1637_110,True,2019_Jun_14_1637,2IFC,3,DIAN07,
2IFC,55,0,55,0,11.2,-1,correct answer,0.2337291,True,False,stimulusDIAN07_2IFC_2019_Jun_14_1637_111,stimulusDIAN07_2IFC_2019_Jun_14_1637_112,True,2019_Jun_14_1637,2IFC,3,DIAN07,
2IFC,56,0,56,0,11.2,-1,correct answer,0.3339034,True,False,stimulusDIAN07_2IFC_2019_Jun_14_1637_113,stimulusDIAN07_2IFC_2019_Jun_14_1637_114,True,2019_Jun_14_1637,2IFC,3,DIAN07,
2IFC,57,0,57,0,12.5,-1,correct answer,0.2342885,False,True,stimulusDIAN07_2IFC_2019_Jun_14_1637_115,stimulusDIAN07_2IFC_2019_Jun_14_1637_116,True,2019_Jun_14_1637,2IFC,3,DIAN07,
2IFC,58,0,58,0,16.9,-1,correct answer,0.4673406,True,False,stimulusDIAN07_2IFC_2019_Jun_14_1637_117,stimulusDIAN07_2IFC_2019_Jun_14_1637_118,True,2019_Jun_14_1637,2IFC,3,DIAN07,
2IFC,59,0,59,0,16.9,-1,correct answer,0.0673140000017,False,True,stimulusDIAN07_2IFC_2019_Jun_14_1637_119,stimulusDIAN07_2IFC_2019_Jun_14_1637_120,True,2019_Jun_14_1637,2IFC,3,DIAN07,
2IFC,60,0,60,0,5.8,-1,correct answer,0.4345306,True,False,stimulusDIAN07_2IFC_2019_Jun_14_1637_121,stimulusDIAN07_2IFC_2019_Jun_14_1637_122,True,2019_Jun_14_1637,2IFC,3,DIAN07,
2IFC,61,0,61,0,15.3,-1,correct answer,0.333777099999,False,True,stimulusDIAN07_2IFC_2019_Jun_14_1637_123,stimulusDIAN07_2IFC_2019_Jun_14_1637_124,True,2019_Jun_14_1637,2IFC,3,DIAN07,
2IFC,62,0,62,0,5.8,-1,wrong answer,0.3341826,True,False,stimulusDIAN07_2IFC_2019_Jun_14_1637_125,stimulusDIAN07_2IFC_2019_Jun_14_1637_126,True,2019_Jun_14_1637,2IFC,3,DIAN07,
2IFC,63,0,63,0,8.1,-1,correct answer,0.367333,False,True,stimulusDIAN07_2IFC_2019_Jun_14_1637_127,stimulusDIAN07_2IFC_2019_Jun_14_1637_128,True,2019_Jun_14_1637,2IFC,3,DIAN07,
2IFC,64,0,64,0,9.8,-1,correct answer,0.5337306,False,True,stimulusDIAN07_2IFC_2019_Jun_14_1637_129,stimulusDIAN07_2IFC_2019_Jun_14_1637_130,True,2019_Jun_14_1637,2IFC,3,DIAN07,
2IFC,65,0,65,0,9.8,-1,correct answer,0.233218699999,True,False,stimulusDIAN07_2IFC_2019_Jun_14_1637_131,stimulusDIAN07_2IFC_2019_Jun_14_1637_132,True,2019_Jun_14_1637,2IFC,3,DIAN07,
2IFC,66,0,66,0,15.3,-1,correct answer,0.2674169,False,True,stimulusDIAN07_2IFC_2019_Jun_14_1637_133,stimulusDIAN07_2IFC_2019_Jun_14_1637_134,True,2019_Jun_14_1637,2IFC,3,DIAN07,
2IFC,67,0,67,0,11.2,-1,correct answer,0.400582299999,False,True,stimulusDIAN07_2IFC_2019_Jun_14_1637_135,stimulusDIAN07_2IFC_2019_Jun_14_1637_136,True,2019_Jun_14_1637,2IFC,3,DIAN07,
2IFC,68,0,68,0,8.1,-1,correct answer,0.3338382,False,True,stimulusDIAN07_2IFC_2019_Jun_14_1637_137,stimulusDIAN07_2IFC_2019_Jun_14_1637_138,True,2019_Jun_14_1637,2IFC,3,DIAN07,
2IFC,69,0,69,0,12.5,-1,correct answer,0.3003995,True,False,stimulusDIAN07_2IFC_2019_Jun_14_1637_139,stimulusDIAN07_2IFC_2019_Jun_14_1637_140,True,2019_Jun_14_1637,2IFC,3,DIAN07,
2IFC,70,0,70,0,9.8,-1,correct answer,0.433884600001,True,False,stimulusDIAN07_2IFC_2019_Jun_14_1637_141,stimulusDIAN07_2IFC_2019_Jun_14_1637_142,True,2019_Jun_14_1637,2IFC,3,DIAN07,
2IFC,71,0,71,0,12.5,-1,correct answer,0.200896099999,True,False,stimulusDIAN07_2IFC_2019_Jun_14_1637_143,stimulusDIAN07_2IFC_2019_Jun_14_1637_144,True,2019_Jun_14_1637,2IFC,3,DIAN07,
2IFC,72,0,72,0,13.9,-1,correct answer,0.2339194,True,False,stimulusDIAN07_2IFC_2019_Jun_14_1637_145,stimulusDIAN07_2IFC_2019_Jun_14_1637_146,True,2019_Jun_14_1637,2IFC,3,DIAN07,
2IFC,73,0,73,0,9.8,-1,correct answer,0.367101299998,True,False,stimulusDIAN07_2IFC_2019_Jun_14_1637_147,stimulusDIAN07_2IFC_2019_Jun_14_1637_148,True,2019_Jun_14_1637,2IFC,3,DIAN07,
2IFC,74,0,74,0,5.8,-1,correct answer,0.2666513,False,True,stimulusDIAN07_2IFC_2019_Jun_14_1637_149,stimulusDIAN07_2IFC_2019_Jun_14_1637_150,True,2019_Jun_14_1637,2IFC,3,DIAN07,
2IFC,0,0,0,0,15.3,-1,correct answer,0.534166700001,False,True,stimulusDIAN07_2IFC_2019_Jun_14_1637_151,stimulusDIAN07_2IFC_2019_Jun_14_1637_152,True,2019_Jun_14_1637,2IFC,3,DIAN07,
2IFC,1,0,1,0,5.8,-1,correct answer,0.3670201,False,True,stimulusDIAN07_2IFC_2019_Jun_14_1637_153,stimulusDIAN07_2IFC_2019_Jun_14_1637_154,True,2019_Jun_14_1637,2IFC,3,DIAN07,
2IFC,2,0,2,0,16.9,-1,correct answer,0.1338846,True,False,stimulusDIAN07_2IFC_2019_Jun_14_1637_155,stimulusDIAN07_2IFC_2019_Jun_14_1637_156,True,2019_Jun_14_1637,2IFC,3,DIAN07,
2IFC,3,0,3,0,13.9,-1,correct answer,0.1005,True,False,stimulusDIAN07_2IFC_2019_Jun_14_1637_157,stimulusDIAN07_2IFC_2019_Jun_14_1637_158,True,2019_Jun_14_1637,2IFC,3,DIAN07,
2IFC,4,0,4,0,16.9,-1,correct answer,0.133778900001,False,True,stimulusDIAN07_2IFC_2019_Jun_14_1637_159,stimulusDIAN07_2IFC_2019_Jun_14_1637_160,True,2019_Jun_14_1637,2IFC,3,DIAN07,
2IFC,5,0,5,0,11.2,-1,correct answer,0.568249,False,True,stimulusDIAN07_2IFC_2019_Jun_14_1637_161,stimulusDIAN07_2IFC_2019_Jun_14_1637_162,True,2019_Jun_14_1637,2IFC,3,DIAN07,
2IFC,6,0,6,0,5.8,-1,wrong answer,0.467258799999,False,True,stimulusDIAN07_2IFC_2019_Jun_14_1637_163,stimulusDIAN07_2IFC_2019_Jun_14_1637_164,True,2019_Jun_14_1637,2IFC,3,DIAN07,
2IFC,7,0,7,0,8.1,-1,correct answer,0.233774999999,False,True,stimulusDIAN07_2IFC_2019_Jun_14_1637_165,stimulusDIAN07_2IFC_2019_Jun_14_1637_166,True,2019_Jun_14_1637,2IFC,3,DIAN07,
2IFC,8,0,8,0,15.3,-1,correct answer,0.401324500001,False,True,stimulusDIAN07_2IFC_2019_Jun_14_1637_167,stimulusDIAN07_2IFC_2019_Jun_14_1637_168,True,2019_Jun_14_1637,2IFC,3,DIAN07,
2IFC,9,0,9,0,13.9,-1,correct answer,0.266490800001,True,False,stimulusDIAN07_2IFC_2019_Jun_14_1637_169,stimulusDIAN07_2IFC_2019_Jun_14_1637_170,True,2019_Jun_14_1637,2IFC,3,DIAN07,
2IFC,10,0,10,0,9.8,-1,correct answer,0.400566100001,True,False,stimulusDIAN07_2IFC_2019_Jun_14_1637_171,stimulusDIAN07_2IFC_2019_Jun_14_1637_172,True,2019_Jun_14_1637,2IFC,3,DIAN07,
2IFC,11,0,11,0,16.9,-1,correct answer,0.0674617000004,True,False,stimulusDIAN07_2IFC_2019_Jun_14_1637_173,stimulusDIAN07_2IFC_2019_Jun_14_1637_174,True,2019_Jun_14_1637,2IFC,3,DIAN07,
2IFC,12,0,12,0,9.8,-1,correct answer,0.435252000001,False,True,stimulusDIAN07_2IFC_2019_Jun_14_1637_175,stimulusDIAN07_2IFC_2019_Jun_14_1637_176,True,2019_Jun_14_1637,2IFC,3,DIAN07,
2IFC,13,0,13,0,12.5,-1,correct answer,0.333760399999,False,True,stimulusDIAN07_2IFC_2019_Jun_14_1637_177,stimulusDIAN07_2IFC_2019_Jun_14_1637_178,True,2019_Jun_14_1637,2IFC,3,DIAN07,
2IFC,14,0,14,0,12.5,-1,correct answer,0.2672231,False,True,stimulusDIAN07_2IFC_2019_Jun_14_1637_179,stimulusDIAN07_2IFC_2019_Jun_14_1637_180,True,2019_Jun_14_1637,2IFC,3,DIAN07,
2IFC,15,0,15,0,9.8,-1,correct answer,0.400491300001,False,True,stimulusDIAN07_2IFC_2019_Jun_14_1637_181,stimulusDIAN07_2IFC_2019_Jun_14_1637_182,True,2019_Jun_14_1637,2IFC,3,DIAN07,
2IFC,16,0,16,0,11.2,-1,correct answer,0.433804300001,False,True,stimulusDIAN07_2IFC_2019_Jun_14_1637_183,stimulusDIAN07_2IFC_2019_Jun_14_1637_184,True,2019_Jun_14_1637,2IFC,3,DIAN07,
2IFC,17,0,17,0,16.9,-1,correct answer,0.3676098,False,True,stimulusDIAN07_2IFC_2019_Jun_14_1637_185,stimulusDIAN07_2IFC_2019_Jun_14_1637_186,True,2019_Jun_14_1637,2IFC,3,DIAN07,
2IFC,18,0,18,0,12.5,-1,correct answer,0.0668227999995,True,False,stimulusDIAN07_2IFC_2019_Jun_14_1637_187,stimulusDIAN07_2IFC_2019_Jun_14_1637_188,True,2019_Jun_14_1637,2IFC,3,DIAN07,
2IFC,19,0,19,0,13.9,-1,correct answer,0.233465900001,True,False,stimulusDIAN07_2IFC_2019_Jun_14_1637_189,stimulusDIAN07_2IFC_2019_Jun_14_1637_190,True,2019_Jun_14_1637,2IFC,3,DIAN07,
2IFC,20,0,20,0,11.2,-1,correct answer,0.200522000001,True,False,stimulusDIAN07_2IFC_2019_Jun_14_1637_191,stimulusDIAN07_2IFC_2019_Jun_14_1637_192,True,2019_Jun_14_1637,2IFC,3,DIAN07,
2IFC,21,0,21,0,8.1,-1,correct answer,0.3996407,True,False,stimulusDIAN07_2IFC_2019_Jun_14_1637_193,stimulusDIAN07_2IFC_2019_Jun_14_1637_194,True,2019_Jun_14_1637,2IFC,3,DIAN07,
2IFC,22,0,22,0,9.8,-1,correct answer,0.2675124,True,False,stimulusDIAN07_2IFC_2019_Jun_14_1637_195,stimulusDIAN07_2IFC_2019_Jun_14_1637_196,True,2019_Jun_14_1637,2IFC,3,DIAN07,
2IFC,23,0,23,0,15.3,-1,correct answer,0.0670632000001,False,True,stimulusDIAN07_2IFC_2019_Jun_14_1637_197,stimulusDIAN07_2IFC_2019_Jun_14_1637_198,True,2019_Jun_14_1637,2IFC,3,DIAN07,
2IFC,24,0,24,0,5.8,-1,correct answer,0.300593100001,True,False,stimulusDIAN07_2IFC_2019_Jun_14_1637_199,stimulusDIAN07_2IFC_2019_Jun_14_1637_200,True,2019_Jun_14_1637,2IFC,3,DIAN07,
2IFC,25,0,25,0,16.9,-1,correct answer,0.233978300001,True,False,stimulusDIAN07_2IFC_2019_Jun_14_1637_201,stimulusDIAN07_2IFC_2019_Jun_14_1637_202,True,2019_Jun_14_1637,2IFC,3,DIAN07,
2IFC,26,0,26,0,12.5,-1,correct answer,0.333277899999,True,False,stimulusDIAN07_2IFC_2019_Jun_14_1637_203,stimulusDIAN07_2IFC_2019_Jun_14_1637_204,True,2019_Jun_14_1637,2IFC,3,DIAN07,
2IFC,27,0,27,0,9.8,-1,correct answer,0.236605099999,False,True,stimulusDIAN07_2IFC_2019_Jun_14_1637_205,stimulusDIAN07_2IFC_2019_Jun_14_1637_206,True,2019_Jun_14_1637,2IFC,3,DIAN07,
2IFC,28,0,28,0,11.2,-1,correct answer,0.200313900001,True,False,stimulusDIAN07_2IFC_2019_Jun_14_1637_207,stimulusDIAN07_2IFC_2019_Jun_14_1637_208,True,2019_Jun_14_1637,2IFC,3,DIAN07,
2IFC,29,0,29,0,12.5,-1,correct answer,0.367707500001,False,True,stimulusDIAN07_2IFC_2019_Jun_14_1637_209,stimulusDIAN07_2IFC_2019_Jun_14_1637_210,True,2019_Jun_14_1637,2IFC,3,DIAN07,
2IFC,30,0,30,0,13.9,-1,correct answer,0.4003073,False,True,stimulusDIAN07_2IFC_2019_Jun_14_1637_211,stimulusDIAN07_2IFC_2019_Jun_14_1637_212,True,2019_Jun_14_1637,2IFC,3,DIAN07,
2IFC,31,0,31,0,8.1,-1,correct answer,0.367404299999,True,False,stimulusDIAN07_2IFC_2019_Jun_14_1637_213,stimulusDIAN07_2IFC_2019_Jun_14_1637_214,True,2019_Jun_14_1637,2IFC,3,DIAN07,
2IFC,32,0,32,0,5.8,-1,wrong answer,0.3343823,True,False,stimulusDIAN07_2IFC_2019_Jun_14_1637_215,stimulusDIAN07_2IFC_2019_Jun_14_1637_216,True,2019_Jun_14_1637,2IFC,3,DIAN07,
2IFC,33,0,33,0,5.8,-1,correct answer,0.400641300001,False,True,stimulusDIAN07_2IFC_2019_Jun_14_1637_217,stimulusDIAN07_2IFC_2019_Jun_14_1637_218,True,2019_Jun_14_1637,2IFC,3,DIAN07,
2IFC,34,0,34,0,15.3,-1,correct answer,0.1997352,True,False,stimulusDIAN07_2IFC_2019_Jun_14_1637_219,stimulusDIAN07_2IFC_2019_Jun_14_1637_220,True,2019_Jun_14_1637,2IFC,3,DIAN07,
2IFC,35,0,35,0,15.3,-1,correct answer,0.468188299999,False,True,stimulusDIAN07_2IFC_2019_Jun_14_1637_221,stimulusDIAN07_2IFC_2019_Jun_14_1637_222,True,2019_Jun_14_1637,2IFC,3,DIAN07,
2IFC,36,0,36,0,5.8,-1,wrong answer,0.600753000001,False,True,stimulusDIAN07_2IFC_2019_Jun_14_1637_223,stimulusDIAN07_2IFC_2019_Jun_14_1637_224,True,2019_Jun_14_1637,2IFC,3,DIAN07,
2IFC,37,0,37,0,16.9,-1,correct answer,0.4344989,False,True,stimulusDIAN07_2IFC_2019_Jun_14_1637_225,stimulusDIAN07_2IFC_2019_Jun_14_1637_226,True,2019_Jun_14_1637,2IFC,3,DIAN07,
2IFC,38,0,38,0,15.3,-1,correct answer,0.500638699999,False,True,stimulusDIAN07_2IFC_2019_Jun_14_1637_227,stimulusDIAN07_2IFC_2019_Jun_14_1637_228,True,2019_Jun_14_1637,2IFC,3,DIAN07,
2IFC,39,0,39,0,9.8,-1,correct answer,0.500767699999,False,True,stimulusDIAN07_2IFC_2019_Jun_14_1637_229,stimulusDIAN07_2IFC_2019_Jun_14_1637_230,True,2019_Jun_14_1637,2IFC,3,DIAN07,
2IFC,40,0,40,0,11.2,-1,correct answer,0.434482100001,False,True,stimulusDIAN07_2IFC_2019_Jun_14_1637_231,stimulusDIAN07_2IFC_2019_Jun_14_1637_232,True,2019_Jun_14_1637,2IFC,3,DIAN07,
2IFC,41,0,41,0,11.2,-1,correct answer,0.36752,False,True,stimulusDIAN07_2IFC_2019_Jun_14_1637_233,stimulusDIAN07_2IFC_2019_Jun_14_1637_234,True,2019_Jun_14_1637,2IFC,3,DIAN07,
2IFC,42,0,42,0,11.2,-1,correct answer,0.6030544,False,True,stimulusDIAN07_2IFC_2019_Jun_14_1637_235,stimulusDIAN07_2IFC_2019_Jun_14_1637_236,True,2019_Jun_14_1637,2IFC,3,DIAN07,
2IFC,43,0,43,0,13.9,-1,correct answer,0.400725400001,True,False,stimulusDIAN07_2IFC_2019_Jun_14_1637_237,stimulusDIAN07_2IFC_2019_Jun_14_1637_238,True,2019_Jun_14_1637,2IFC,3,DIAN07,
2IFC,44,0,44,0,11.2,-1,correct answer,0.334041100001,False,True,stimulusDIAN07_2IFC_2019_Jun_14_1637_239,stimulusDIAN07_2IFC_2019_Jun_14_1637_240,True,2019_Jun_14_1637,2IFC,3,DIAN07,
2IFC,45,0,45,0,15.3,-1,correct answer,0.401601700001,True,False,stimulusDIAN07_2IFC_2019_Jun_14_1637_241,stimulusDIAN07_2IFC_2019_Jun_14_1637_242,True,2019_Jun_14_1637,2IFC,3,DIAN07,
2IFC,46,0,46,0,11.2,-1,correct answer,0.300619400001,False,True,stimulusDIAN07_2IFC_2019_Jun_14_1637_243,stimulusDIAN07_2IFC_2019_Jun_14_1637_244,True,2019_Jun_14_1637,2IFC,3,DIAN07,
2IFC,47,0,47,0,13.9,-1,correct answer,0.335428499999,True,False,stimulusDIAN07_2IFC_2019_Jun_14_1637_245,stimulusDIAN07_2IFC_2019_Jun_14_1637_246,True,2019_Jun_14_1637,2IFC,3,DIAN07,
2IFC,48,0,48,0,13.9,-1,correct answer,0.3336155,True,False,stimulusDIAN07_2IFC_2019_Jun_14_1637_247,stimulusDIAN07_2IFC_2019_Jun_14_1637_248,True,2019_Jun_14_1637,2IFC,3,DIAN07,
2IFC,49,0,49,0,16.9,-1,correct answer,0.300548000001,True,False,stimulusDIAN07_2IFC_2019_Jun_14_1637_249,stimulusDIAN07_2IFC_2019_Jun_14_1637_250,True,2019_Jun_14_1637,2IFC,3,DIAN07,
2IFC,50,0,50,0,11.2,-1,correct answer,0.467213600001,False,True,stimulusDIAN07_2IFC_2019_Jun_14_1637_251,stimulusDIAN07_2IFC_2019_Jun_14_1637_252,True,2019_Jun_14_1637,2IFC,3,DIAN07,
2IFC,51,0,51,0,12.5,-1,correct answer,0.233064100001,True,False,stimulusDIAN07_2IFC_2019_Jun_14_1637_253,stimulusDIAN07_2IFC_2019_Jun_14_1637_254,True,2019_Jun_14_1637,2IFC,3,DIAN07,
2IFC,52,0,52,0,5.8,-1,wrong answer,0.434061800001,False,True,stimulusDIAN07_2IFC_2019_Jun_14_1637_255,stimulusDIAN07_2IFC_2019_Jun_14_1637_256,True,2019_Jun_14_1637,2IFC,3,DIAN07,
2IFC,53,0,53,0,5.8,-1,correct answer,0.234300599999,False,True,stimulusDIAN07_2IFC_2019_Jun_14_1637_257,stimulusDIAN07_2IFC_2019_Jun_14_1637_258,True,2019_Jun_14_1637,2IFC,3,DIAN07,
2IFC,54,0,54,0,5.8,-1,wrong answer,0.3668753,True,False,stimulusDIAN07_2IFC_2019_Jun_14_1637_259,stimulusDIAN07_2IFC_2019_Jun_14_1637_260,True,2019_Jun_14_1637,2IFC,3,DIAN07,
2IFC,55,0,55,0,5.8,-1,wrong answer,0.267334800001,True,False,stimulusDIAN07_2IFC_2019_Jun_14_1637_261,stimulusDIAN07_2IFC_2019_Jun_14_1637_262,True,2019_Jun_14_1637,2IFC,3,DIAN07,
2IFC,56,0,56,0,15.3,-1,correct answer,0.400415,False,True,stimulusDIAN07_2IFC_2019_Jun_14_1637_263,stimulusDIAN07_2IFC_2019_Jun_14_1637_264,True,2019_Jun_14_1637,2IFC,3,DIAN07,
2IFC,57,0,57,0,13.9,-1,correct answer,0.366732999999,False,True,stimulusDIAN07_2IFC_2019_Jun_14_1637_265,stimulusDIAN07_2IFC_2019_Jun_14_1637_266,True,2019_Jun_14_1637,2IFC,3,DIAN07,
2IFC,58,0,58,0,11.2,-1,correct answer,0.100355100001,True,False,stimulusDIAN07_2IFC_2019_Jun_14_1637_267,stimulusDIAN07_2IFC_2019_Jun_14_1637_268,True,2019_Jun_14_1637,2IFC,3,DIAN07,
2IFC,59,0,59,0,15.3,-1,correct answer,0.2672652,False,True,stimulusDIAN07_2IFC_2019_Jun_14_1637_269,stimulusDIAN07_2IFC_2019_Jun_14_1637_270,True,2019_Jun_14_1637,2IFC,3,DIAN07,
2IFC,60,0,60,0,11.2,-1,correct answer,0.2327656,True,False,stimulusDIAN07_2IFC_2019_Jun_14_1637_271,stimulusDIAN07_2IFC_2019_Jun_14_1637_272,True,2019_Jun_14_1637,2IFC,3,DIAN07,
2IFC,61,0,61,0,13.9,-1,correct answer,0.1336809,False,True,stimulusDIAN07_2IFC_2019_Jun_14_1637_273,stimulusDIAN07_2IFC_2019_Jun_14_1637_274,True,2019_Jun_14_1637,2IFC,3,DIAN07,
2IFC,62,0,62,0,9.8,-1,correct answer,0.199957500001,True,False,stimulusDIAN07_2IFC_2019_Jun_14_1637_275,stimulusDIAN07_2IFC_2019_Jun_14_1637_276,True,2019_Jun_14_1637,2IFC,3,DIAN07,
2IFC,63,0,63,0,9.8,-1,correct answer,0.4344882,True,False,stimulusDIAN07_2IFC_2019_Jun_14_1637_277,stimulusDIAN07_2IFC_2019_Jun_14_1637_278,True,2019_Jun_14_1637,2IFC,3,DIAN07,
2IFC,64,0,64,0,15.3,-1,correct answer,0.466960199999,True,False,stimulusDIAN07_2IFC_2019_Jun_14_1637_279,stimulusDIAN07_2IFC_2019_Jun_14_1637_280,True,2019_Jun_14_1637,2IFC,3,DIAN07,
2IFC,65,0,65,0,8.1,-1,correct answer,0.300893500002,False,True,stimulusDIAN07_2IFC_2019_Jun_14_1637_281,stimulusDIAN07_2IFC_2019_Jun_14_1637_282,True,2019_Jun_14_1637,2IFC,3,DIAN07,
2IFC,66,0,66,0,15.3,-1,correct answer,0.233893000001,False,True,stimulusDIAN07_2IFC_2019_Jun_14_1637_283,stimulusDIAN07_2IFC_2019_Jun_14_1637_284,True,2019_Jun_14_1637,2IFC,3,DIAN07,
2IFC,67,0,67,0,13.9,-1,correct answer,0.1335414,True,False,stimulusDIAN07_2IFC_2019_Jun_14_1637_285,stimulusDIAN07_2IFC_2019_Jun_14_1637_286,True,2019_Jun_14_1637,2IFC,3,DIAN07,
2IFC,68,0,68,0,9.8,-1,correct answer,0.4680518,False,True,stimulusDIAN07_2IFC_2019_Jun_14_1637_287,stimulusDIAN07_2IFC_2019_Jun_14_1637_288,True,2019_Jun_14_1637,2IFC,3,DIAN07,
2IFC,69,0,69,0,15.3,-1,correct answer,0.335270400001,False,True,stimulusDIAN07_2IFC_2019_Jun_14_1637_289,stimulusDIAN07_2IFC_2019_Jun_14_1637_290,True,2019_Jun_14_1637,2IFC,3,DIAN07,
2IFC,70,0,70,0,15.3,-1,correct answer,0.2337656,True,False,stimulusDIAN07_2IFC_2019_Jun_14_1637_291,stimulusDIAN07_2IFC_2019_Jun_14_1637_292,True,2019_Jun_14_1637,2IFC,3,DIAN07,
2IFC,71,0,71,0,11.2,-1,correct answer,0.233564599999,True,False,stimulusDIAN07_2IFC_2019_Jun_14_1637_293,stimulusDIAN07_2IFC_2019_Jun_14_1637_294,True,2019_Jun_14_1637,2IFC,3,DIAN07,
2IFC,72,0,72,0,11.2,-1,correct answer,0.2674702,False,True,stimulusDIAN07_2IFC_2019_Jun_14_1637_295,stimulusDIAN07_2IFC_2019_Jun_14_1637_296,True,2019_Jun_14_1637,2IFC,3,DIAN07,
2IFC,73,0,73,0,8.1,-1,correct answer,0.367219600001,True,False,stimulusDIAN07_2IFC_2019_Jun_14_1637_297,stimulusDIAN07_2IFC_2019_Jun_14_1637_298,True,2019_Jun_14_1637,2IFC,3,DIAN07,
2IFC,74,0,74,0,15.3,-1,correct answer,0.1671582,False,True,stimulusDIAN07_2IFC_2019_Jun_14_1637_299,stimulusDIAN07_2IFC_2019_Jun_14_1637_300,True,2019_Jun_14_1637,2IFC,3,DIAN07,
2IFC,0,0,0,0,9.8,-1,wrong answer,0.334956500001,False,True,stimulusDIAN07_2IFC_2019_Jun_14_1637_301,stimulusDIAN07_2IFC_2019_Jun_14_1637_302,True,2019_Jun_14_1637,2IFC,3,DIAN07,
2IFC,1,0,1,0,12.5,-1,correct answer,0.333891099999,True,False,stimulusDIAN07_2IFC_2019_Jun_14_1637_303,stimulusDIAN07_2IFC_2019_Jun_14_1637_304,True,2019_Jun_14_1637,2IFC,3,DIAN07,
2IFC,2,0,2,0,12.5,-1,correct answer,0.1670178,False,True,stimulusDIAN07_2IFC_2019_Jun_14_1637_305,stimulusDIAN07_2IFC_2019_Jun_14_1637_306,True,2019_Jun_14_1637,2IFC,3,DIAN07,
2IFC,3,0,3,0,9.8,-1,correct answer,0.4670697,True,False,stimulusDIAN07_2IFC_2019_Jun_14_1637_307,stimulusDIAN07_2IFC_2019_Jun_14_1637_308,True,2019_Jun_14_1637,2IFC,3,DIAN07,
2IFC,4,0,4,0,5.8,-1,correct answer,0.3005699,False,True,stimulusDIAN07_2IFC_2019_Jun_14_1637_309,stimulusDIAN07_2IFC_2019_Jun_14_1637_310,True,2019_Jun_14_1637,2IFC,3,DIAN07,
2IFC,5,0,5,0,8.1,-1,wrong answer,0.333784300001,True,False,stimulusDIAN07_2IFC_2019_Jun_14_1637_311,stimulusDIAN07_2IFC_2019_Jun_14_1637_312,True,2019_Jun_14_1637,2IFC,3,DIAN07,
2IFC,6,0,6,0,16.9,-1,correct answer,0.232848399999,True,False,stimulusDIAN07_2IFC_2019_Jun_14_1637_313,stimulusDIAN07_2IFC_2019_Jun_14_1637_314,True,2019_Jun_14_1637,2IFC,3,DIAN07,
2IFC,7,0,7,0,5.8,-1,correct answer,0.300660500001,False,True,stimulusDIAN07_2IFC_2019_Jun_14_1637_315,stimulusDIAN07_2IFC_2019_Jun_14_1637_316,True,2019_Jun_14_1637,2IFC,3,DIAN07,
2IFC,8,0,8,0,9.8,-1,correct answer,0.467414300001,True,False,stimulusDIAN07_2IFC_2019_Jun_14_1637_317,stimulusDIAN07_2IFC_2019_Jun_14_1637_318,True,2019_Jun_14_1637,2IFC,3,DIAN07,
2IFC,9,0,9,0,16.9,-1,correct answer,0.266822699999,True,False,stimulusDIAN07_2IFC_2019_Jun_14_1637_319,stimulusDIAN07_2IFC_2019_Jun_14_1637_320,True,2019_Jun_14_1637,2IFC,3,DIAN07,
2IFC,10,0,10,0,5.8,-1,correct answer,0.434212599999,False,True,stimulusDIAN07_2IFC_2019_Jun_14_1637_321,stimulusDIAN07_2IFC_2019_Jun_14_1637_322,True,2019_Jun_14_1637,2IFC,3,DIAN07,
2IFC,11,0,11,0,15.3,-1,correct answer,0.2999356,True,False,stimulusDIAN07_2IFC_2019_Jun_14_1637_323,stimulusDIAN07_2IFC_2019_Jun_14_1637_324,True,2019_Jun_14_1637,2IFC,3,DIAN07,
2IFC,12,0,12,0,16.9,-1,correct answer,0.333879900001,False,True,stimulusDIAN07_2IFC_2019_Jun_14_1637_325,stimulusDIAN07_2IFC_2019_Jun_14_1637_326,True,2019_Jun_14_1637,2IFC,3,DIAN07,
2IFC,13,0,13,0,8.1,-1,correct answer,0.400486300001,False,True,stimulusDIAN07_2IFC_2019_Jun_14_1637_327,stimulusDIAN07_2IFC_2019_Jun_14_1637_328,True,2019_Jun_14_1637,2IFC,3,DIAN07,
2IFC,14,0,14,0,9.8,-1,correct answer,0.601351199999,False,True,stimulusDIAN07_2IFC_2019_Jun_14_1637_329,stimulusDIAN07_2IFC_2019_Jun_14_1637_330,True,2019_Jun_14_1637,2IFC,3,DIAN07,
2IFC,15,0,15,0,5.8,-1,wrong answer,0.4673164,True,False,stimulusDIAN07_2IFC_2019_Jun_14_1637_331,stimulusDIAN07_2IFC_2019_Jun_14_1637_332,True,2019_Jun_14_1637,2IFC,3,DIAN07,
2IFC,16,0,16,0,11.2,-1,correct answer,0.567194399999,False,True,stimulusDIAN07_2IFC_2019_Jun_14_1637_333,stimulusDIAN07_2IFC_2019_Jun_14_1637_334,True,2019_Jun_14_1637,2IFC,3,DIAN07,
2IFC,17,0,17,0,11.2,-1,correct answer,0.4349306,False,True,stimulusDIAN07_2IFC_2019_Jun_14_1637_335,stimulusDIAN07_2IFC_2019_Jun_14_1637_336,True,2019_Jun_14_1637,2IFC,3,DIAN07,
2IFC,18,0,18,0,13.9,-1,correct answer,0.367312299999,False,True,stimulusDIAN07_2IFC_2019_Jun_14_1637_337,stimulusDIAN07_2IFC_2019_Jun_14_1637_338,True,2019_Jun_14_1637,2IFC,3,DIAN07,
2IFC,19,0,19,0,9.8,-1,correct answer,0.333112100001,True,False,stimulusDIAN07_2IFC_2019_Jun_14_1637_339,stimulusDIAN07_2IFC_2019_Jun_14_1637_340,True,2019_Jun_14_1637,2IFC,3,DIAN07,
2IFC,20,0,20,0,8.1,-1,correct answer,0.333681600001,False,True,stimulusDIAN07_2IFC_2019_Jun_14_1637_341,stimulusDIAN07_2IFC_2019_Jun_14_1637_342,True,2019_Jun_14_1637,2IFC,3,DIAN07,
2IFC,21,0,21,0,12.5,-1,correct answer,0.4338288,False,True,stimulusDIAN07_2IFC_2019_Jun_14_1637_343,stimulusDIAN07_2IFC_2019_Jun_14_1637_344,True,2019_Jun_14_1637,2IFC,3,DIAN07,
2IFC,22,0,22,0,11.2,-1,correct answer,0.299782600001,False,True,stimulusDIAN07_2IFC_2019_Jun_14_1637_345,stimulusDIAN07_2IFC_2019_Jun_14_1637_346,True,2019_Jun_14_1637,2IFC,3,DIAN07,
2IFC,23,0,23,0,8.1,-1,correct answer,0.434468900001,False,True,stimulusDIAN07_2IFC_2019_Jun_14_1637_347,stimulusDIAN07_2IFC_2019_Jun_14_1637_348,True,2019_Jun_14_1637,2IFC,3,DIAN07,
2IFC,24,0,24,0,8.1,-1,correct answer,0.466789299999,True,False,stimulusDIAN07_2IFC_2019_Jun_14_1637_349,stimulusDIAN07_2IFC_2019_Jun_14_1637_350,True,2019_Jun_14_1637,2IFC,3,DIAN07,
2IFC,25,0,25,0,15.3,-1,correct answer,0.366907900001,False,True,stimulusDIAN07_2IFC_2019_Jun_14_1637_351,stimulusDIAN07_2IFC_2019_Jun_14_1637_352,True,2019_Jun_14_1637,2IFC,3,DIAN07,
2IFC,26,0,26,0,15.3,-1,correct answer,0.3005331,False,True,stimulusDIAN07_2IFC_2019_Jun_14_1637_353,stimulusDIAN07_2IFC_2019_Jun_14_1637_354,True,2019_Jun_14_1637,2IFC,3,DIAN07,
2IFC,27,0,27,0,16.9,-1,correct answer,0.166515300001,True,False,stimulusDIAN07_2IFC_2019_Jun_14_1637_355,stimulusDIAN07_2IFC_2019_Jun_14_1637_356,True,2019_Jun_14_1637,2IFC,3,DIAN07,
2IFC,28,0,28,0,5.8,-1,correct answer,0.6005756,True,False,stimulusDIAN07_2IFC_2019_Jun_14_1637_357,stimulusDIAN07_2IFC_2019_Jun_14_1637_358,True,2019_Jun_14_1637,2IFC,3,DIAN07,
2IFC,29,0,29,0,11.2,-1,correct answer,0.2005926,True,False,stimulusDIAN07_2IFC_2019_Jun_14_1637_359,stimulusDIAN07_2IFC_2019_Jun_14_1637_360,True,2019_Jun_14_1637,2IFC,3,DIAN07,
2IFC,30,0,30,0,9.8,-1,correct answer,0.333711900001,False,True,stimulusDIAN07_2IFC_2019_Jun_14_1637_361,stimulusDIAN07_2IFC_2019_Jun_14_1637_362,True,2019_Jun_14_1637,2IFC,3,DIAN07,
2IFC,31,0,31,0,11.2,-1,correct answer,0.267475299999,True,False,stimulusDIAN07_2IFC_2019_Jun_14_1637_363,stimulusDIAN07_2IFC_2019_Jun_14_1637_364,True,2019_Jun_14_1637,2IFC,3,DIAN07,
2IFC,32,0,32,0,9.8,-1,correct answer,0.333948900001,False,True,stimulusDIAN07_2IFC_2019_Jun_14_1637_365,stimulusDIAN07_2IFC_2019_Jun_14_1637_366,True,2019_Jun_14_1637,2IFC,3,DIAN07,
2IFC,33,0,33,0,11.2,-1,correct answer,0.4334112,False,True,stimulusDIAN07_2IFC_2019_Jun_14_1637_367,stimulusDIAN07_2IFC_2019_Jun_14_1637_368,True,2019_Jun_14_1637,2IFC,3,DIAN07,
2IFC,34,0,34,0,16.9,-1,correct answer,0.333636500001,False,True,stimulusDIAN07_2IFC_2019_Jun_14_1637_369,stimulusDIAN07_2IFC_2019_Jun_14_1637_370,True,2019_Jun_14_1637,2IFC,3,DIAN07,
2IFC,35,0,35,0,13.9,-1,correct answer,0.167303999999,True,False,stimulusDIAN07_2IFC_2019_Jun_14_1637_371,stimulusDIAN07_2IFC_2019_Jun_14_1637_372,True,2019_Jun_14_1637,2IFC,3,DIAN07,
2IFC,36,0,36,0,13.9,-1,correct answer,0.267024799999,True,False,stimulusDIAN07_2IFC_2019_Jun_14_1637_373,stimulusDIAN07_2IFC_2019_Jun_14_1637_374,True,2019_Jun_14_1637,2IFC,3,DIAN07,
2IFC,37,0,37,0,16.9,-1,correct answer,0.200443600001,True,False,stimulusDIAN07_2IFC_2019_Jun_14_1637_375,stimulusDIAN07_2IFC_2019_Jun_14_1637_376,True,2019_Jun_14_1637,2IFC,3,DIAN07,
2IFC,38,0,38,0,8.1,-1,correct answer,0.434802100001,True,False,stimulusDIAN07_2IFC_2019_Jun_14_1637_377,stimulusDIAN07_2IFC_2019_Jun_14_1637_378,True,2019_Jun_14_1637,2IFC,3,DIAN07,
2IFC,39,0,39,0,5.8,-1,correct answer,0.433952399999,False,True,stimulusDIAN07_2IFC_2019_Jun_14_1637_379,stimulusDIAN07_2IFC_2019_Jun_14_1637_380,True,2019_Jun_14_1637,2IFC,3,DIAN07,
2IFC,40,0,40,0,8.1,-1,correct answer,0.367305199999,False,True,stimulusDIAN07_2IFC_2019_Jun_14_1637_381,stimulusDIAN07_2IFC_2019_Jun_14_1637_382,True,2019_Jun_14_1637,2IFC,3,DIAN07,
2IFC,41,0,41,0,12.5,-1,correct answer,0.4340101,False,True,stimulusDIAN07_2IFC_2019_Jun_14_1637_383,stimulusDIAN07_2IFC_2019_Jun_14_1637_384,True,2019_Jun_14_1637,2IFC,3,DIAN07,
2IFC,42,0,42,0,15.3,-1,correct answer,0.200537800001,True,False,stimulusDIAN07_2IFC_2019_Jun_14_1637_385,stimulusDIAN07_2IFC_2019_Jun_14_1637_386,True,2019_Jun_14_1637,2IFC,3,DIAN07,
2IFC,43,0,43,0,11.2,-1,correct answer,0.4002358,True,False,stimulusDIAN07_2IFC_2019_Jun_14_1637_387,stimulusDIAN07_2IFC_2019_Jun_14_1637_388,True,2019_Jun_14_1637,2IFC,3,DIAN07,
2IFC,44,0,44,0,5.8,-1,correct answer,0.5006407,True,False,stimulusDIAN07_2IFC_2019_Jun_14_1637_389,stimulusDIAN07_2IFC_2019_Jun_14_1637_390,True,2019_Jun_14_1637,2IFC,3,DIAN07,
2IFC,45,0,45,0,12.5,-1,correct answer,0.700717600001,True,False,stimulusDIAN07_2IFC_2019_Jun_14_1637_391,stimulusDIAN07_2IFC_2019_Jun_14_1637_392,True,2019_Jun_14_1637,2IFC,3,DIAN07,
2IFC,46,0,46,0,5.8,-1,correct answer,0.500594700001,True,False,stimulusDIAN07_2IFC_2019_Jun_14_1637_393,stimulusDIAN07_2IFC_2019_Jun_14_1637_394,True,2019_Jun_14_1637,2IFC,3,DIAN07,
2IFC,47,0,47,0,11.2,-1,correct answer,0.3340367,True,False,stimulusDIAN07_2IFC_2019_Jun_14_1637_395,stimulusDIAN07_2IFC_2019_Jun_14_1637_396,True,2019_Jun_14_1637,2IFC,3,DIAN07,
2IFC,48,0,48,0,8.1,-1,wrong answer,0.467631899999,False,True,stimulusDIAN07_2IFC_2019_Jun_14_1637_397,stimulusDIAN07_2IFC_2019_Jun_14_1637_398,True,2019_Jun_14_1637,2IFC,3,DIAN07,
2IFC,49,0,49,0,9.8,-1,correct answer,0.5014066,True,False,stimulusDIAN07_2IFC_2019_Jun_14_1637_399,stimulusDIAN07_2IFC_2019_Jun_14_1637_400,True,2019_Jun_14_1637,2IFC,3,DIAN07,
2IFC,50,0,50,0,9.8,-1,correct answer,0.433938300001,True,False,stimulusDIAN07_2IFC_2019_Jun_14_1637_401,stimulusDIAN07_2IFC_2019_Jun_14_1637_402,True,2019_Jun_14_1637,2IFC,3,DIAN07,
2IFC,51,0,51,0,13.9,-1,correct answer,0.334236999999,True,False,stimulusDIAN07_2IFC_2019_Jun_14_1637_403,stimulusDIAN07_2IFC_2019_Jun_14_1637_404,True,2019_Jun_14_1637,2IFC,3,DIAN07,
2IFC,52,0,52,0,8.1,-1,correct answer,0.534286800001,True,False,stimulusDIAN07_2IFC_2019_Jun_14_1637_405,stimulusDIAN07_2IFC_2019_Jun_14_1637_406,True,2019_Jun_14_1637,2IFC,3,DIAN07,
2IFC,53,0,53,0,12.5,-1,correct answer,0.400775100001,False,True,stimulusDIAN07_2IFC_2019_Jun_14_1637_407,stimulusDIAN07_2IFC_2019_Jun_14_1637_408,True,2019_Jun_14_1637,2IFC,3,DIAN07,
2IFC,54,0,54,0,13.9,-1,correct answer,0.2670793,True,False,stimulusDIAN07_2IFC_2019_Jun_14_1637_409,stimulusDIAN07_2IFC_2019_Jun_14_1637_410,True,2019_Jun_14_1637,2IFC,3,DIAN07,
2IFC,55,0,55,0,12.5,-1,correct answer,0.200086999999,False,True,stimulusDIAN07_2IFC_2019_Jun_14_1637_411,stimulusDIAN07_2IFC_2019_Jun_14_1637_412,True,2019_Jun_14_1637,2IFC,3,DIAN07,
2IFC,56,0,56,0,9.8,-1,correct answer,0.302087399999,True,False,stimulusDIAN07_2IFC_2019_Jun_14_1637_413,stimulusDIAN07_2IFC_2019_Jun_14_1637_414,True,2019_Jun_14_1637,2IFC,3,DIAN07,
2IFC,57,0,57,0,16.9,-1,correct answer,0.233853899999,True,False,stimulusDIAN07_2IFC_2019_Jun_14_1637_415,stimulusDIAN07_2IFC_2019_Jun_14_1637_416,True,2019_Jun_14_1637,2IFC,3,DIAN07,
2IFC,58,0,58,0,15.3,-1,correct answer,0.4671315,False,True,stimulusDIAN07_2IFC_2019_Jun_14_1637_417,stimulusDIAN07_2IFC_2019_Jun_14_1637_418,True,2019_Jun_14_1637,2IFC,3,DIAN07,
2IFC,59,0,59,0,9.8,-1,correct answer,0.300701300001,True,False,stimulusDIAN07_2IFC_2019_Jun_14_1637_419,stimulusDIAN07_2IFC_2019_Jun_14_1637_420,True,2019_Jun_14_1637,2IFC,3,DIAN07,
2IFC,60,0,60,0,16.9,-1,correct answer,0.266818,False,True,stimulusDIAN07_2IFC_2019_Jun_14_1637_421,stimulusDIAN07_2IFC_2019_Jun_14_1637_422,True,2019_Jun_14_1637,2IFC,3,DIAN07,
2IFC,61,0,61,0,9.8,-1,wrong answer,0.2670542,False,True,stimulusDIAN07_2IFC_2019_Jun_14_1637_423,stimulusDIAN07_2IFC_2019_Jun_14_1637_424,True,2019_Jun_14_1637,2IFC,3,DIAN07,
2IFC,62,0,62,0,9.8,-1,correct answer,0.3671017,False,True,stimulusDIAN07_2IFC_2019_Jun_14_1637_425,stimulusDIAN07_2IFC_2019_Jun_14_1637_426,True,2019_Jun_14_1637,2IFC,3,DIAN07,
2IFC,63,0,63,0,12.5,-1,correct answer,0.400348000001,False,True,stimulusDIAN07_2IFC_2019_Jun_14_1637_427,stimulusDIAN07_2IFC_2019_Jun_14_1637_428,True,2019_Jun_14_1637,2IFC,3,DIAN07,
2IFC,64,0,64,0,9.8,-1,correct answer,0.6706875,False,True,stimulusDIAN07_2IFC_2019_Jun_14_1637_429,stimulusDIAN07_2IFC_2019_Jun_14_1637_430,True,2019_Jun_14_1637,2IFC,3,DIAN07,
2IFC,65,0,65,0,8.1,-1,correct answer,0.333712899999,False,True,stimulusDIAN07_2IFC_2019_Jun_14_1637_431,stimulusDIAN07_2IFC_2019_Jun_14_1637_432,True,2019_Jun_14_1637,2IFC,3,DIAN07,
2IFC,66,0,66,0,8.1,-1,correct answer,0.3339089,False,True,stimulusDIAN07_2IFC_2019_Jun_14_1637_433,stimulusDIAN07_2IFC_2019_Jun_14_1637_434,True,2019_Jun_14_1637,2IFC,3,DIAN07,
2IFC,67,0,67,0,13.9,-1,correct answer,0.4668413,False,True,stimulusDIAN07_2IFC_2019_Jun_14_1637_435,stimulusDIAN07_2IFC_2019_Jun_14_1637_436,True,2019_Jun_14_1637,2IFC,3,DIAN07,
2IFC,68,0,68,0,8.1,-1,correct answer,0.534186000001,False,True,stimulusDIAN07_2IFC_2019_Jun_14_1637_437,stimulusDIAN07_2IFC_2019_Jun_14_1637_438,True,2019_Jun_14_1637,2IFC,3,DIAN07,
2IFC,69,0,69,0,15.3,-1,correct answer,0.5008829,False,True,stimulusDIAN07_2IFC_2019_Jun_14_1637_439,stimulusDIAN07_2IFC_2019_Jun_14_1637_440,True,2019_Jun_14_1637,2IFC,3,DIAN07,
2IFC,70,0,70,0,11.2,-1,correct answer,0.500725700002,True,False,stimulusDIAN07_2IFC_2019_Jun_14_1637_441,stimulusDIAN07_2IFC_2019_Jun_14_1637_442,True,2019_Jun_14_1637,2IFC,3,DIAN07,
2IFC,71,0,71,0,16.9,-1,correct answer,0.200254799998,True,False,stimulusDIAN07_2IFC_2019_Jun_14_1637_443,stimulusDIAN07_2IFC_2019_Jun_14_1637_444,True,2019_Jun_14_1637,2IFC,3,DIAN07,
2IFC,72,0,72,0,8.1,-1,correct answer,0.366552699999,False,True,stimulusDIAN07_2IFC_2019_Jun_14_1637_445,stimulusDIAN07_2IFC_2019_Jun_14_1637_446,True,2019_Jun_14_1637,2IFC,3,DIAN07,
2IFC,73,0,73,0,16.9,-1,correct answer,0.333697599999,False,True,stimulusDIAN07_2IFC_2019_Jun_14_1637_447,stimulusDIAN07_2IFC_2019_Jun_14_1637_448,True,2019_Jun_14_1637,2IFC,3,DIAN07,
2IFC,74,0,74,0,8.1,-1,wrong answer,0.5676547,False,True,stimulusDIAN07_2IFC_2019_Jun_14_1637_449,stimulusDIAN07_2IFC_2019_Jun_14_1637_450,True,2019_Jun_14_1637,2IFC,3,DIAN07,
2IFC,0,0,0,0,9.8,-1,correct answer,0.466878399999,False,True,stimulusDIAN07_2IFC_2019_Jun_14_1637_451,stimulusDIAN07_2IFC_2019_Jun_14_1637_452,True,2019_Jun_14_1637,2IFC,3,DIAN07,
2IFC,1,0,1,0,13.9,-1,correct answer,0.367882799999,False,True,stimulusDIAN07_2IFC_2019_Jun_14_1637_453,stimulusDIAN07_2IFC_2019_Jun_14_1637_454,True,2019_Jun_14_1637,2IFC,3,DIAN07,
2IFC,2,0,2,0,13.9,-1,correct answer,0.0998892000007,True,False,stimulusDIAN07_2IFC_2019_Jun_14_1637_455,stimulusDIAN07_2IFC_2019_Jun_14_1637_456,True,2019_Jun_14_1637,2IFC,3,DIAN07,
2IFC,3,0,3,0,5.8,-1,correct answer,0.434104800001,False,True,stimulusDIAN07_2IFC_2019_Jun_14_1637_457,stimulusDIAN07_2IFC_2019_Jun_14_1637_458,True,2019_Jun_14_1637,2IFC,3,DIAN07,
2IFC,4,0,4,0,5.8,-1,wrong answer,0.5343966,True,False,stimulusDIAN07_2IFC_2019_Jun_14_1637_459,stimulusDIAN07_2IFC_2019_Jun_14_1637_460,True,2019_Jun_14_1637,2IFC,3,DIAN07,
2IFC,5,0,5,0,16.9,-1,correct answer,0.333791499999,False,True,stimulusDIAN07_2IFC_2019_Jun_14_1637_461,stimulusDIAN07_2IFC_2019_Jun_14_1637_462,True,2019_Jun_14_1637,2IFC,3,DIAN07,
2IFC,6,0,6,0,16.9,-1,correct answer,0.166988699999,True,False,stimulusDIAN07_2IFC_2019_Jun_14_1637_463,stimulusDIAN07_2IFC_2019_Jun_14_1637_464,True,2019_Jun_14_1637,2IFC,3,DIAN07,
2IFC,7,0,7,0,5.8,-1,wrong answer,0.267178,True,False,stimulusDIAN07_2IFC_2019_Jun_14_1637_465,stimulusDIAN07_2IFC_2019_Jun_14_1637_466,True,2019_Jun_14_1637,2IFC,3,DIAN07,
2IFC,8,0,8,0,16.9,-1,correct answer,0.0342763999997,True,False,stimulusDIAN07_2IFC_2019_Jun_14_1637_467,stimulusDIAN07_2IFC_2019_Jun_14_1637_468,True,2019_Jun_14_1637,2IFC,3,DIAN07,
2IFC,9,0,9,0,5.8,-1,correct answer,0.433793,False,True,stimulusDIAN07_2IFC_2019_Jun_14_1637_469,stimulusDIAN07_2IFC_2019_Jun_14_1637_470,True,2019_Jun_14_1637,2IFC,3,DIAN07,
2IFC,10,0,10,0,15.3,-1,correct answer,0.300389799999,True,False,stimulusDIAN07_2IFC_2019_Jun_14_1637_471,stimulusDIAN07_2IFC_2019_Jun_14_1637_472,True,2019_Jun_14_1637,2IFC,3,DIAN07,
2IFC,11,0,11,0,11.2,-1,correct answer,0.4340285,True,False,stimulusDIAN07_2IFC_2019_Jun_14_1637_473,stimulusDIAN07_2IFC_2019_Jun_14_1637_474,True,2019_Jun_14_1637,2IFC,3,DIAN07,
2IFC,12,0,12,0,11.2,-1,correct answer,0.401048900001,False,True,stimulusDIAN07_2IFC_2019_Jun_14_1637_475,stimulusDIAN07_2IFC_2019_Jun_14_1637_476,True,2019_Jun_14_1637,2IFC,3,DIAN07,
2IFC,13,0,13,0,16.9,-1,correct answer,0.334558099999,True,False,stimulusDIAN07_2IFC_2019_Jun_14_1637_477,stimulusDIAN07_2IFC_2019_Jun_14_1637_478,True,2019_Jun_14_1637,2IFC,3,DIAN07,
2IFC,14,0,14,0,13.9,-1,correct answer,0.2673596,False,True,stimulusDIAN07_2IFC_2019_Jun_14_1637_479,stimulusDIAN07_2IFC_2019_Jun_14_1637_480,True,2019_Jun_14_1637,2IFC,3,DIAN07,
2IFC,15,0,15,0,16.9,-1,correct answer,0.434720499999,False,True,stimulusDIAN07_2IFC_2019_Jun_14_1637_481,stimulusDIAN07_2IFC_2019_Jun_14_1637_482,True,2019_Jun_14_1637,2IFC,3,DIAN07,
2IFC,16,0,16,0,13.9,-1,correct answer,0.300332600002,True,False,stimulusDIAN07_2IFC_2019_Jun_14_1637_483,stimulusDIAN07_2IFC_2019_Jun_14_1637_484,True,2019_Jun_14_1637,2IFC,3,DIAN07,
2IFC,17,0,17,0,16.9,-1,correct answer,0.233898299999,True,False,stimulusDIAN07_2IFC_2019_Jun_14_1637_485,stimulusDIAN07_2IFC_2019_Jun_14_1637_486,True,2019_Jun_14_1637,2IFC,3,DIAN07,
2IFC,18,0,18,0,15.3,-1,correct answer,0.1672844,False,True,stimulusDIAN07_2IFC_2019_Jun_14_1637_487,stimulusDIAN07_2IFC_2019_Jun_14_1637_488,True,2019_Jun_14_1637,2IFC,3,DIAN07,
2IFC,19,0,19,0,16.9,-1,correct answer,0.433897999999,False,True,stimulusDIAN07_2IFC_2019_Jun_14_1637_489,stimulusDIAN07_2IFC_2019_Jun_14_1637_490,True,2019_Jun_14_1637,2IFC,3,DIAN07,
2IFC,20,0,20,0,15.3,-1,correct answer,0.166366599999,True,False,stimulusDIAN07_2IFC_2019_Jun_14_1637_491,stimulusDIAN07_2IFC_2019_Jun_14_1637_492,True,2019_Jun_14_1637,2IFC,3,DIAN07,
2IFC,21,0,21,0,16.9,-1,correct answer,0.400644900001,True,False,stimulusDIAN07_2IFC_2019_Jun_14_1637_493,stimulusDIAN07_2IFC_2019_Jun_14_1637_494,True,2019_Jun_14_1637,2IFC,3,DIAN07,
2IFC,22,0,22,0,16.9,-1,correct answer,0.267156900001,False,True,stimulusDIAN07_2IFC_2019_Jun_14_1637_495,stimulusDIAN07_2IFC_2019_Jun_14_1637_496,True,2019_Jun_14_1637,2IFC,3,DIAN07,
2IFC,23,0,23,0,8.1,-1,wrong answer,0.700610600001,False,True,stimulusDIAN07_2IFC_2019_Jun_14_1637_497,stimulusDIAN07_2IFC_2019_Jun_14_1637_498,True,2019_Jun_14_1637,2IFC,3,DIAN07,
2IFC,24,0,24,0,15.3,-1,correct answer,0.3343322,False,True,stimulusDIAN07_2IFC_2019_Jun_14_1637_499,stimulusDIAN07_2IFC_2019_Jun_14_1637_500,True,2019_Jun_14_1637,2IFC,3,DIAN07,
2IFC,25,0,25,0,5.8,-1,correct answer,0.400649300002,True,False,stimulusDIAN07_2IFC_2019_Jun_14_1637_501,stimulusDIAN07_2IFC_2019_Jun_14_1637_502,True,2019_Jun_14_1637,2IFC,3,DIAN07,
2IFC,26,0,26,0,12.5,-1,correct answer,0.3343174,True,False,stimulusDIAN07_2IFC_2019_Jun_14_1637_503,stimulusDIAN07_2IFC_2019_Jun_14_1637_504,True,2019_Jun_14_1637,2IFC,3,DIAN07,
2IFC,27,0,27,0,13.9,-1,correct answer,0.467865800001,False,True,stimulusDIAN07_2IFC_2019_Jun_14_1637_505,stimulusDIAN07_2IFC_2019_Jun_14_1637_506,True,2019_Jun_14_1637,2IFC,3,DIAN07,
2IFC,28,0,28,0,16.9,-1,correct answer,0.199799399999,True,False,stimulusDIAN07_2IFC_2019_Jun_14_1637_507,stimulusDIAN07_2IFC_2019_Jun_14_1637_508,True,2019_Jun_14_1637,2IFC,3,DIAN07,
2IFC,29,0,29,0,16.9,-1,correct answer,0.2676417,True,False,stimulusDIAN07_2IFC_2019_Jun_14_1637_509,stimulusDIAN07_2IFC_2019_Jun_14_1637_510,True,2019_Jun_14_1637,2IFC,3,DIAN07,
2IFC,30,0,30,0,13.9,-1,correct answer,0.2676858,False,True,stimulusDIAN07_2IFC_2019_Jun_14_1637_511,stimulusDIAN07_2IFC_2019_Jun_14_1637_512,True,2019_Jun_14_1637,2IFC,3,DIAN07,
2IFC,31,0,31,0,8.1,-1,correct answer,0.4004021,True,False,stimulusDIAN07_2IFC_2019_Jun_14_1637_513,stimulusDIAN07_2IFC_2019_Jun_14_1637_514,True,2019_Jun_14_1637,2IFC,3,DIAN07,
2IFC,32,0,32,0,16.9,-1,correct answer,0.1337136,True,False,stimulusDIAN07_2IFC_2019_Jun_14_1637_515,stimulusDIAN07_2IFC_2019_Jun_14_1637_516,True,2019_Jun_14_1637,2IFC,3,DIAN07,
2IFC,33,0,33,0,8.1,-1,correct answer,0.333560699999,False,True,stimulusDIAN07_2IFC_2019_Jun_14_1637_517,stimulusDIAN07_2IFC_2019_Jun_14_1637_518,True,2019_Jun_14_1637,2IFC,3,DIAN07,
2IFC,34,0,34,0,15.3,-1,correct answer,0.200649800001,False,True,stimulusDIAN07_2IFC_2019_Jun_14_1637_519,stimulusDIAN07_2IFC_2019_Jun_14_1637_520,True,2019_Jun_14_1637,2IFC,3,DIAN07,
2IFC,35,0,35,0,15.3,-1,correct answer,0.3674541,False,True,stimulusDIAN07_2IFC_2019_Jun_14_1637_521,stimulusDIAN07_2IFC_2019_Jun_14_1637_522,True,2019_Jun_14_1637,2IFC,3,DIAN07,
2IFC,36,0,36,0,13.9,-1,correct answer,0.300746499999,False,True,stimulusDIAN07_2IFC_2019_Jun_14_1637_523,stimulusDIAN07_2IFC_2019_Jun_14_1637_524,True,2019_Jun_14_1637,2IFC,3,DIAN07,
2IFC,37,0,37,0,12.5,-1,correct answer,0.133941099999,True,False,stimulusDIAN07_2IFC_2019_Jun_14_1637_525,stimulusDIAN07_2IFC_2019_Jun_14_1637_526,True,2019_Jun_14_1637,2IFC,3,DIAN07,
2IFC,38,0,38,0,8.1,-1,wrong answer,0.300487099999,True,False,stimulusDIAN07_2IFC_2019_Jun_14_1637_527,stimulusDIAN07_2IFC_2019_Jun_14_1637_528,True,2019_Jun_14_1637,2IFC,3,DIAN07,
2IFC,39,0,39,0,8.1,-1,correct answer,0.4002095,False,True,stimulusDIAN07_2IFC_2019_Jun_14_1637_529,stimulusDIAN07_2IFC_2019_Jun_14_1637_530,True,2019_Jun_14_1637,2IFC,3,DIAN07,
2IFC,40,0,40,0,13.9,-1,correct answer,0.4344735,False,True,stimulusDIAN07_2IFC_2019_Jun_14_1637_531,stimulusDIAN07_2IFC_2019_Jun_14_1637_532,True,2019_Jun_14_1637,2IFC,3,DIAN07,
2IFC,41,0,41,0,5.8,-1,correct answer,0.3342459,False,True,stimulusDIAN07_2IFC_2019_Jun_14_1637_533,stimulusDIAN07_2IFC_2019_Jun_14_1637_534,True,2019_Jun_14_1637,2IFC,3,DIAN07,
2IFC,42,0,42,0,13.9,-1,correct answer,0.4674283,True,False,stimulusDIAN07_2IFC_2019_Jun_14_1637_535,stimulusDIAN07_2IFC_2019_Jun_14_1637_536,True,2019_Jun_14_1637,2IFC,3,DIAN07,
2IFC,43,0,43,0,13.9,-1,correct answer,0.133782199999,True,False,stimulusDIAN07_2IFC_2019_Jun_14_1637_537,stimulusDIAN07_2IFC_2019_Jun_14_1637_538,True,2019_Jun_14_1637,2IFC,3,DIAN07,
2IFC,44,0,44,0,8.1,-1,correct answer,0.365880599998,False,True,stimulusDIAN07_2IFC_2019_Jun_14_1637_539,stimulusDIAN07_2IFC_2019_Jun_14_1637_540,True,2019_Jun_14_1637,2IFC,3,DIAN07,
2IFC,45,0,45,0,15.3,-1,correct answer,0.366633099999,False,True,stimulusDIAN07_2IFC_2019_Jun_14_1637_541,stimulusDIAN07_2IFC_2019_Jun_14_1637_542,True,2019_Jun_14_1637,2IFC,3,DIAN07,
2IFC,46,0,46,0,12.5,-1,correct answer,0.366589400001,False,True,stimulusDIAN07_2IFC_2019_Jun_14_1637_543,stimulusDIAN07_2IFC_2019_Jun_14_1637_544,True,2019_Jun_14_1637,2IFC,3,DIAN07,
2IFC,47,0,47,0,5.8,-1,correct answer,0.367079000001,False,True,stimulusDIAN07_2IFC_2019_Jun_14_1637_545,stimulusDIAN07_2IFC_2019_Jun_14_1637_546,True,2019_Jun_14_1637,2IFC,3,DIAN07,
2IFC,48,0,48,0,9.8,-1,correct answer,0.3334947,False,True,stimulusDIAN07_2IFC_2019_Jun_14_1637_547,stimulusDIAN07_2IFC_2019_Jun_14_1637_548,True,2019_Jun_14_1637,2IFC,3,DIAN07,
2IFC,49,0,49,0,5.8,-1,correct answer,0.5681817,False,True,stimulusDIAN07_2IFC_2019_Jun_14_1637_549,stimulusDIAN07_2IFC_2019_Jun_14_1637_550,True,2019_Jun_14_1637,2IFC,3,DIAN07,
2IFC,50,0,50,0,12.5,-1,correct answer,0.2336404,True,False,stimulusDIAN07_2IFC_2019_Jun_14_1637_551,stimulusDIAN07_2IFC_2019_Jun_14_1637_552,True,2019_Jun_14_1637,2IFC,3,DIAN07,
2IFC,51,0,51,0,9.8,-1,correct answer,0.433382499999,True,False,stimulusDIAN07_2IFC_2019_Jun_14_1637_553,stimulusDIAN07_2IFC_2019_Jun_14_1637_554,True,2019_Jun_14_1637,2IFC,3,DIAN07,
2IFC,52,0,52,0,9.8,-1,correct answer,0.3002812,False,True,stimulusDIAN07_2IFC_2019_Jun_14_1637_555,stimulusDIAN07_2IFC_2019_Jun_14_1637_556,True,2019_Jun_14_1637,2IFC,3,DIAN07,
2IFC,53,0,53,0,12.5,-1,wrong answer,0.5009218,True,False,stimulusDIAN07_2IFC_2019_Jun_14_1637_557,stimulusDIAN07_2IFC_2019_Jun_14_1637_558,True,2019_Jun_14_1637,2IFC,3,DIAN07,
2IFC,54,0,54,0,9.8,-1,correct answer,0.367577700001,False,True,stimulusDIAN07_2IFC_2019_Jun_14_1637_559,stimulusDIAN07_2IFC_2019_Jun_14_1637_560,True,2019_Jun_14_1637,2IFC,3,DIAN07,
2IFC,55,0,55,0,15.3,-1,correct answer,0.433974899999,False,True,stimulusDIAN07_2IFC_2019_Jun_14_1637_561,stimulusDIAN07_2IFC_2019_Jun_14_1637_562,True,2019_Jun_14_1637,2IFC,3,DIAN07,
2IFC,56,0,56,0,5.8,-1,correct answer,0.467100600001,False,True,stimulusDIAN07_2IFC_2019_Jun_14_1637_563,stimulusDIAN07_2IFC_2019_Jun_14_1637_564,True,2019_Jun_14_1637,2IFC,3,DIAN07,
2IFC,57,0,57,0,8.1,-1,correct answer,0.266743600001,False,True,stimulusDIAN07_2IFC_2019_Jun_14_1637_565,stimulusDIAN07_2IFC_2019_Jun_14_1637_566,True,2019_Jun_14_1637,2IFC,3,DIAN07,
2IFC,58,0,58,0,16.9,-1,correct answer,0.4005906,True,False,stimulusDIAN07_2IFC_2019_Jun_14_1637_567,stimulusDIAN07_2IFC_2019_Jun_14_1637_568,True,2019_Jun_14_1637,2IFC,3,DIAN07,
2IFC,59,0,59,0,16.9,-1,correct answer,0.333803,False,True,stimulusDIAN07_2IFC_2019_Jun_14_1637_569,stimulusDIAN07_2IFC_2019_Jun_14_1637_570,True,2019_Jun_14_1637,2IFC,3,DIAN07,
2IFC,60,0,60,0,9.8,-1,correct answer,0.300371199999,True,False,stimulusDIAN07_2IFC_2019_Jun_14_1637_571,stimulusDIAN07_2IFC_2019_Jun_14_1637_572,True,2019_Jun_14_1637,2IFC,3,DIAN07,
2IFC,61,0,61,0,13.9,-1,correct answer,0.133701700001,True,False,stimulusDIAN07_2IFC_2019_Jun_14_1637_573,stimulusDIAN07_2IFC_2019_Jun_14_1637_574,True,2019_Jun_14_1637,2IFC,3,DIAN07,
2IFC,62,0,62,0,9.8,-1,correct answer,0.301513300001,True,False,stimulusDIAN07_2IFC_2019_Jun_14_1637_575,stimulusDIAN07_2IFC_2019_Jun_14_1637_576,True,2019_Jun_14_1637,2IFC,3,DIAN07,
2IFC,63,0,63,0,11.2,-1,correct answer,0.3339756,False,True,stimulusDIAN07_2IFC_2019_Jun_14_1637_577,stimulusDIAN07_2IFC_2019_Jun_14_1637_578,True,2019_Jun_14_1637,2IFC,3,DIAN07,
2IFC,64,0,64,0,11.2,-1,correct answer,0.4006632,False,True,stimulusDIAN07_2IFC_2019_Jun_14_1637_579,stimulusDIAN07_2IFC_2019_Jun_14_1637_580,True,2019_Jun_14_1637,2IFC,3,DIAN07,
2IFC,65,0,65,0,12.5,-1,correct answer,0.434297200001,True,False,stimulusDIAN07_2IFC_2019_Jun_14_1637_581,stimulusDIAN07_2IFC_2019_Jun_14_1637_582,True,2019_Jun_14_1637,2IFC,3,DIAN07,
2IFC,66,0,66,0,13.9,-1,correct answer,0.4005901,True,False,stimulusDIAN07_2IFC_2019_Jun_14_1637_583,stimulusDIAN07_2IFC_2019_Jun_14_1637_584,True,2019_Jun_14_1637,2IFC,3,DIAN07,
2IFC,67,0,67,0,13.9,-1,correct answer,0.1671042,True,False,stimulusDIAN07_2IFC_2019_Jun_14_1637_585,stimulusDIAN07_2IFC_2019_Jun_14_1637_586,True,2019_Jun_14_1637,2IFC,3,DIAN07,
2IFC,68,0,68,0,15.3,-1,correct answer,0.467313300001,False,True,stimulusDIAN07_2IFC_2019_Jun_14_1637_587,stimulusDIAN07_2IFC_2019_Jun_14_1637_588,True,2019_Jun_14_1637,2IFC,3,DIAN07,
2IFC,69,0,69,0,12.5,-1,correct answer,0.233893799999,False,True,stimulusDIAN07_2IFC_2019_Jun_14_1637_589,stimulusDIAN07_2IFC_2019_Jun_14_1637_590,True,2019_Jun_14_1637,2IFC,3,DIAN07,
2IFC,70,0,70,0,15.3,-1,correct answer,0.4675155,False,True,stimulusDIAN07_2IFC_2019_Jun_14_1637_591,stimulusDIAN07_2IFC_2019_Jun_14_1637_592,True,2019_Jun_14_1637,2IFC,3,DIAN07,
2IFC,71,0,71,0,11.2,-1,correct answer,0.400504300002,False,True,stimulusDIAN07_2IFC_2019_Jun_14_1637_593,stimulusDIAN07_2IFC_2019_Jun_14_1637_594,True,2019_Jun_14_1637,2IFC,3,DIAN07,
2IFC,72,0,72,0,11.2,-1,correct answer,0.334080300001,False,True,stimulusDIAN07_2IFC_2019_Jun_14_1637_595,stimulusDIAN07_2IFC_2019_Jun_14_1637_596,True,2019_Jun_14_1637,2IFC,3,DIAN07,
2IFC,73,0,73,0,12.5,-1,correct answer,0.3008808,False,True,stimulusDIAN07_2IFC_2019_Jun_14_1637_597,stimulusDIAN07_2IFC_2019_Jun_14_1637_598,True,2019_Jun_14_1637,2IFC,3,DIAN07,
2IFC,74,0,74,0,13.9,-1,correct answer,0.3670841,False,True,stimulusDIAN07_2IFC_2019_Jun_14_1637_599,stimulusDIAN07_2IFC_2019_Jun_14_1637_600,True,2019_Jun_14_1637,2IFC,3,DIAN07,
2IFC,0,0,0,0,5.8,-1,correct answer,0.400563699999,False,True,stimulusDIAN07_2IFC_2019_Jun_14_1637_601,stimulusDIAN07_2IFC_2019_Jun_14_1637_602,True,2019_Jun_14_1637,2IFC,3,DIAN07,
2IFC,1,0,1,0,12.5,-1,correct answer,0.300535600001,False,True,stimulusDIAN07_2IFC_2019_Jun_14_1637_603,stimulusDIAN07_2IFC_2019_Jun_14_1637_604,True,2019_Jun_14_1637,2IFC,3,DIAN07,
2IFC,2,0,2,0,15.3,-1,correct answer,0.400550799999,False,True,stimulusDIAN07_2IFC_2019_Jun_14_1637_605,stimulusDIAN07_2IFC_2019_Jun_14_1637_606,True,2019_Jun_14_1637,2IFC,3,DIAN07,
2IFC,3,0,3,0,9.8,-1,correct answer,0.567596999999,True,False,stimulusDIAN07_2IFC_2019_Jun_14_1637_607,stimulusDIAN07_2IFC_2019_Jun_14_1637_608,True,2019_Jun_14_1637,2IFC,3,DIAN07,
2IFC,4,0,4,0,9.8,-1,correct answer,0.5343452,False,True,stimulusDIAN07_2IFC_2019_Jun_14_1637_609,stimulusDIAN07_2IFC_2019_Jun_14_1637_610,True,2019_Jun_14_1637,2IFC,3,DIAN07,
2IFC,5,0,5,0,13.9,-1,correct answer,0.4673363,True,False,stimulusDIAN07_2IFC_2019_Jun_14_1637_611,stimulusDIAN07_2IFC_2019_Jun_14_1637_612,True,2019_Jun_14_1637,2IFC,3,DIAN07,
2IFC,6,0,6,0,15.3,-1,correct answer,0.333949399999,False,True,stimulusDIAN07_2IFC_2019_Jun_14_1637_613,stimulusDIAN07_2IFC_2019_Jun_14_1637_614,True,2019_Jun_14_1637,2IFC,3,DIAN07,
2IFC,7,0,7,0,9.8,-1,correct answer,0.466868400001,True,False,stimulusDIAN07_2IFC_2019_Jun_14_1637_615,stimulusDIAN07_2IFC_2019_Jun_14_1637_616,True,2019_Jun_14_1637,2IFC,3,DIAN07,
2IFC,8,0,8,0,12.5,-1,correct answer,0.701022700001,False,True,stimulusDIAN07_2IFC_2019_Jun_14_1637_617,stimulusDIAN07_2IFC_2019_Jun_14_1637_618,True,2019_Jun_14_1637,2IFC,3,DIAN07,
2IFC,9,0,9,0,9.8,-1,correct answer,0.3335475,True,False,stimulusDIAN07_2IFC_2019_Jun_14_1637_619,stimulusDIAN07_2IFC_2019_Jun_14_1637_620,True,2019_Jun_14_1637,2IFC,3,DIAN07,
2IFC,10,0,10,0,5.8,-1,correct answer,0.2673192,False,True,stimulusDIAN07_2IFC_2019_Jun_14_1637_621,stimulusDIAN07_2IFC_2019_Jun_14_1637_622,True,2019_Jun_14_1637,2IFC,3,DIAN07,
2IFC,11,0,11,0,9.8,-1,correct answer,0.4340223,True,False,stimulusDIAN07_2IFC_2019_Jun_14_1637_623,stimulusDIAN07_2IFC_2019_Jun_14_1637_624,True,2019_Jun_14_1637,2IFC,3,DIAN07,
2IFC,12,0,12,0,15.3,-1,correct answer,0.2339176,True,False,stimulusDIAN07_2IFC_2019_Jun_14_1637_625,stimulusDIAN07_2IFC_2019_Jun_14_1637_626,True,2019_Jun_14_1637,2IFC,3,DIAN07,
2IFC,13,0,13,0,8.1,-1,correct answer,0.467054499999,True,False,stimulusDIAN07_2IFC_2019_Jun_14_1637_627,stimulusDIAN07_2IFC_2019_Jun_14_1637_628,True,2019_Jun_14_1637,2IFC,3,DIAN07,
2IFC,14,0,14,0,9.8,-1,correct answer,0.268176199999,True,False,stimulusDIAN07_2IFC_2019_Jun_14_1637_629,stimulusDIAN07_2IFC_2019_Jun_14_1637_630,True,2019_Jun_14_1637,2IFC,3,DIAN07,
2IFC,15,0,15,0,5.8,-1,correct answer,0.3005591,False,True,stimulusDIAN07_2IFC_2019_Jun_14_1637_631,stimulusDIAN07_2IFC_2019_Jun_14_1637_632,True,2019_Jun_14_1637,2IFC,3,DIAN07,
2IFC,16,0,16,0,12.5,-1,correct answer,0.2685425,True,False,stimulusDIAN07_2IFC_2019_Jun_14_1637_633,stimulusDIAN07_2IFC_2019_Jun_14_1637_634,True,2019_Jun_14_1637,2IFC,3,DIAN07,
2IFC,17,0,17,0,12.5,-1,correct answer,0.300565400001,False,True,stimulusDIAN07_2IFC_2019_Jun_14_1637_635,stimulusDIAN07_2IFC_2019_Jun_14_1637_636,True,2019_Jun_14_1637,2IFC,3,DIAN07,
2IFC,18,0,18,0,13.9,-1,correct answer,0.3676369,False,True,stimulusDIAN07_2IFC_2019_Jun_14_1637_637,stimulusDIAN07_2IFC_2019_Jun_14_1637_638,True,2019_Jun_14_1637,2IFC,3,DIAN07,
2IFC,19,0,19,0,11.2,-1,correct answer,0.500713400001,False,True,stimulusDIAN07_2IFC_2019_Jun_14_1637_639,stimulusDIAN07_2IFC_2019_Jun_14_1637_640,True,2019_Jun_14_1637,2IFC,3,DIAN07,
2IFC,20,0,20,0,13.9,-1,correct answer,0.2671594,False,True,stimulusDIAN07_2IFC_2019_Jun_14_1637_641,stimulusDIAN07_2IFC_2019_Jun_14_1637_642,True,2019_Jun_14_1637,2IFC,3,DIAN07,
2IFC,21,0,21,0,13.9,-1,correct answer,0.0342355999983,True,False,stimulusDIAN07_2IFC_2019_Jun_14_1637_643,stimulusDIAN07_2IFC_2019_Jun_14_1637_644,True,2019_Jun_14_1637,2IFC,3,DIAN07,
2IFC,22,0,22,0,16.9,-1,correct answer,0.3671767,False,True,stimulusDIAN07_2IFC_2019_Jun_14_1637_645,stimulusDIAN07_2IFC_2019_Jun_14_1637_646,True,2019_Jun_14_1637,2IFC,3,DIAN07,
2IFC,23,0,23,0,15.3,-1,correct answer,0.434095500001,False,True,stimulusDIAN07_2IFC_2019_Jun_14_1637_647,stimulusDIAN07_2IFC_2019_Jun_14_1637_648,True,2019_Jun_14_1637,2IFC,3,DIAN07,
2IFC,24,0,24,0,16.9,-1,correct answer,0.0329354999994,True,False,stimulusDIAN07_2IFC_2019_Jun_14_1637_649,stimulusDIAN07_2IFC_2019_Jun_14_1637_650,True,2019_Jun_14_1637,2IFC,3,DIAN07,
2IFC,25,0,25,0,5.8,-1,correct answer,0.100221100001,False,True,stimulusDIAN07_2IFC_2019_Jun_14_1637_651,stimulusDIAN07_2IFC_2019_Jun_14_1637_652,True,2019_Jun_14_1637,2IFC,3,DIAN07,
2IFC,26,0,26,0,12.5,-1,correct answer,0.233583900001,True,False,stimulusDIAN07_2IFC_2019_Jun_14_1637_653,stimulusDIAN07_2IFC_2019_Jun_14_1637_654,True,2019_Jun_14_1637,2IFC,3,DIAN07,
2IFC,27,0,27,0,12.5,-1,correct answer,0.233895200001,False,True,stimulusDIAN07_2IFC_2019_Jun_14_1637_655,stimulusDIAN07_2IFC_2019_Jun_14_1637_656,True,2019_Jun_14_1637,2IFC,3,DIAN07,
2IFC,28,0,28,0,9.8,-1,correct answer,0.100369599999,False,True,stimulusDIAN07_2IFC_2019_Jun_14_1637_657,stimulusDIAN07_2IFC_2019_Jun_14_1637_658,True,2019_Jun_14_1637,2IFC,3,DIAN07,
2IFC,29,0,29,0,12.5,-1,wrong answer,0.433407500001,False,True,stimulusDIAN07_2IFC_2019_Jun_14_1637_659,stimulusDIAN07_2IFC_2019_Jun_14_1637_660,True,2019_Jun_14_1637,2IFC,3,DIAN07,
2IFC,30,0,30,0,9.8,-1,correct answer,0.400768,False,True,stimulusDIAN07_2IFC_2019_Jun_14_1637_661,stimulusDIAN07_2IFC_2019_Jun_14_1637_662,True,2019_Jun_14_1637,2IFC,3,DIAN07,
2IFC,31,0,31,0,5.8,-1,wrong answer,0.5340602,True,False,stimulusDIAN07_2IFC_2019_Jun_14_1637_663,stimulusDIAN07_2IFC_2019_Jun_14_1637_664,True,2019_Jun_14_1637,2IFC,3,DIAN07,
2IFC,32,0,32,0,12.5,-1,correct answer,0.3003446,False,True,stimulusDIAN07_2IFC_2019_Jun_14_1637_665,stimulusDIAN07_2IFC_2019_Jun_14_1637_666,True,2019_Jun_14_1637,2IFC,3,DIAN07,
2IFC,33,0,33,0,12.5,-1,correct answer,0.233615500001,True,False,stimulusDIAN07_2IFC_2019_Jun_14_1637_667,stimulusDIAN07_2IFC_2019_Jun_14_1637_668,True,2019_Jun_14_1637,2IFC,3,DIAN07,
2IFC,34,0,34,0,13.9,-1,correct answer,0.1675808,False,True,stimulusDIAN07_2IFC_2019_Jun_14_1637_669,stimulusDIAN07_2IFC_2019_Jun_14_1637_670,True,2019_Jun_14_1637,2IFC,3,DIAN07,
2IFC,35,0,35,0,15.3,-1,correct answer,0.101352399999,True,False,stimulusDIAN07_2IFC_2019_Jun_14_1637_671,stimulusDIAN07_2IFC_2019_Jun_14_1637_672,True,2019_Jun_14_1637,2IFC,3,DIAN07,
2IFC,36,0,36,0,11.2,-1,correct answer,0.1671529,True,False,stimulusDIAN07_2IFC_2019_Jun_14_1637_673,stimulusDIAN07_2IFC_2019_Jun_14_1637_674,True,2019_Jun_14_1637,2IFC,3,DIAN07,
2IFC,37,0,37,0,15.3,-1,correct answer,0.1005319,True,False,stimulusDIAN07_2IFC_2019_Jun_14_1637_675,stimulusDIAN07_2IFC_2019_Jun_14_1637_676,True,2019_Jun_14_1637,2IFC,3,DIAN07,
2IFC,38,0,38,0,15.3,-1,correct answer,0.234240199999,True,False,stimulusDIAN07_2IFC_2019_Jun_14_1637_677,stimulusDIAN07_2IFC_2019_Jun_14_1637_678,True,2019_Jun_14_1637,2IFC,3,DIAN07,
2IFC,39,0,39,0,15.3,-1,correct answer,0.200567099999,True,False,stimulusDIAN07_2IFC_2019_Jun_14_1637_679,stimulusDIAN07_2IFC_2019_Jun_14_1637_680,True,2019_Jun_14_1637,2IFC,3,DIAN07,
2IFC,40,0,40,0,8.1,-1,correct answer,0.4005414,True,False,stimulusDIAN07_2IFC_2019_Jun_14_1637_681,stimulusDIAN07_2IFC_2019_Jun_14_1637_682,True,2019_Jun_14_1637,2IFC,3,DIAN07,
2IFC,41,0,41,0,8.1,-1,correct answer,0.3339476,False,True,stimulusDIAN07_2IFC_2019_Jun_14_1637_683,stimulusDIAN07_2IFC_2019_Jun_14_1637_684,True,2019_Jun_14_1637,2IFC,3,DIAN07,
2IFC,42,0,42,0,13.9,-1,correct answer,0.300390799999,False,True,stimulusDIAN07_2IFC_2019_Jun_14_1637_685,stimulusDIAN07_2IFC_2019_Jun_14_1637_686,True,2019_Jun_14_1637,2IFC,3,DIAN07,
2IFC,43,0,43,0,13.9,-1,correct answer,0.1667619,True,False,stimulusDIAN07_2IFC_2019_Jun_14_1637_687,stimulusDIAN07_2IFC_2019_Jun_14_1637_688,True,2019_Jun_14_1637,2IFC,3,DIAN07,
2IFC,44,0,44,0,8.1,-1,correct answer,0.434235699999,False,True,stimulusDIAN07_2IFC_2019_Jun_14_1637_689,stimulusDIAN07_2IFC_2019_Jun_14_1637_690,True,2019_Jun_14_1637,2IFC,3,DIAN07,
2IFC,45,0,45,0,15.3,-1,correct answer,0.367456100001,False,True,stimulusDIAN07_2IFC_2019_Jun_14_1637_691,stimulusDIAN07_2IFC_2019_Jun_14_1637_692,True,2019_Jun_14_1637,2IFC,3,DIAN07,
2IFC,46,0,46,0,9.8,-1,wrong answer,0.534272499999,True,False,stimulusDIAN07_2IFC_2019_Jun_14_1637_693,stimulusDIAN07_2IFC_2019_Jun_14_1637_694,True,2019_Jun_14_1637,2IFC,3,DIAN07,
2IFC,47,0,47,0,11.2,-1,correct answer,0.2335943,False,True,stimulusDIAN07_2IFC_2019_Jun_14_1637_695,stimulusDIAN07_2IFC_2019_Jun_14_1637_696,True,2019_Jun_14_1637,2IFC,3,DIAN07,
2IFC,48,0,48,0,15.3,-1,correct answer,0.100395400001,True,False,stimulusDIAN07_2IFC_2019_Jun_14_1637_697,stimulusDIAN07_2IFC_2019_Jun_14_1637_698,True,2019_Jun_14_1637,2IFC,3,DIAN07,
2IFC,49,0,49,0,8.1,-1,correct answer,0.333864799999,False,True,stimulusDIAN07_2IFC_2019_Jun_14_1637_699,stimulusDIAN07_2IFC_2019_Jun_14_1637_700,True,2019_Jun_14_1637,2IFC,3,DIAN07,
2IFC,50,0,50,0,12.5,-1,correct answer,0.165770399999,True,False,stimulusDIAN07_2IFC_2019_Jun_14_1637_701,stimulusDIAN07_2IFC_2019_Jun_14_1637_702,True,2019_Jun_14_1637,2IFC,3,DIAN07,
2IFC,51,0,51,0,11.2,-1,correct answer,0.300527199999,False,True,stimulusDIAN07_2IFC_2019_Jun_14_1637_703,stimulusDIAN07_2IFC_2019_Jun_14_1637_704,True,2019_Jun_14_1637,2IFC,3,DIAN07,
2IFC,52,0,52,0,12.5,-1,correct answer,0.2671794,False,True,stimulusDIAN07_2IFC_2019_Jun_14_1637_705,stimulusDIAN07_2IFC_2019_Jun_14_1637_706,True,2019_Jun_14_1637,2IFC,3,DIAN07,
2IFC,53,0,53,0,15.3,-1,correct answer,0.3668886,False,True,stimulusDIAN07_2IFC_2019_Jun_14_1637_707,stimulusDIAN07_2IFC_2019_Jun_14_1637_708,True,2019_Jun_14_1637,2IFC,3,DIAN07,
2IFC,54,0,54,0,12.5,-1,correct answer,0.233507699999,True,False,stimulusDIAN07_2IFC_2019_Jun_14_1637_709,stimulusDIAN07_2IFC_2019_Jun_14_1637_710,True,2019_Jun_14_1637,2IFC,3,DIAN07,
2IFC,55,0,55,0,13.9,-1,correct answer,0.233771900001,False,True,stimulusDIAN07_2IFC_2019_Jun_14_1637_711,stimulusDIAN07_2IFC_2019_Jun_14_1637_712,True,2019_Jun_14_1637,2IFC,3,DIAN07,
2IFC,56,0,56,0,16.9,-1,wrong answer,0.400529300001,False,True,stimulusDIAN07_2IFC_2019_Jun_14_1637_713,stimulusDIAN07_2IFC_2019_Jun_14_1637_714,True,2019_Jun_14_1637,2IFC,3,DIAN07,
2IFC,57,0,57,0,11.2,-1,correct answer,0.3672081,False,True,stimulusDIAN07_2IFC_2019_Jun_14_1637_715,stimulusDIAN07_2IFC_2019_Jun_14_1637_716,True,2019_Jun_14_1637,2IFC,3,DIAN07,
2IFC,58,0,58,0,8.1,-1,correct answer,0.2667387,True,False,stimulusDIAN07_2IFC_2019_Jun_14_1637_717,stimulusDIAN07_2IFC_2019_Jun_14_1637_718,True,2019_Jun_14_1637,2IFC,3,DIAN07,
2IFC,59,0,59,0,15.3,-1,wrong answer,0.133251000001,True,False,stimulusDIAN07_2IFC_2019_Jun_14_1637_719,stimulusDIAN07_2IFC_2019_Jun_14_1637_720,True,2019_Jun_14_1637,2IFC,3,DIAN07,
2IFC,60,0,60,0,13.9,-1,correct answer,0.500680900001,False,True,stimulusDIAN07_2IFC_2019_Jun_14_1637_721,stimulusDIAN07_2IFC_2019_Jun_14_1637_722,True,2019_Jun_14_1637,2IFC,3,DIAN07,
2IFC,61,0,61,0,9.8,-1,correct answer,0.233130000001,True,False,stimulusDIAN07_2IFC_2019_Jun_14_1637_723,stimulusDIAN07_2IFC_2019_Jun_14_1637_724,True,2019_Jun_14_1637,2IFC,3,DIAN07,
2IFC,62,0,62,0,15.3,-1,correct answer,0.400477900001,False,True,stimulusDIAN07_2IFC_2019_Jun_14_1637_725,stimulusDIAN07_2IFC_2019_Jun_14_1637_726,True,2019_Jun_14_1637,2IFC,3,DIAN07,
2IFC,63,0,63,0,16.9,-1,correct answer,0.2671885,True,False,stimulusDIAN07_2IFC_2019_Jun_14_1637_727,stimulusDIAN07_2IFC_2019_Jun_14_1637_728,True,2019_Jun_14_1637,2IFC,3,DIAN07,
2IFC,64,0,64,0,15.3,-1,correct answer,0.2676598,True,False,stimulusDIAN07_2IFC_2019_Jun_14_1637_729,stimulusDIAN07_2IFC_2019_Jun_14_1637_730,True,2019_Jun_14_1637,2IFC,3,DIAN07,
2IFC,65,0,65,0,15.3,-1,correct answer,0.3676013,False,True,stimulusDIAN07_2IFC_2019_Jun_14_1637_731,stimulusDIAN07_2IFC_2019_Jun_14_1637_732,True,2019_Jun_14_1637,2IFC,3,DIAN07,
2IFC,66,0,66,0,8.1,-1,wrong answer,0.300535600001,False,True,stimulusDIAN07_2IFC_2019_Jun_14_1637_733,stimulusDIAN07_2IFC_2019_Jun_14_1637_734,True,2019_Jun_14_1637,2IFC,3,DIAN07,
2IFC,67,0,67,0,12.5,-1,correct answer,0.367242100001,False,True,stimulusDIAN07_2IFC_2019_Jun_14_1637_735,stimulusDIAN07_2IFC_2019_Jun_14_1637_736,True,2019_Jun_14_1637,2IFC,3,DIAN07,
2IFC,68,0,68,0,13.9,-1,correct answer,0.166971999999,True,False,stimulusDIAN07_2IFC_2019_Jun_14_1637_737,stimulusDIAN07_2IFC_2019_Jun_14_1637_738,True,2019_Jun_14_1637,2IFC,3,DIAN07,
2IFC,69,0,69,0,15.3,-1,correct answer,0.2671474,True,False,stimulusDIAN07_2IFC_2019_Jun_14_1637_739,stimulusDIAN07_2IFC_2019_Jun_14_1637_740,True,2019_Jun_14_1637,2IFC,3,DIAN07,
2IFC,70,0,70,0,11.2,-1,correct answer,0.0336888999991,True,False,stimulusDIAN07_2IFC_2019_Jun_14_1637_741,stimulusDIAN07_2IFC_2019_Jun_14_1637_742,True,2019_Jun_14_1637,2IFC,3,DIAN07,
2IFC,71,0,71,0,9.8,-1,correct answer,0.367061999999,False,True,stimulusDIAN07_2IFC_2019_Jun_14_1637_743,stimulusDIAN07_2IFC_2019_Jun_14_1637_744,True,2019_Jun_14_1637,2IFC,3,DIAN07,
2IFC,72,0,72,0,13.9,-1,correct answer,0.434034,True,False,stimulusDIAN07_2IFC_2019_Jun_14_1637_745,stimulusDIAN07_2IFC_2019_Jun_14_1637_746,True,2019_Jun_14_1637,2IFC,3,DIAN07,
2IFC,73,0,73,0,16.9,-1,correct answer,0.23213,True,False,stimulusDIAN07_2IFC_2019_Jun_14_1637_747,stimulusDIAN07_2IFC_2019_Jun_14_1637_748,True,2019_Jun_14_1637,2IFC,3,DIAN07,
2IFC,74,0,74,0,5.8,-1,wrong answer,0.567743700001,False,True,stimulusDIAN07_2IFC_2019_Jun_14_1637_749,stimulusDIAN07_2IFC_2019_Jun_14_1637_750,True,2019_Jun_14_1637,2IFC,3,DIAN07,
2IFC,0,0,0,0,12.5,-1,correct answer,0.366869400001,True,False,stimulusDIAN07_2IFC_2019_Jun_14_1637_751,stimulusDIAN07_2IFC_2019_Jun_14_1637_752,True,2019_Jun_14_1637,2IFC,3,DIAN07,
2IFC,1,0,1,0,8.1,-1,wrong answer,0.3340993,True,False,stimulusDIAN07_2IFC_2019_Jun_14_1637_753,stimulusDIAN07_2IFC_2019_Jun_14_1637_754,True,2019_Jun_14_1637,2IFC,3,DIAN07,
2IFC,2,0,2,0,5.8,-1,correct answer,0.4343319,True,False,stimulusDIAN07_2IFC_2019_Jun_14_1637_755,stimulusDIAN07_2IFC_2019_Jun_14_1637_756,True,2019_Jun_14_1637,2IFC,3,DIAN07,
2IFC,3,0,3,0,16.9,-1,correct answer,0.467047599999,False,True,stimulusDIAN07_2IFC_2019_Jun_14_1637_757,stimulusDIAN07_2IFC_2019_Jun_14_1637_758,True,2019_Jun_14_1637,2IFC,3,DIAN07,
2IFC,4,0,4,0,12.5,-1,correct answer,0.234067200001,False,True,stimulusDIAN07_2IFC_2019_Jun_14_1637_759,stimulusDIAN07_2IFC_2019_Jun_14_1637_760,True,2019_Jun_14_1637,2IFC,3,DIAN07,
2IFC,5,0,5,0,9.8,-1,correct answer,0.367214700002,True,False,stimulusDIAN07_2IFC_2019_Jun_14_1637_761,stimulusDIAN07_2IFC_2019_Jun_14_1637_762,True,2019_Jun_14_1637,2IFC,3,DIAN07,
2IFC,6,0,6,0,11.2,-1,correct answer,0.267235699999,False,True,stimulusDIAN07_2IFC_2019_Jun_14_1637_763,stimulusDIAN07_2IFC_2019_Jun_14_1637_764,True,2019_Jun_14_1637,2IFC,3,DIAN07,
2IFC,7,0,7,0,12.5,-1,correct answer,0.267012300001,False,True,stimulusDIAN07_2IFC_2019_Jun_14_1637_765,stimulusDIAN07_2IFC_2019_Jun_14_1637_766,True,2019_Jun_14_1637,2IFC,3,DIAN07,
2IFC,8,0,8,0,16.9,-1,correct answer,0.4340849,False,True,stimulusDIAN07_2IFC_2019_Jun_14_1637_767,stimulusDIAN07_2IFC_2019_Jun_14_1637_768,True,2019_Jun_14_1637,2IFC,3,DIAN07,
2IFC,9,0,9,0,8.1,-1,correct answer,0.4004752,False,True,stimulusDIAN07_2IFC_2019_Jun_14_1637_769,stimulusDIAN07_2IFC_2019_Jun_14_1637_770,True,2019_Jun_14_1637,2IFC,3,DIAN07,
2IFC,10,0,10,0,11.2,-1,correct answer,0.333451500001,True,False,stimulusDIAN07_2IFC_2019_Jun_14_1637_771,stimulusDIAN07_2IFC_2019_Jun_14_1637_772,True,2019_Jun_14_1637,2IFC,3,DIAN07,
2IFC,11,0,11,0,15.3,-1,correct answer,0.1339952,False,True,stimulusDIAN07_2IFC_2019_Jun_14_1637_773,stimulusDIAN07_2IFC_2019_Jun_14_1637_774,True,2019_Jun_14_1637,2IFC,3,DIAN07,
2IFC,12,0,12,0,16.9,-1,correct answer,0.5343123,True,False,stimulusDIAN07_2IFC_2019_Jun_14_1637_775,stimulusDIAN07_2IFC_2019_Jun_14_1637_776,True,2019_Jun_14_1637,2IFC,3,DIAN07,
2IFC,13,0,13,0,12.5,-1,correct answer,0.100796999999,False,True,stimulusDIAN07_2IFC_2019_Jun_14_1637_777,stimulusDIAN07_2IFC_2019_Jun_14_1637_778,True,2019_Jun_14_1637,2IFC,3,DIAN07,
2IFC,14,0,14,0,9.8,-1,correct answer,0.3675883,True,False,stimulusDIAN07_2IFC_2019_Jun_14_1637_779,stimulusDIAN07_2IFC_2019_Jun_14_1637_780,True,2019_Jun_14_1637,2IFC,3,DIAN07,
2IFC,15,0,15,0,13.9,-1,correct answer,0.1333753,False,True,stimulusDIAN07_2IFC_2019_Jun_14_1637_781,stimulusDIAN07_2IFC_2019_Jun_14_1637_782,True,2019_Jun_14_1637,2IFC,3,DIAN07,
2IFC,16,0,16,0,16.9,-1,correct answer,0.3678607,False,True,stimulusDIAN07_2IFC_2019_Jun_14_1637_783,stimulusDIAN07_2IFC_2019_Jun_14_1637_784,True,2019_Jun_14_1637,2IFC,3,DIAN07,
2IFC,17,0,17,0,12.5,-1,correct answer,0.3004843,True,False,stimulusDIAN07_2IFC_2019_Jun_14_1637_785,stimulusDIAN07_2IFC_2019_Jun_14_1637_786,True,2019_Jun_14_1637,2IFC,3,DIAN07,
2IFC,18,0,18,0,15.3,-1,correct answer,0.2006827,True,False,stimulusDIAN07_2IFC_2019_Jun_14_1637_787,stimulusDIAN07_2IFC_2019_Jun_14_1637_788,True,2019_Jun_14_1637,2IFC,3,DIAN07,
2IFC,19,0,19,0,9.8,-1,correct answer,0.300702500001,False,True,stimulusDIAN07_2IFC_2019_Jun_14_1637_789,stimulusDIAN07_2IFC_2019_Jun_14_1637_790,True,2019_Jun_14_1637,2IFC,3,DIAN07,
2IFC,20,0,20,0,5.8,-1,correct answer,0.4674655,True,False,stimulusDIAN07_2IFC_2019_Jun_14_1637_791,stimulusDIAN07_2IFC_2019_Jun_14_1637_792,True,2019_Jun_14_1637,2IFC,3,DIAN07,
2IFC,21,0,21,0,8.1,-1,correct answer,0.4670518,False,True,stimulusDIAN07_2IFC_2019_Jun_14_1637_793,stimulusDIAN07_2IFC_2019_Jun_14_1637_794,True,2019_Jun_14_1637,2IFC,3,DIAN07,
2IFC,22,0,22,0,13.9,-1,correct answer,0.2004044,True,False,stimulusDIAN07_2IFC_2019_Jun_14_1637_795,stimulusDIAN07_2IFC_2019_Jun_14_1637_796,True,2019_Jun_14_1637,2IFC,3,DIAN07,
2IFC,23,0,23,0,15.3,-1,correct answer,0.1999903,False,True,stimulusDIAN07_2IFC_2019_Jun_14_1637_797,stimulusDIAN07_2IFC_2019_Jun_14_1637_798,True,2019_Jun_14_1637,2IFC,3,DIAN07,
2IFC,24,0,24,0,8.1,-1,correct answer,0.4007487,False,True,stimulusDIAN07_2IFC_2019_Jun_14_1637_799,stimulusDIAN07_2IFC_2019_Jun_14_1637_800,True,2019_Jun_14_1637,2IFC,3,DIAN07,
2IFC,25,0,25,0,5.8,-1,correct answer,0.2004148,False,True,stimulusDIAN07_2IFC_2019_Jun_14_1637_801,stimulusDIAN07_2IFC_2019_Jun_14_1637_802,True,2019_Jun_14_1637,2IFC,3,DIAN07,
2IFC,26,0,26,0,15.3,-1,correct answer,0.300846099999,False,True,stimulusDIAN07_2IFC_2019_Jun_14_1637_803,stimulusDIAN07_2IFC_2019_Jun_14_1637_804,True,2019_Jun_14_1637,2IFC,3,DIAN07,
2IFC,27,0,27,0,11.2,-1,correct answer,0.267005600001,False,True,stimulusDIAN07_2IFC_2019_Jun_14_1637_805,stimulusDIAN07_2IFC_2019_Jun_14_1637_806,True,2019_Jun_14_1637,2IFC,3,DIAN07,
2IFC,28,0,28,0,5.8,-1,correct answer,0.233876600001,False,True,stimulusDIAN07_2IFC_2019_Jun_14_1637_807,stimulusDIAN07_2IFC_2019_Jun_14_1637_808,True,2019_Jun_14_1637,2IFC,3,DIAN07,
2IFC,29,0,29,0,9.8,-1,correct answer,0.2672838,True,False,stimulusDIAN07_2IFC_2019_Jun_14_1637_809,stimulusDIAN07_2IFC_2019_Jun_14_1637_810,True,2019_Jun_14_1637,2IFC,3,DIAN07,
2IFC,30,0,30,0,16.9,-1,correct answer,0.1671281,False,True,stimulusDIAN07_2IFC_2019_Jun_14_1637_811,stimulusDIAN07_2IFC_2019_Jun_14_1637_812,True,2019_Jun_14_1637,2IFC,3,DIAN07,
2IFC,31,0,31,0,12.5,-1,correct answer,0.134271999999,True,False,stimulusDIAN07_2IFC_2019_Jun_14_1637_813,stimulusDIAN07_2IFC_2019_Jun_14_1637_814,True,2019_Jun_14_1637,2IFC,3,DIAN07,
2IFC,32,0,32,0,8.1,-1,correct answer,0.0670665999987,False,True,stimulusDIAN07_2IFC_2019_Jun_14_1637_815,stimulusDIAN07_2IFC_2019_Jun_14_1637_816,True,2019_Jun_14_1637,2IFC,3,DIAN07,
2IFC,33,0,33,0,16.9,-1,correct answer,0.567393199999,False,True,stimulusDIAN07_2IFC_2019_Jun_14_1637_817,stimulusDIAN07_2IFC_2019_Jun_14_1637_818,True,2019_Jun_14_1637,2IFC,3,DIAN07,
2IFC,34,0,34,0,8.1,-1,correct answer,0.3336461,True,False,stimulusDIAN07_2IFC_2019_Jun_14_1637_819,stimulusDIAN07_2IFC_2019_Jun_14_1637_820,True,2019_Jun_14_1637,2IFC,3,DIAN07,
2IFC,35,0,35,0,11.2,-1,correct answer,0.0669524999994,False,True,stimulusDIAN07_2IFC_2019_Jun_14_1637_821,stimulusDIAN07_2IFC_2019_Jun_14_1637_822,True,2019_Jun_14_1637,2IFC,3,DIAN07,
2IFC,36,0,36,0,16.9,-1,correct answer,0.0655900000002,True,False,stimulusDIAN07_2IFC_2019_Jun_14_1637_823,stimulusDIAN07_2IFC_2019_Jun_14_1637_824,True,2019_Jun_14_1637,2IFC,3,DIAN07,
2IFC,37,0,37,0,15.3,-1,correct answer,0.267473599999,True,False,stimulusDIAN07_2IFC_2019_Jun_14_1637_825,stimulusDIAN07_2IFC_2019_Jun_14_1637_826,True,2019_Jun_14_1637,2IFC,3,DIAN07,
2IFC,38,0,38,0,5.8,-1,correct answer,0.4007506,False,True,stimulusDIAN07_2IFC_2019_Jun_14_1637_827,stimulusDIAN07_2IFC_2019_Jun_14_1637_828,True,2019_Jun_14_1637,2IFC,3,DIAN07,
2IFC,39,0,39,0,5.8,-1,correct answer,0.367302499999,False,True,stimulusDIAN07_2IFC_2019_Jun_14_1637_829,stimulusDIAN07_2IFC_2019_Jun_14_1637_830,True,2019_Jun_14_1637,2IFC,3,DIAN07,
2IFC,40,0,40,0,9.8,-1,correct answer,0.200134499999,True,False,stimulusDIAN07_2IFC_2019_Jun_14_1637_831,stimulusDIAN07_2IFC_2019_Jun_14_1637_832,True,2019_Jun_14_1637,2IFC,3,DIAN07,
2IFC,41,0,41,0,9.8,-1,wrong answer,0.4336427,True,False,stimulusDIAN07_2IFC_2019_Jun_14_1637_833,stimulusDIAN07_2IFC_2019_Jun_14_1637_834,True,2019_Jun_14_1637,2IFC,3,DIAN07,
2IFC,42,0,42,0,12.5,-1,correct answer,0.4673325,True,False,stimulusDIAN07_2IFC_2019_Jun_14_1637_835,stimulusDIAN07_2IFC_2019_Jun_14_1637_836,True,2019_Jun_14_1637,2IFC,3,DIAN07,
2IFC,43,0,43,0,8.1,-1,correct answer,0.467576000001,True,False,stimulusDIAN07_2IFC_2019_Jun_14_1637_837,stimulusDIAN07_2IFC_2019_Jun_14_1637_838,True,2019_Jun_14_1637,2IFC,3,DIAN07,
2IFC,44,0,44,0,16.9,-1,correct answer,0.300054400001,True,False,stimulusDIAN07_2IFC_2019_Jun_14_1637_839,stimulusDIAN07_2IFC_2019_Jun_14_1637_840,True,2019_Jun_14_1637,2IFC,3,DIAN07,
2IFC,45,0,45,0,16.9,-1,correct answer,0.167169300001,False,True,stimulusDIAN07_2IFC_2019_Jun_14_1637_841,stimulusDIAN07_2IFC_2019_Jun_14_1637_842,True,2019_Jun_14_1637,2IFC,3,DIAN07,
2IFC,46,0,46,0,11.2,-1,correct answer,0.167245800001,False,True,stimulusDIAN07_2IFC_2019_Jun_14_1637_843,stimulusDIAN07_2IFC_2019_Jun_14_1637_844,True,2019_Jun_14_1637,2IFC,3,DIAN07,
2IFC,47,0,47,0,5.8,-1,correct answer,0.0994301999999,False,True,stimulusDIAN07_2IFC_2019_Jun_14_1637_845,stimulusDIAN07_2IFC_2019_Jun_14_1637_846,True,2019_Jun_14_1637,2IFC,3,DIAN07,
2IFC,48,0,48,0,15.3,-1,correct answer,0.1679384,True,False,stimulusDIAN07_2IFC_2019_Jun_14_1637_847,stimulusDIAN07_2IFC_2019_Jun_14_1637_848,True,2019_Jun_14_1637,2IFC,3,DIAN07,
2IFC,49,0,49,0,5.8,-1,correct answer,0.267803299999,False,True,stimulusDIAN07_2IFC_2019_Jun_14_1637_849,stimulusDIAN07_2IFC_2019_Jun_14_1637_850,True,2019_Jun_14_1637,2IFC,3,DIAN07,
2IFC,50,0,50,0,12.5,-1,correct answer,0.2021922,True,False,stimulusDIAN07_2IFC_2019_Jun_14_1637_851,stimulusDIAN07_2IFC_2019_Jun_14_1637_852,True,2019_Jun_14_1637,2IFC,3,DIAN07,
2IFC,51,0,51,0,12.5,-1,correct answer,0.4001988,False,True,stimulusDIAN07_2IFC_2019_Jun_14_1637_853,stimulusDIAN07_2IFC_2019_Jun_14_1637_854,True,2019_Jun_14_1637,2IFC,3,DIAN07,
2IFC,52,0,52,0,16.9,-1,correct answer,0.167492,True,False,stimulusDIAN07_2IFC_2019_Jun_14_1637_855,stimulusDIAN07_2IFC_2019_Jun_14_1637_856,True,2019_Jun_14_1637,2IFC,3,DIAN07,
2IFC,53,0,53,0,5.8,-1,correct answer,0.4342779,True,False,stimulusDIAN07_2IFC_2019_Jun_14_1637_857,stimulusDIAN07_2IFC_2019_Jun_14_1637_858,True,2019_Jun_14_1637,2IFC,3,DIAN07,
2IFC,54,0,54,0,5.8,-1,correct answer,0.567291000001,False,True,stimulusDIAN07_2IFC_2019_Jun_14_1637_859,stimulusDIAN07_2IFC_2019_Jun_14_1637_860,True,2019_Jun_14_1637,2IFC,3,DIAN07,
2IFC,55,0,55,0,5.8,-1,correct answer,0.3668691,True,False,stimulusDIAN07_2IFC_2019_Jun_14_1637_861,stimulusDIAN07_2IFC_2019_Jun_14_1637_862,True,2019_Jun_14_1637,2IFC,3,DIAN07,
2IFC,56,0,56,0,9.8,-1,correct answer,0.4672565,False,True,stimulusDIAN07_2IFC_2019_Jun_14_1637_863,stimulusDIAN07_2IFC_2019_Jun_14_1637_864,True,2019_Jun_14_1637,2IFC,3,DIAN07,
2IFC,57,0,57,0,13.9,-1,correct answer,0.500485799999,False,True,stimulusDIAN07_2IFC_2019_Jun_14_1637_865,stimulusDIAN07_2IFC_2019_Jun_14_1637_866,True,2019_Jun_14_1637,2IFC,3,DIAN07,
2IFC,58,0,58,0,5.8,-1,correct answer,0.4007698,False,True,stimulusDIAN07_2IFC_2019_Jun_14_1637_867,stimulusDIAN07_2IFC_2019_Jun_14_1637_868,True,2019_Jun_14_1637,2IFC,3,DIAN07,
2IFC,59,0,59,0,12.5,-1,correct answer,0.334314199999,True,False,stimulusDIAN07_2IFC_2019_Jun_14_1637_869,stimulusDIAN07_2IFC_2019_Jun_14_1637_870,True,2019_Jun_14_1637,2IFC,3,DIAN07,
2IFC,60,0,60,0,15.3,-1,correct answer,0.334268800001,False,True,stimulusDIAN07_2IFC_2019_Jun_14_1637_871,stimulusDIAN07_2IFC_2019_Jun_14_1637_872,True,2019_Jun_14_1637,2IFC,3,DIAN07,
2IFC,61,0,61,0,13.9,-1,correct answer,0.133923700001,True,False,stimulusDIAN07_2IFC_2019_Jun_14_1637_873,stimulusDIAN07_2IFC_2019_Jun_14_1637_874,True,2019_Jun_14_1637,2IFC,3,DIAN07,
2IFC,62,0,62,0,11.2,-1,correct answer,0.301059000001,False,True,stimulusDIAN07_2IFC_2019_Jun_14_1637_875,stimulusDIAN07_2IFC_2019_Jun_14_1637_876,True,2019_Jun_14_1637,2IFC,3,DIAN07,
2IFC,63,0,63,0,11.2,-1,correct answer,0.200340699999,False,True,stimulusDIAN07_2IFC_2019_Jun_14_1637_877,stimulusDIAN07_2IFC_2019_Jun_14_1637_878,True,2019_Jun_14_1637,2IFC,3,DIAN07,
2IFC,64,0,64,0,8.1,-1,correct answer,0.301285899999,True,False,stimulusDIAN07_2IFC_2019_Jun_14_1637_879,stimulusDIAN07_2IFC_2019_Jun_14_1637_880,True,2019_Jun_14_1637,2IFC,3,DIAN07,
2IFC,65,0,65,0,15.3,-1,correct answer,0.3334992,True,False,stimulusDIAN07_2IFC_2019_Jun_14_1637_881,stimulusDIAN07_2IFC_2019_Jun_14_1637_882,True,2019_Jun_14_1637,2IFC,3,DIAN07,
2IFC,66,0,66,0,9.8,-1,correct answer,0.3672766,True,False,stimulusDIAN07_2IFC_2019_Jun_14_1637_883,stimulusDIAN07_2IFC_2019_Jun_14_1637_884,True,2019_Jun_14_1637,2IFC,3,DIAN07,
2IFC,67,0,67,0,15.3,-1,correct answer,0.1671432,False,True,stimulusDIAN07_2IFC_2019_Jun_14_1637_885,stimulusDIAN07_2IFC_2019_Jun_14_1637_886,True,2019_Jun_14_1637,2IFC,3,DIAN07,
2IFC,68,0,68,0,5.8,-1,correct answer,0.400578899998,False,True,stimulusDIAN07_2IFC_2019_Jun_14_1637_887,stimulusDIAN07_2IFC_2019_Jun_14_1637_888,True,2019_Jun_14_1637,2IFC,3,DIAN07,
2IFC,69,0,69,0,12.5,-1,correct answer,0.167059000001,False,True,stimulusDIAN07_2IFC_2019_Jun_14_1637_889,stimulusDIAN07_2IFC_2019_Jun_14_1637_890,True,2019_Jun_14_1637,2IFC,3,DIAN07,
2IFC,70,0,70,0,9.8,-1,correct answer,0.370734100001,False,True,stimulusDIAN07_2IFC_2019_Jun_14_1637_891,stimulusDIAN07_2IFC_2019_Jun_14_1637_892,True,2019_Jun_14_1637,2IFC,3,DIAN07,
2IFC,71,0,71,0,8.1,-1,correct answer,0.3009781,False,True,stimulusDIAN07_2IFC_2019_Jun_14_1637_893,stimulusDIAN07_2IFC_2019_Jun_14_1637_894,True,2019_Jun_14_1637,2IFC,3,DIAN07,
2IFC,72,0,72,0,5.8,-1,correct answer,0.270868000001,False,True,stimulusDIAN07_2IFC_2019_Jun_14_1637_895,stimulusDIAN07_2IFC_2019_Jun_14_1637_896,True,2019_Jun_14_1637,2IFC,3,DIAN07,
2IFC,73,0,73,0,13.9,-1,correct answer,0.0989816000001,True,False,stimulusDIAN07_2IFC_2019_Jun_14_1637_897,stimulusDIAN07_2IFC_2019_Jun_14_1637_898,True,2019_Jun_14_1637,2IFC,3,DIAN07,
2IFC,74,0,74,0,15.3,-1,correct answer,0.266516,True,False,stimulusDIAN07_2IFC_2019_Jun_14_1637_899,stimulusDIAN07_2IFC_2019_Jun_14_1637_900,True,2019_Jun_14_1637,2IFC,3,DIAN07,
2IFC,0,0,0,0,15.3,-1,correct answer,0.3336748,True,False,stimulusDIAN07_2IFC_2019_Jun_14_1637_901,stimulusDIAN07_2IFC_2019_Jun_14_1637_902,True,2019_Jun_14_1637,2IFC,3,DIAN07,
2IFC,1,0,1,0,13.9,-1,correct answer,0.267250000001,True,False,stimulusDIAN07_2IFC_2019_Jun_14_1637_903,stimulusDIAN07_2IFC_2019_Jun_14_1637_904,True,2019_Jun_14_1637,2IFC,3,DIAN07,
2IFC,2,0,2,0,15.3,-1,correct answer,0.233921000001,True,False,stimulusDIAN07_2IFC_2019_Jun_14_1637_905,stimulusDIAN07_2IFC_2019_Jun_14_1637_906,True,2019_Jun_14_1637,2IFC,3,DIAN07,
2IFC,3,0,3,0,12.5,-1,correct answer,0.2670244,False,True,stimulusDIAN07_2IFC_2019_Jun_14_1637_907,stimulusDIAN07_2IFC_2019_Jun_14_1637_908,True,2019_Jun_14_1637,2IFC,3,DIAN07,
2IFC,4,0,4,0,8.1,-1,correct answer,0.434195,False,True,stimulusDIAN07_2IFC_2019_Jun_14_1637_909,stimulusDIAN07_2IFC_2019_Jun_14_1637_910,True,2019_Jun_14_1637,2IFC,3,DIAN07,
2IFC,5,0,5,0,11.2,-1,correct answer,0.367449900001,True,False,stimulusDIAN07_2IFC_2019_Jun_14_1637_911,stimulusDIAN07_2IFC_2019_Jun_14_1637_912,True,2019_Jun_14_1637,2IFC,3,DIAN07,
2IFC,6,0,6,0,9.8,-1,correct answer,0.4673607,True,False,stimulusDIAN07_2IFC_2019_Jun_14_1637_913,stimulusDIAN07_2IFC_2019_Jun_14_1637_914,True,2019_Jun_14_1637,2IFC,3,DIAN07,
2IFC,7,0,7,0,16.9,-1,correct answer,0.133167900001,False,True,stimulusDIAN07_2IFC_2019_Jun_14_1637_915,stimulusDIAN07_2IFC_2019_Jun_14_1637_916,True,2019_Jun_14_1637,2IFC,3,DIAN07,
2IFC,8,0,8,0,9.8,-1,correct answer,0.2673808,True,False,stimulusDIAN07_2IFC_2019_Jun_14_1637_917,stimulusDIAN07_2IFC_2019_Jun_14_1637_918,True,2019_Jun_14_1637,2IFC,3,DIAN07,
2IFC,9,0,9,0,9.8,-1,correct answer,0.1342004,False,True,stimulusDIAN07_2IFC_2019_Jun_14_1637_919,stimulusDIAN07_2IFC_2019_Jun_14_1637_920,True,2019_Jun_14_1637,2IFC,3,DIAN07,
2IFC,10,0,10,0,13.9,-1,correct answer,0.1342236,True,False,stimulusDIAN07_2IFC_2019_Jun_14_1637_921,stimulusDIAN07_2IFC_2019_Jun_14_1637_922,True,2019_Jun_14_1637,2IFC,3,DIAN07,
2IFC,11,0,11,0,11.2,-1,wrong answer,0.334387499999,True,False,stimulusDIAN07_2IFC_2019_Jun_14_1637_923,stimulusDIAN07_2IFC_2019_Jun_14_1637_924,True,2019_Jun_14_1637,2IFC,3,DIAN07,
2IFC,12,0,12,0,12.5,-1,correct answer,0.233776699999,False,True,stimulusDIAN07_2IFC_2019_Jun_14_1637_925,stimulusDIAN07_2IFC_2019_Jun_14_1637_926,True,2019_Jun_14_1637,2IFC,3,DIAN07,
2IFC,13,0,13,0,12.5,-1,correct answer,0.300739900002,False,True,stimulusDIAN07_2IFC_2019_Jun_14_1637_927,stimulusDIAN07_2IFC_2019_Jun_14_1637_928,True,2019_Jun_14_1637,2IFC,3,DIAN07,
2IFC,14,0,14,0,15.3,-1,correct answer,0.167154500001,True,False,stimulusDIAN07_2IFC_2019_Jun_14_1637_929,stimulusDIAN07_2IFC_2019_Jun_14_1637_930,True,2019_Jun_14_1637,2IFC,3,DIAN07,
2IFC,15,0,15,0,9.8,-1,wrong answer,0.233841699999,True,False,stimulusDIAN07_2IFC_2019_Jun_14_1637_931,stimulusDIAN07_2IFC_2019_Jun_14_1637_932,True,2019_Jun_14_1637,2IFC,3,DIAN07,
2IFC,16,0,16,0,11.2,-1,correct answer,0.2991423,False,True,stimulusDIAN07_2IFC_2019_Jun_14_1637_933,stimulusDIAN07_2IFC_2019_Jun_14_1637_934,True,2019_Jun_14_1637,2IFC,3,DIAN07,
2IFC,17,0,17,0,5.8,-1,correct answer,0.3006492,True,False,stimulusDIAN07_2IFC_2019_Jun_14_1637_935,stimulusDIAN07_2IFC_2019_Jun_14_1637_936,True,2019_Jun_14_1637,2IFC,3,DIAN07,
2IFC,18,0,18,0,16.9,-1,correct answer,0.167330799999,True,False,stimulusDIAN07_2IFC_2019_Jun_14_1637_937,stimulusDIAN07_2IFC_2019_Jun_14_1637_938,True,2019_Jun_14_1637,2IFC,3,DIAN07,
2IFC,19,0,19,0,13.9,-1,correct answer,0.234020200001,False,True,stimulusDIAN07_2IFC_2019_Jun_14_1637_939,stimulusDIAN07_2IFC_2019_Jun_14_1637_940,True,2019_Jun_14_1637,2IFC,3,DIAN07,
2IFC,20,0,20,0,13.9,-1,correct answer,0.100323499999,False,True,stimulusDIAN07_2IFC_2019_Jun_14_1637_941,stimulusDIAN07_2IFC_2019_Jun_14_1637_942,True,2019_Jun_14_1637,2IFC,3,DIAN07,
2IFC,21,0,21,0,5.8,-1,correct answer,0.367308299999,True,False,stimulusDIAN07_2IFC_2019_Jun_14_1637_943,stimulusDIAN07_2IFC_2019_Jun_14_1637_944,True,2019_Jun_14_1637,2IFC,3,DIAN07,
2IFC,22,0,22,0,12.5,-1,correct answer,0.1002453,False,True,stimulusDIAN07_2IFC_2019_Jun_14_1637_945,stimulusDIAN07_2IFC_2019_Jun_14_1637_946,True,2019_Jun_14_1637,2IFC,3,DIAN07,
2IFC,23,0,23,0,11.2,-1,correct answer,0.3340639,False,True,stimulusDIAN07_2IFC_2019_Jun_14_1637_947,stimulusDIAN07_2IFC_2019_Jun_14_1637_948,True,2019_Jun_14_1637,2IFC,3,DIAN07,
2IFC,24,0,24,0,13.9,-1,correct answer,0.3002182,False,True,stimulusDIAN07_2IFC_2019_Jun_14_1637_949,stimulusDIAN07_2IFC_2019_Jun_14_1637_950,True,2019_Jun_14_1637,2IFC,3,DIAN07,
2IFC,25,0,25,0,16.9,-1,correct answer,0.2004715,True,False,stimulusDIAN07_2IFC_2019_Jun_14_1637_951,stimulusDIAN07_2IFC_2019_Jun_14_1637_952,True,2019_Jun_14_1637,2IFC,3,DIAN07,
2IFC,26,0,26,0,5.8,-1,wrong answer,0.2004447,True,False,stimulusDIAN07_2IFC_2019_Jun_14_1637_953,stimulusDIAN07_2IFC_2019_Jun_14_1637_954,True,2019_Jun_14_1637,2IFC,3,DIAN07,
2IFC,27,0,27,0,13.9,-1,correct answer,0.7341497,True,False,stimulusDIAN07_2IFC_2019_Jun_14_1637_955,stimulusDIAN07_2IFC_2019_Jun_14_1637_956,True,2019_Jun_14_1637,2IFC,3,DIAN07,
2IFC,28,0,28,0,13.9,-1,correct answer,0.3004105,True,False,stimulusDIAN07_2IFC_2019_Jun_14_1637_957,stimulusDIAN07_2IFC_2019_Jun_14_1637_958,True,2019_Jun_14_1637,2IFC,3,DIAN07,
2IFC,29,0,29,0,8.1,-1,correct answer,0.233742299999,True,False,stimulusDIAN07_2IFC_2019_Jun_14_1637_959,stimulusDIAN07_2IFC_2019_Jun_14_1637_960,True,2019_Jun_14_1637,2IFC,3,DIAN07,
2IFC,30,0,30,0,16.9,-1,correct answer,0.133904800001,True,False,stimulusDIAN07_2IFC_2019_Jun_14_1637_961,stimulusDIAN07_2IFC_2019_Jun_14_1637_962,True,2019_Jun_14_1637,2IFC,3,DIAN07,
2IFC,31,0,31,0,11.2,-1,wrong answer,0.6010007,False,True,stimulusDIAN07_2IFC_2019_Jun_14_1637_963,stimulusDIAN07_2IFC_2019_Jun_14_1637_964,True,2019_Jun_14_1637,2IFC,3,DIAN07,
2IFC,32,0,32,0,11.2,-1,correct answer,0.467741599999,True,False,stimulusDIAN07_2IFC_2019_Jun_14_1637_965,stimulusDIAN07_2IFC_2019_Jun_14_1637_966,True,2019_Jun_14_1637,2IFC,3,DIAN07,
2IFC,33,0,33,0,16.9,-1,correct answer,0.2334608,False,True,stimulusDIAN07_2IFC_2019_Jun_14_1637_967,stimulusDIAN07_2IFC_2019_Jun_14_1637_968,True,2019_Jun_14_1637,2IFC,3,DIAN07,
2IFC,34,0,34,0,5.8,-1,wrong answer,0.4673282,False,True,stimulusDIAN07_2IFC_2019_Jun_14_1637_969,stimulusDIAN07_2IFC_2019_Jun_14_1637_970,True,2019_Jun_14_1637,2IFC,3,DIAN07,
2IFC,35,0,35,0,8.1,-1,correct answer,0.100389700001,False,True,stimulusDIAN07_2IFC_2019_Jun_14_1637_971,stimulusDIAN07_2IFC_2019_Jun_14_1637_972,True,2019_Jun_14_1637,2IFC,3,DIAN07,
2IFC,36,0,36,0,5.8,-1,correct answer,0.401973900001,False,True,stimulusDIAN07_2IFC_2019_Jun_14_1637_973,stimulusDIAN07_2IFC_2019_Jun_14_1637_974,True,2019_Jun_14_1637,2IFC,3,DIAN07,
2IFC,37,0,37,0,15.3,-1,correct answer,0.430771400001,False,True,stimulusDIAN07_2IFC_2019_Jun_14_1637_975,stimulusDIAN07_2IFC_2019_Jun_14_1637_976,True,2019_Jun_14_1637,2IFC,3,DIAN07,
2IFC,38,0,38,0,16.9,-1,correct answer,0.3678674,False,True,stimulusDIAN07_2IFC_2019_Jun_14_1637_977,stimulusDIAN07_2IFC_2019_Jun_14_1637_978,True,2019_Jun_14_1637,2IFC,3,DIAN07,
2IFC,39,0,39,0,8.1,-1,correct answer,0.300437399999,False,True,stimulusDIAN07_2IFC_2019_Jun_14_1637_979,stimulusDIAN07_2IFC_2019_Jun_14_1637_980,True,2019_Jun_14_1637,2IFC,3,DIAN07,
2IFC,40,0,40,0,9.8,-1,correct answer,0.133540700001,True,False,stimulusDIAN07_2IFC_2019_Jun_14_1637_981,stimulusDIAN07_2IFC_2019_Jun_14_1637_982,True,2019_Jun_14_1637,2IFC,3,DIAN07,
2IFC,41,0,41,0,8.1,-1,correct answer,0.433765199999,True,False,stimulusDIAN07_2IFC_2019_Jun_14_1637_983,stimulusDIAN07_2IFC_2019_Jun_14_1637_984,True,2019_Jun_14_1637,2IFC,3,DIAN07,
2IFC,42,0,42,0,9.8,-1,correct answer,0.4674842,True,False,stimulusDIAN07_2IFC_2019_Jun_14_1637_985,stimulusDIAN07_2IFC_2019_Jun_14_1637_986,True,2019_Jun_14_1637,2IFC,3,DIAN07,
2IFC,43,0,43,0,12.5,-1,correct answer,0.4332553,True,False,stimulusDIAN07_2IFC_2019_Jun_14_1637_987,stimulusDIAN07_2IFC_2019_Jun_14_1637_988,True,2019_Jun_14_1637,2IFC,3,DIAN07,
2IFC,44,0,44,0,9.8,-1,correct answer,0.0327440000001,False,True,stimulusDIAN07_2IFC_2019_Jun_14_1637_989,stimulusDIAN07_2IFC_2019_Jun_14_1637_990,True,2019_Jun_14_1637,2IFC,3,DIAN07,
2IFC,45,0,45,0,13.9,-1,correct answer,0.0996992,True,False,stimulusDIAN07_2IFC_2019_Jun_14_1637_991,stimulusDIAN07_2IFC_2019_Jun_14_1637_992,True,2019_Jun_14_1637,2IFC,3,DIAN07,
2IFC,46,0,46,0,12.5,-1,correct answer,0.166992300001,False,True,stimulusDIAN07_2IFC_2019_Jun_14_1637_993,stimulusDIAN07_2IFC_2019_Jun_14_1637_994,True,2019_Jun_14_1637,2IFC,3,DIAN07,
2IFC,47,0,47,0,16.9,-1,correct answer,0.133446,True,False,stimulusDIAN07_2IFC_2019_Jun_14_1637_995,stimulusDIAN07_2IFC_2019_Jun_14_1637_996,True,2019_Jun_14_1637,2IFC,3,DIAN07,
2IFC,48,0,48,0,11.2,-1,correct answer,0.234395200001,False,True,stimulusDIAN07_2IFC_2019_Jun_14_1637_997,stimulusDIAN07_2IFC_2019_Jun_14_1637_998,True,2019_Jun_14_1637,2IFC,3,DIAN07,
2IFC,49,0,49,0,13.9,-1,correct answer,0.133473200001,True,False,stimulusDIAN07_2IFC_2019_Jun_14_1637_999,stimulusDIAN07_2IFC_2019_Jun_14_1637_1000,True,2019_Jun_14_1637,2IFC,3,DIAN07,
2IFC,50,0,50,0,15.3,-1,correct answer,0.3004886,False,True,stimulusDIAN07_2IFC_2019_Jun_14_1637_1001,stimulusDIAN07_2IFC_2019_Jun_14_1637_1002,True,2019_Jun_14_1637,2IFC,3,DIAN07,
2IFC,51,0,51,0,15.3,-1,correct answer,0.0992538999999,True,False,stimulusDIAN07_2IFC_2019_Jun_14_1637_1003,stimulusDIAN07_2IFC_2019_Jun_14_1637_1004,True,2019_Jun_14_1637,2IFC,3,DIAN07,
2IFC,52,0,52,0,13.9,-1,correct answer,0.467843800001,False,True,stimulusDIAN07_2IFC_2019_Jun_14_1637_1005,stimulusDIAN07_2IFC_2019_Jun_14_1637_1006,True,2019_Jun_14_1637,2IFC,3,DIAN07,
2IFC,53,0,53,0,11.2,-1,correct answer,0.2677841,False,True,stimulusDIAN07_2IFC_2019_Jun_14_1637_1007,stimulusDIAN07_2IFC_2019_Jun_14_1637_1008,True,2019_Jun_14_1637,2IFC,3,DIAN07,
2IFC,54,0,54,0,13.9,-1,correct answer,0.4006785,False,True,stimulusDIAN07_2IFC_2019_Jun_14_1637_1009,stimulusDIAN07_2IFC_2019_Jun_14_1637_1010,True,2019_Jun_14_1637,2IFC,3,DIAN07,
2IFC,55,0,55,0,15.3,-1,correct answer,0.268114,False,True,stimulusDIAN07_2IFC_2019_Jun_14_1637_1011,stimulusDIAN07_2IFC_2019_Jun_14_1637_1012,True,2019_Jun_14_1637,2IFC,3,DIAN07,
2IFC,56,0,56,0,13.9,-1,wrong answer,0.200429500001,True,False,stimulusDIAN07_2IFC_2019_Jun_14_1637_1013,stimulusDIAN07_2IFC_2019_Jun_14_1637_1014,True,2019_Jun_14_1637,2IFC,3,DIAN07,
2IFC,57,0,57,0,5.8,-1,correct answer,0.5005882,True,False,stimulusDIAN07_2IFC_2019_Jun_14_1637_1015,stimulusDIAN07_2IFC_2019_Jun_14_1637_1016,True,2019_Jun_14_1637,2IFC,3,DIAN07,
2IFC,58,0,58,0,9.8,-1,correct answer,0.133741600001,False,True,stimulusDIAN07_2IFC_2019_Jun_14_1637_1017,stimulusDIAN07_2IFC_2019_Jun_14_1637_1018,True,2019_Jun_14_1637,2IFC,3,DIAN07,
2IFC,59,0,59,0,11.2,-1,correct answer,0.267230099998,True,False,stimulusDIAN07_2IFC_2019_Jun_14_1637_1019,stimulusDIAN07_2IFC_2019_Jun_14_1637_1020,True,2019_Jun_14_1637,2IFC,3,DIAN07,
2IFC,60,0,60,0,13.9,-1,correct answer,0.100462599999,True,False,stimulusDIAN07_2IFC_2019_Jun_14_1637_1021,stimulusDIAN07_2IFC_2019_Jun_14_1637_1022,True,2019_Jun_14_1637,2IFC,3,DIAN07,
2IFC,61,0,61,0,12.5,-1,correct answer,0.567536699999,False,True,stimulusDIAN07_2IFC_2019_Jun_14_1637_1023,stimulusDIAN07_2IFC_2019_Jun_14_1637_1024,True,2019_Jun_14_1637,2IFC,3,DIAN07,
2IFC,62,0,62,0,8.1,-1,correct answer,0.300698200001,False,True,stimulusDIAN07_2IFC_2019_Jun_14_1637_1025,stimulusDIAN07_2IFC_2019_Jun_14_1637_1026,True,2019_Jun_14_1637,2IFC,3,DIAN07,
2IFC,63,0,63,0,9.8,-1,correct answer,0.233703399999,True,False,stimulusDIAN07_2IFC_2019_Jun_14_1637_1027,stimulusDIAN07_2IFC_2019_Jun_14_1637_1028,True,2019_Jun_14_1637,2IFC,3,DIAN07,
2IFC,64,0,64,0,8.1,-1,correct answer,0.234503000001,False,True,stimulusDIAN07_2IFC_2019_Jun_14_1637_1029,stimulusDIAN07_2IFC_2019_Jun_14_1637_1030,True,2019_Jun_14_1637,2IFC,3,DIAN07,
2IFC,65,0,65,0,12.5,-1,correct answer,0.1336252,False,True,stimulusDIAN07_2IFC_2019_Jun_14_1637_1031,stimulusDIAN07_2IFC_2019_Jun_14_1637_1032,True,2019_Jun_14_1637,2IFC,3,DIAN07,
2IFC,66,0,66,0,12.5,-1,correct answer,0.3009145,False,True,stimulusDIAN07_2IFC_2019_Jun_14_1637_1033,stimulusDIAN07_2IFC_2019_Jun_14_1637_1034,True,2019_Jun_14_1637,2IFC,3,DIAN07,
2IFC,67,0,67,0,16.9,-1,correct answer,0.1338471,False,True,stimulusDIAN07_2IFC_2019_Jun_14_1637_1035,stimulusDIAN07_2IFC_2019_Jun_14_1637_1036,True,2019_Jun_14_1637,2IFC,3,DIAN07,
2IFC,68,0,68,0,16.9,-1,correct answer,0.1667258,False,True,stimulusDIAN07_2IFC_2019_Jun_14_1637_1037,stimulusDIAN07_2IFC_2019_Jun_14_1637_1038,True,2019_Jun_14_1637,2IFC,3,DIAN07,
2IFC,69,0,69,0,12.5,-1,wrong answer,0.300681299999,False,True,stimulusDIAN07_2IFC_2019_Jun_14_1637_1039,stimulusDIAN07_2IFC_2019_Jun_14_1637_1040,True,2019_Jun_14_1637,2IFC,3,DIAN07,
2IFC,70,0,70,0,12.5,-1,correct answer,0.1004529,True,False,stimulusDIAN07_2IFC_2019_Jun_14_1637_1041,stimulusDIAN07_2IFC_2019_Jun_14_1637_1042,True,2019_Jun_14_1637,2IFC,3,DIAN07,
2IFC,71,0,71,0,11.2,-1,correct answer,0.100337200001,True,False,stimulusDIAN07_2IFC_2019_Jun_14_1637_1043,stimulusDIAN07_2IFC_2019_Jun_14_1637_1044,True,2019_Jun_14_1637,2IFC,3,DIAN07,
2IFC,72,0,72,0,11.2,-1,correct answer,0.100172999999,True,False,stimulusDIAN07_2IFC_2019_Jun_14_1637_1045,stimulusDIAN07_2IFC_2019_Jun_14_1637_1046,True,2019_Jun_14_1637,2IFC,3,DIAN07,
2IFC,73,0,73,0,9.8,-1,correct answer,0.2327233,True,False,stimulusDIAN07_2IFC_2019_Jun_14_1637_1047,stimulusDIAN07_2IFC_2019_Jun_14_1637_1048,True,2019_Jun_14_1637,2IFC,3,DIAN07,
2IFC,74,0,74,0,11.2,-1,wrong answer,0.500304700001,False,True,stimulusDIAN07_2IFC_2019_Jun_14_1637_1049,stimulusDIAN07_2IFC_2019_Jun_14_1637_1050,True,2019_Jun_14_1637,2IFC,3,DIAN07,
2IFC,0,0,0,0,15.3,-1,correct answer,0.267531899999,True,False,stimulusDIAN07_2IFC_2019_Jun_14_1637_1051,stimulusDIAN07_2IFC_2019_Jun_14_1637_1052,True,2019_Jun_14_1637,2IFC,3,DIAN07,
2IFC,1,0,1,0,8.1,-1,wrong answer,0.200663,True,False,stimulusDIAN07_2IFC_2019_Jun_14_1637_1053,stimulusDIAN07_2IFC_2019_Jun_14_1637_1054,True,2019_Jun_14_1637,2IFC,3,DIAN07,
2IFC,2,0,2,0,13.9,-1,correct answer,0.4022535,False,True,stimulusDIAN07_2IFC_2019_Jun_14_1637_1055,stimulusDIAN07_2IFC_2019_Jun_14_1637_1056,True,2019_Jun_14_1637,2IFC,3,DIAN07,
2IFC,3,0,3,0,11.2,-1,correct answer,0.3339664,True,False,stimulusDIAN07_2IFC_2019_Jun_14_1637_1057,stimulusDIAN07_2IFC_2019_Jun_14_1637_1058,True,2019_Jun_14_1637,2IFC,3,DIAN07,
2IFC,4,0,4,0,15.3,-1,correct answer,0.167087400001,False,True,stimulusDIAN07_2IFC_2019_Jun_14_1637_1059,stimulusDIAN07_2IFC_2019_Jun_14_1637_1060,True,2019_Jun_14_1637,2IFC,3,DIAN07,
2IFC,5,0,5,0,8.1,-1,wrong answer,0.3337219,True,False,stimulusDIAN07_2IFC_2019_Jun_14_1637_1061,stimulusDIAN07_2IFC_2019_Jun_14_1637_1062,True,2019_Jun_14_1637,2IFC,3,DIAN07,
2IFC,6,0,6,0,15.3,-1,correct answer,0.1677358,True,False,stimulusDIAN07_2IFC_2019_Jun_14_1637_1063,stimulusDIAN07_2IFC_2019_Jun_14_1637_1064,True,2019_Jun_14_1637,2IFC,3,DIAN07,
2IFC,7,0,7,0,13.9,-1,correct answer,0.167444000001,False,True,stimulusDIAN07_2IFC_2019_Jun_14_1637_1065,stimulusDIAN07_2IFC_2019_Jun_14_1637_1066,True,2019_Jun_14_1637,2IFC,3,DIAN07,
2IFC,8,0,8,0,11.2,-1,correct answer,0.3340451,False,True,stimulusDIAN07_2IFC_2019_Jun_14_1637_1067,stimulusDIAN07_2IFC_2019_Jun_14_1637_1068,True,2019_Jun_14_1637,2IFC,3,DIAN07,
2IFC,9,0,9,0,12.5,-1,correct answer,0.3004759,False,True,stimulusDIAN07_2IFC_2019_Jun_14_1637_1069,stimulusDIAN07_2IFC_2019_Jun_14_1637_1070,True,2019_Jun_14_1637,2IFC,3,DIAN07,
2IFC,10,0,10,0,11.2,-1,correct answer,0.333938399999,False,True,stimulusDIAN07_2IFC_2019_Jun_14_1637_1071,stimulusDIAN07_2IFC_2019_Jun_14_1637_1072,True,2019_Jun_14_1637,2IFC,3,DIAN07,
2IFC,11,0,11,0,12.5,-1,correct answer,0.3008202,False,True,stimulusDIAN07_2IFC_2019_Jun_14_1637_1073,stimulusDIAN07_2IFC_2019_Jun_14_1637_1074,True,2019_Jun_14_1637,2IFC,3,DIAN07,
2IFC,12,0,12,0,16.9,-1,correct answer,0.2669943,True,False,stimulusDIAN07_2IFC_2019_Jun_14_1637_1075,stimulusDIAN07_2IFC_2019_Jun_14_1637_1076,True,2019_Jun_14_1637,2IFC,3,DIAN07,
2IFC,13,0,13,0,11.2,-1,correct answer,0.367519700001,False,True,stimulusDIAN07_2IFC_2019_Jun_14_1637_1077,stimulusDIAN07_2IFC_2019_Jun_14_1637_1078,True,2019_Jun_14_1637,2IFC,3,DIAN07,
2IFC,14,0,14,0,12.5,-1,correct answer,0.267166900001,True,False,stimulusDIAN07_2IFC_2019_Jun_14_1637_1079,stimulusDIAN07_2IFC_2019_Jun_14_1637_1080,True,2019_Jun_14_1637,2IFC,3,DIAN07,
2IFC,15,0,15,0,16.9,-1,correct answer,0.4333164,False,True,stimulusDIAN07_2IFC_2019_Jun_14_1637_1081,stimulusDIAN07_2IFC_2019_Jun_14_1637_1082,True,2019_Jun_14_1637,2IFC,3,DIAN07,
2IFC,16,0,16,0,13.9,-1,correct answer,0.3671916,False,True,stimulusDIAN07_2IFC_2019_Jun_14_1637_1083,stimulusDIAN07_2IFC_2019_Jun_14_1637_1084,True,2019_Jun_14_1637,2IFC,3,DIAN07,
2IFC,17,0,17,0,11.2,-1,wrong answer,0.333599400001,False,True,stimulusDIAN07_2IFC_2019_Jun_14_1637_1085,stimulusDIAN07_2IFC_2019_Jun_14_1637_1086,True,2019_Jun_14_1637,2IFC,3,DIAN07,
2IFC,18,0,18,0,12.5,-1,correct answer,0.2674283,False,True,stimulusDIAN07_2IFC_2019_Jun_14_1637_1087,stimulusDIAN07_2IFC_2019_Jun_14_1637_1088,True,2019_Jun_14_1637,2IFC,3,DIAN07,
2IFC,19,0,19,0,8.1,-1,correct answer,0.0999026999998,True,False,stimulusDIAN07_2IFC_2019_Jun_14_1637_1089,stimulusDIAN07_2IFC_2019_Jun_14_1637_1090,True,2019_Jun_14_1637,2IFC,3,DIAN07,
2IFC,20,0,20,0,13.9,-1,correct answer,0.3002273,False,True,stimulusDIAN07_2IFC_2019_Jun_14_1637_1091,stimulusDIAN07_2IFC_2019_Jun_14_1637_1092,True,2019_Jun_14_1637,2IFC,3,DIAN07,
2IFC,21,0,21,0,9.8,-1,correct answer,0.3337479,False,True,stimulusDIAN07_2IFC_2019_Jun_14_1637_1093,stimulusDIAN07_2IFC_2019_Jun_14_1637_1094,True,2019_Jun_14_1637,2IFC,3,DIAN07,
2IFC,22,0,22,0,11.2,-1,correct answer,0.2670557,True,False,stimulusDIAN07_2IFC_2019_Jun_14_1637_1095,stimulusDIAN07_2IFC_2019_Jun_14_1637_1096,True,2019_Jun_14_1637,2IFC,3,DIAN07,
2IFC,23,0,23,0,9.8,-1,correct answer,0.434220699999,False,True,stimulusDIAN07_2IFC_2019_Jun_14_1637_1097,stimulusDIAN07_2IFC_2019_Jun_14_1637_1098,True,2019_Jun_14_1637,2IFC,3,DIAN07,
2IFC,24,0,24,0,9.8,-1,correct answer,0.3358496,True,False,stimulusDIAN07_2IFC_2019_Jun_14_1637_1099,stimulusDIAN07_2IFC_2019_Jun_14_1637_1100,True,2019_Jun_14_1637,2IFC,3,DIAN07,
2IFC,25,0,25,0,12.5,-1,correct answer,0.267198000001,False,True,stimulusDIAN07_2IFC_2019_Jun_14_1637_1101,stimulusDIAN07_2IFC_2019_Jun_14_1637_1102,True,2019_Jun_14_1637,2IFC,3,DIAN07,
2IFC,26,0,26,0,13.9,-1,correct answer,0.2669539,True,False,stimulusDIAN07_2IFC_2019_Jun_14_1637_1103,stimulusDIAN07_2IFC_2019_Jun_14_1637_1104,True,2019_Jun_14_1637,2IFC,3,DIAN07,
2IFC,27,0,27,0,8.1,-1,correct answer,0.267387400001,False,True,stimulusDIAN07_2IFC_2019_Jun_14_1637_1105,stimulusDIAN07_2IFC_2019_Jun_14_1637_1106,True,2019_Jun_14_1637,2IFC,3,DIAN07,
