Task,trials.thisRepN,trials.thisTrialN,trials.thisN,trials.thisIndex,signal_intensity,constant Value,response,time_response,signal_on_stimuluspos1,signal_on_stimuluspos2,stimulus_name_pos1,stimulus_name_pos2,random_intensity,date,expName,session,participant,
2IFC,0,0,0,0,8.7,-1,correct answer,0.467002194375,False,True,stimulusJOSU26_2IFC_2019_Jun_13_0846_1,stimulusJOSU26_2IFC_2019_Jun_13_0846_2,False,2019_Jun_13_0846,2IFC,,JOSU26,
2IFC,1,0,1,0,8.7,-1,correct answer,0.468575004023,True,False,stimulusJOSU26_2IFC_2019_Jun_13_0846_3,stimulusJOSU26_2IFC_2019_Jun_13_0846_4,False,2019_Jun_13_0846,2IFC,,JOSU26,
2IFC,2,0,2,0,8.7,-1,correct answer,0.432615503203,False,True,stimulusJOSU26_2IFC_2019_Jun_13_0846_5,stimulusJOSU26_2IFC_2019_Jun_13_0846_6,False,2019_Jun_13_0846,2IFC,,JOSU26,
2IFC,3,0,3,0,8.7,-1,correct answer,0.469981541857,False,True,stimulusJOSU26_2IFC_2019_Jun_13_0846_7,stimulusJOSU26_2IFC_2019_Jun_13_0846_8,False,2019_Jun_13_0846,2IFC,,JOSU26,
2IFC,4,0,4,0,8.7,-1,correct answer,0.399721155874,False,True,stimulusJOSU26_2IFC_2019_Jun_13_0846_9,stimulusJOSU26_2IFC_2019_Jun_13_0846_10,False,2019_Jun_13_0846,2IFC,,JOSU26,
2IFC,5,0,5,0,8.7,-1,correct answer,0.466681145132,False,True,stimulusJOSU26_2IFC_2019_Jun_13_0846_11,stimulusJOSU26_2IFC_2019_Jun_13_0846_12,False,2019_Jun_13_0846,2IFC,,JOSU26,
2IFC,6,0,6,0,8.7,-1,correct answer,0.267261085566,True,False,stimulusJOSU26_2IFC_2019_Jun_13_0846_13,stimulusJOSU26_2IFC_2019_Jun_13_0846_14,False,2019_Jun_13_0846,2IFC,,JOSU26,
2IFC,7,0,7,0,8.7,-1,correct answer,0.43431722559,False,True,stimulusJOSU26_2IFC_2019_Jun_13_0846_15,stimulusJOSU26_2IFC_2019_Jun_13_0846_16,False,2019_Jun_13_0846,2IFC,,JOSU26,
2IFC,8,0,8,0,8.7,-1,correct answer,0.467230048031,True,False,stimulusJOSU26_2IFC_2019_Jun_13_0846_17,stimulusJOSU26_2IFC_2019_Jun_13_0846_18,False,2019_Jun_13_0846,2IFC,,JOSU26,
2IFC,9,0,9,0,8.7,-1,correct answer,0.367047272157,True,False,stimulusJOSU26_2IFC_2019_Jun_13_0846_19,stimulusJOSU26_2IFC_2019_Jun_13_0846_20,False,2019_Jun_13_0846,2IFC,,JOSU26,
2IFC,10,0,10,0,8.7,-1,correct answer,0.296436278149,True,False,stimulusJOSU26_2IFC_2019_Jun_13_0846_21,stimulusJOSU26_2IFC_2019_Jun_13_0846_22,False,2019_Jun_13_0846,2IFC,,JOSU26,
2IFC,11,0,11,0,8.7,-1,correct answer,0.434205146041,False,True,stimulusJOSU26_2IFC_2019_Jun_13_0846_23,stimulusJOSU26_2IFC_2019_Jun_13_0846_24,False,2019_Jun_13_0846,2IFC,,JOSU26,
2IFC,12,0,12,0,8.7,-1,correct answer,0.533964236267,False,True,stimulusJOSU26_2IFC_2019_Jun_13_0846_25,stimulusJOSU26_2IFC_2019_Jun_13_0846_26,False,2019_Jun_13_0846,2IFC,,JOSU26,
2IFC,13,0,13,0,8.7,-1,correct answer,0.437393462751,False,True,stimulusJOSU26_2IFC_2019_Jun_13_0846_27,stimulusJOSU26_2IFC_2019_Jun_13_0846_28,False,2019_Jun_13_0846,2IFC,,JOSU26,
2IFC,14,0,14,0,8.7,-1,correct answer,0.299826584291,True,False,stimulusJOSU26_2IFC_2019_Jun_13_0846_29,stimulusJOSU26_2IFC_2019_Jun_13_0846_30,False,2019_Jun_13_0846,2IFC,,JOSU26,
2IFC,15,0,15,0,8.7,-1,correct answer,0.298300987575,True,False,stimulusJOSU26_2IFC_2019_Jun_13_0846_31,stimulusJOSU26_2IFC_2019_Jun_13_0846_32,False,2019_Jun_13_0846,2IFC,,JOSU26,
2IFC,16,0,16,0,8.7,-1,correct answer,0.443504882511,False,True,stimulusJOSU26_2IFC_2019_Jun_13_0846_33,stimulusJOSU26_2IFC_2019_Jun_13_0846_34,False,2019_Jun_13_0846,2IFC,,JOSU26,
2IFC,17,0,17,0,8.7,-1,correct answer,0.16773847118,True,False,stimulusJOSU26_2IFC_2019_Jun_13_0846_35,stimulusJOSU26_2IFC_2019_Jun_13_0846_36,False,2019_Jun_13_0846,2IFC,,JOSU26,
2IFC,18,0,18,0,8.7,-1,correct answer,0.267844474409,True,False,stimulusJOSU26_2IFC_2019_Jun_13_0846_37,stimulusJOSU26_2IFC_2019_Jun_13_0846_38,False,2019_Jun_13_0846,2IFC,,JOSU26,
2IFC,19,0,19,0,8.7,-1,correct answer,0.637417438906,True,False,stimulusJOSU26_2IFC_2019_Jun_13_0846_39,stimulusJOSU26_2IFC_2019_Jun_13_0846_40,False,2019_Jun_13_0846,2IFC,,JOSU26,
2IFC,20,0,20,0,8.7,-1,correct answer,0.301146496553,False,True,stimulusJOSU26_2IFC_2019_Jun_13_0846_41,stimulusJOSU26_2IFC_2019_Jun_13_0846_42,False,2019_Jun_13_0846,2IFC,,JOSU26,
2IFC,21,0,21,0,8.7,-1,correct answer,0.434881729074,False,True,stimulusJOSU26_2IFC_2019_Jun_13_0846_43,stimulusJOSU26_2IFC_2019_Jun_13_0846_44,False,2019_Jun_13_0846,2IFC,,JOSU26,
2IFC,22,0,22,0,8.7,-1,wrong answer,0.472655852325,False,True,stimulusJOSU26_2IFC_2019_Jun_13_0846_45,stimulusJOSU26_2IFC_2019_Jun_13_0846_46,False,2019_Jun_13_0846,2IFC,,JOSU26,
2IFC,23,0,23,0,8.7,-1,correct answer,0.500381399412,False,True,stimulusJOSU26_2IFC_2019_Jun_13_0846_47,stimulusJOSU26_2IFC_2019_Jun_13_0846_48,False,2019_Jun_13_0846,2IFC,,JOSU26,
2IFC,24,0,24,0,8.7,-1,correct answer,0.401947968639,True,False,stimulusJOSU26_2IFC_2019_Jun_13_0846_49,stimulusJOSU26_2IFC_2019_Jun_13_0846_50,False,2019_Jun_13_0846,2IFC,,JOSU26,
2IFC,25,0,25,0,8.7,-1,correct answer,0.464862006716,True,False,stimulusJOSU26_2IFC_2019_Jun_13_0846_51,stimulusJOSU26_2IFC_2019_Jun_13_0846_52,False,2019_Jun_13_0846,2IFC,,JOSU26,
2IFC,26,0,26,0,8.7,-1,correct answer,0.568898597732,False,True,stimulusJOSU26_2IFC_2019_Jun_13_0846_53,stimulusJOSU26_2IFC_2019_Jun_13_0846_54,False,2019_Jun_13_0846,2IFC,,JOSU26,
2IFC,27,0,27,0,8.7,-1,correct answer,0.434342268854,False,True,stimulusJOSU26_2IFC_2019_Jun_13_0846_55,stimulusJOSU26_2IFC_2019_Jun_13_0846_56,False,2019_Jun_13_0846,2IFC,,JOSU26,
2IFC,28,0,28,0,8.7,-1,correct answer,0.36685061967,True,False,stimulusJOSU26_2IFC_2019_Jun_13_0846_57,stimulusJOSU26_2IFC_2019_Jun_13_0846_58,False,2019_Jun_13_0846,2IFC,,JOSU26,
2IFC,29,0,29,0,8.7,-1,correct answer,0.471052662004,False,True,stimulusJOSU26_2IFC_2019_Jun_13_0846_59,stimulusJOSU26_2IFC_2019_Jun_13_0846_60,False,2019_Jun_13_0846,2IFC,,JOSU26,
2IFC,30,0,30,0,8.7,-1,correct answer,0.533311875537,False,True,stimulusJOSU26_2IFC_2019_Jun_13_0846_61,stimulusJOSU26_2IFC_2019_Jun_13_0846_62,False,2019_Jun_13_0846,2IFC,,JOSU26,
2IFC,31,0,31,0,8.7,-1,correct answer,0.300922337454,True,False,stimulusJOSU26_2IFC_2019_Jun_13_0846_63,stimulusJOSU26_2IFC_2019_Jun_13_0846_64,False,2019_Jun_13_0846,2IFC,,JOSU26,
2IFC,32,0,32,0,8.7,-1,correct answer,0.468438291457,True,False,stimulusJOSU26_2IFC_2019_Jun_13_0846_65,stimulusJOSU26_2IFC_2019_Jun_13_0846_66,False,2019_Jun_13_0846,2IFC,,JOSU26,
2IFC,33,0,33,0,8.7,-1,correct answer,0.468405447435,False,True,stimulusJOSU26_2IFC_2019_Jun_13_0846_67,stimulusJOSU26_2IFC_2019_Jun_13_0846_68,False,2019_Jun_13_0846,2IFC,,JOSU26,
2IFC,34,0,34,0,8.7,-1,correct answer,0.701316792052,False,True,stimulusJOSU26_2IFC_2019_Jun_13_0846_69,stimulusJOSU26_2IFC_2019_Jun_13_0846_70,False,2019_Jun_13_0846,2IFC,,JOSU26,
2IFC,35,0,35,0,8.7,-1,correct answer,0.501352345571,True,False,stimulusJOSU26_2IFC_2019_Jun_13_0846_71,stimulusJOSU26_2IFC_2019_Jun_13_0846_72,False,2019_Jun_13_0846,2IFC,,JOSU26,
2IFC,36,0,36,0,8.7,-1,correct answer,0.435327995103,True,False,stimulusJOSU26_2IFC_2019_Jun_13_0846_73,stimulusJOSU26_2IFC_2019_Jun_13_0846_74,False,2019_Jun_13_0846,2IFC,,JOSU26,
2IFC,37,0,37,0,8.7,-1,correct answer,0.32994850073,True,False,stimulusJOSU26_2IFC_2019_Jun_13_0846_75,stimulusJOSU26_2IFC_2019_Jun_13_0846_76,False,2019_Jun_13_0846,2IFC,,JOSU26,
2IFC,38,0,38,0,8.7,-1,correct answer,0.334060550667,True,False,stimulusJOSU26_2IFC_2019_Jun_13_0846_77,stimulusJOSU26_2IFC_2019_Jun_13_0846_78,False,2019_Jun_13_0846,2IFC,,JOSU26,
2IFC,39,0,39,0,8.7,-1,correct answer,0.435886340681,True,False,stimulusJOSU26_2IFC_2019_Jun_13_0846_79,stimulusJOSU26_2IFC_2019_Jun_13_0846_80,False,2019_Jun_13_0846,2IFC,,JOSU26,
2IFC,40,0,40,0,8.7,-1,correct answer,0.367553888354,True,False,stimulusJOSU26_2IFC_2019_Jun_13_0846_81,stimulusJOSU26_2IFC_2019_Jun_13_0846_82,False,2019_Jun_13_0846,2IFC,,JOSU26,
2IFC,41,0,41,0,8.7,-1,correct answer,0.400312755257,True,False,stimulusJOSU26_2IFC_2019_Jun_13_0846_83,stimulusJOSU26_2IFC_2019_Jun_13_0846_84,False,2019_Jun_13_0846,2IFC,,JOSU26,
2IFC,42,0,42,0,8.7,-1,correct answer,0.407248966396,True,False,stimulusJOSU26_2IFC_2019_Jun_13_0846_85,stimulusJOSU26_2IFC_2019_Jun_13_0846_86,False,2019_Jun_13_0846,2IFC,,JOSU26,
2IFC,43,0,43,0,8.7,-1,correct answer,0.532628312707,False,True,stimulusJOSU26_2IFC_2019_Jun_13_0846_87,stimulusJOSU26_2IFC_2019_Jun_13_0846_88,False,2019_Jun_13_0846,2IFC,,JOSU26,
2IFC,44,0,44,0,8.7,-1,correct answer,0.403314272873,True,False,stimulusJOSU26_2IFC_2019_Jun_13_0846_89,stimulusJOSU26_2IFC_2019_Jun_13_0846_90,False,2019_Jun_13_0846,2IFC,,JOSU26,
2IFC,45,0,45,0,8.7,-1,correct answer,0.398875016253,True,False,stimulusJOSU26_2IFC_2019_Jun_13_0846_91,stimulusJOSU26_2IFC_2019_Jun_13_0846_92,False,2019_Jun_13_0846,2IFC,,JOSU26,
2IFC,46,0,46,0,8.7,-1,correct answer,0.500845729373,True,False,stimulusJOSU26_2IFC_2019_Jun_13_0846_93,stimulusJOSU26_2IFC_2019_Jun_13_0846_94,False,2019_Jun_13_0846,2IFC,,JOSU26,
2IFC,47,0,47,0,8.7,-1,correct answer,0.369151741732,True,False,stimulusJOSU26_2IFC_2019_Jun_13_0846_95,stimulusJOSU26_2IFC_2019_Jun_13_0846_96,False,2019_Jun_13_0846,2IFC,,JOSU26,
2IFC,48,0,48,0,8.7,-1,correct answer,0.532455882523,False,True,stimulusJOSU26_2IFC_2019_Jun_13_0846_97,stimulusJOSU26_2IFC_2019_Jun_13_0846_98,False,2019_Jun_13_0846,2IFC,,JOSU26,
2IFC,49,0,49,0,8.7,-1,correct answer,0.435008588713,True,False,stimulusJOSU26_2IFC_2019_Jun_13_0846_99,stimulusJOSU26_2IFC_2019_Jun_13_0846_100,False,2019_Jun_13_0846,2IFC,,JOSU26,
2IFC,50,0,50,0,8.7,-1,correct answer,0.466884366702,False,True,stimulusJOSU26_2IFC_2019_Jun_13_0846_101,stimulusJOSU26_2IFC_2019_Jun_13_0846_102,False,2019_Jun_13_0846,2IFC,,JOSU26,
2IFC,51,0,51,0,8.7,-1,correct answer,0.168114122469,True,False,stimulusJOSU26_2IFC_2019_Jun_13_0846_103,stimulusJOSU26_2IFC_2019_Jun_13_0846_104,False,2019_Jun_13_0846,2IFC,,JOSU26,
2IFC,52,0,52,0,8.7,-1,correct answer,0.50358162215,False,True,stimulusJOSU26_2IFC_2019_Jun_13_0846_105,stimulusJOSU26_2IFC_2019_Jun_13_0846_106,False,2019_Jun_13_0846,2IFC,,JOSU26,
2IFC,53,0,53,0,8.7,-1,correct answer,0.666714153718,False,True,stimulusJOSU26_2IFC_2019_Jun_13_0846_107,stimulusJOSU26_2IFC_2019_Jun_13_0846_108,False,2019_Jun_13_0846,2IFC,,JOSU26,
2IFC,54,0,54,0,8.7,-1,correct answer,0.435499194078,False,True,stimulusJOSU26_2IFC_2019_Jun_13_0846_109,stimulusJOSU26_2IFC_2019_Jun_13_0846_110,False,2019_Jun_13_0846,2IFC,,JOSU26,
2IFC,55,0,55,0,8.7,-1,correct answer,0.635087578092,False,True,stimulusJOSU26_2IFC_2019_Jun_13_0846_111,stimulusJOSU26_2IFC_2019_Jun_13_0846_112,False,2019_Jun_13_0846,2IFC,,JOSU26,
2IFC,56,0,56,0,8.7,-1,correct answer,0.501787526533,False,True,stimulusJOSU26_2IFC_2019_Jun_13_0846_113,stimulusJOSU26_2IFC_2019_Jun_13_0846_114,False,2019_Jun_13_0846,2IFC,,JOSU26,
2IFC,57,0,57,0,8.7,-1,correct answer,0.534434724133,False,True,stimulusJOSU26_2IFC_2019_Jun_13_0846_115,stimulusJOSU26_2IFC_2019_Jun_13_0846_116,False,2019_Jun_13_0846,2IFC,,JOSU26,
2IFC,58,0,58,0,8.7,-1,correct answer,0.333585957531,True,False,stimulusJOSU26_2IFC_2019_Jun_13_0846_117,stimulusJOSU26_2IFC_2019_Jun_13_0846_118,False,2019_Jun_13_0846,2IFC,,JOSU26,
2IFC,59,0,59,0,8.7,-1,correct answer,0.433754364494,True,False,stimulusJOSU26_2IFC_2019_Jun_13_0846_119,stimulusJOSU26_2IFC_2019_Jun_13_0846_120,False,2019_Jun_13_0846,2IFC,,JOSU26,
2IFC,60,0,60,0,8.7,-1,correct answer,0.300674777012,True,False,stimulusJOSU26_2IFC_2019_Jun_13_0846_121,stimulusJOSU26_2IFC_2019_Jun_13_0846_122,False,2019_Jun_13_0846,2IFC,,JOSU26,
2IFC,61,0,61,0,8.7,-1,correct answer,0.401755421888,True,False,stimulusJOSU26_2IFC_2019_Jun_13_0846_123,stimulusJOSU26_2IFC_2019_Jun_13_0846_124,False,2019_Jun_13_0846,2IFC,,JOSU26,
2IFC,62,0,62,0,8.7,-1,correct answer,0.335258530453,True,False,stimulusJOSU26_2IFC_2019_Jun_13_0846_125,stimulusJOSU26_2IFC_2019_Jun_13_0846_126,False,2019_Jun_13_0846,2IFC,,JOSU26,
2IFC,63,0,63,0,8.7,-1,correct answer,0.571027700324,False,True,stimulusJOSU26_2IFC_2019_Jun_13_0846_127,stimulusJOSU26_2IFC_2019_Jun_13_0846_128,False,2019_Jun_13_0846,2IFC,,JOSU26,
2IFC,64,0,64,0,8.7,-1,correct answer,0.501680373214,False,True,stimulusJOSU26_2IFC_2019_Jun_13_0846_129,stimulusJOSU26_2IFC_2019_Jun_13_0846_130,False,2019_Jun_13_0846,2IFC,,JOSU26,
2IFC,65,0,65,0,8.7,-1,correct answer,0.333442675881,True,False,stimulusJOSU26_2IFC_2019_Jun_13_0846_131,stimulusJOSU26_2IFC_2019_Jun_13_0846_132,False,2019_Jun_13_0846,2IFC,,JOSU26,
2IFC,66,0,66,0,8.7,-1,wrong answer,0.535425787792,False,True,stimulusJOSU26_2IFC_2019_Jun_13_0846_133,stimulusJOSU26_2IFC_2019_Jun_13_0846_134,False,2019_Jun_13_0846,2IFC,,JOSU26,
2IFC,67,0,67,0,8.7,-1,wrong answer,0.501110532787,False,True,stimulusJOSU26_2IFC_2019_Jun_13_0846_135,stimulusJOSU26_2IFC_2019_Jun_13_0846_136,False,2019_Jun_13_0846,2IFC,,JOSU26,
2IFC,68,0,68,0,8.7,-1,correct answer,0.534288979601,False,True,stimulusJOSU26_2IFC_2019_Jun_13_0846_137,stimulusJOSU26_2IFC_2019_Jun_13_0846_138,False,2019_Jun_13_0846,2IFC,,JOSU26,
2IFC,69,0,69,0,8.7,-1,correct answer,0.801980320364,False,True,stimulusJOSU26_2IFC_2019_Jun_13_0846_139,stimulusJOSU26_2IFC_2019_Jun_13_0846_140,False,2019_Jun_13_0846,2IFC,,JOSU26,
2IFC,70,0,70,0,8.7,-1,correct answer,0.597719897982,False,True,stimulusJOSU26_2IFC_2019_Jun_13_0846_141,stimulusJOSU26_2IFC_2019_Jun_13_0846_142,False,2019_Jun_13_0846,2IFC,,JOSU26,
2IFC,71,0,71,0,8.7,-1,correct answer,0.533159561921,False,True,stimulusJOSU26_2IFC_2019_Jun_13_0846_143,stimulusJOSU26_2IFC_2019_Jun_13_0846_144,False,2019_Jun_13_0846,2IFC,,JOSU26,
2IFC,72,0,72,0,8.7,-1,correct answer,0.49006227171,False,True,stimulusJOSU26_2IFC_2019_Jun_13_0846_145,stimulusJOSU26_2IFC_2019_Jun_13_0846_146,False,2019_Jun_13_0846,2IFC,,JOSU26,
2IFC,73,0,73,0,8.7,-1,correct answer,0.566583517008,False,True,stimulusJOSU26_2IFC_2019_Jun_13_0846_147,stimulusJOSU26_2IFC_2019_Jun_13_0846_148,False,2019_Jun_13_0846,2IFC,,JOSU26,
2IFC,74,0,74,0,8.7,-1,correct answer,0.56961787818,True,False,stimulusJOSU26_2IFC_2019_Jun_13_0846_149,stimulusJOSU26_2IFC_2019_Jun_13_0846_150,False,2019_Jun_13_0846,2IFC,,JOSU26,
2IFC,0,0,0,0,7.6,-1,correct answer,0.733552210499,True,False,stimulusJOSU26_2IFC_2019_Jun_13_0846_151,stimulusJOSU26_2IFC_2019_Jun_13_0846_152,False,2019_Jun_13_0846,2IFC,,JOSU26,
2IFC,1,0,1,0,7.6,-1,correct answer,0.53420522809,True,False,stimulusJOSU26_2IFC_2019_Jun_13_0846_153,stimulusJOSU26_2IFC_2019_Jun_13_0846_154,False,2019_Jun_13_0846,2IFC,,JOSU26,
2IFC,2,0,2,0,7.6,-1,correct answer,0.600198787637,True,False,stimulusJOSU26_2IFC_2019_Jun_13_0846_155,stimulusJOSU26_2IFC_2019_Jun_13_0846_156,False,2019_Jun_13_0846,2IFC,,JOSU26,
2IFC,3,0,3,0,7.6,-1,correct answer,0.53366494691,True,False,stimulusJOSU26_2IFC_2019_Jun_13_0846_157,stimulusJOSU26_2IFC_2019_Jun_13_0846_158,False,2019_Jun_13_0846,2IFC,,JOSU26,
2IFC,4,0,4,0,7.6,-1,correct answer,0.803872125689,False,True,stimulusJOSU26_2IFC_2019_Jun_13_0846_159,stimulusJOSU26_2IFC_2019_Jun_13_0846_160,False,2019_Jun_13_0846,2IFC,,JOSU26,
2IFC,5,0,5,0,7.6,-1,correct answer,0.46731626289,False,True,stimulusJOSU26_2IFC_2019_Jun_13_0846_161,stimulusJOSU26_2IFC_2019_Jun_13_0846_162,False,2019_Jun_13_0846,2IFC,,JOSU26,
2IFC,6,0,6,0,7.6,-1,correct answer,0.467760886997,True,False,stimulusJOSU26_2IFC_2019_Jun_13_0846_163,stimulusJOSU26_2IFC_2019_Jun_13_0846_164,False,2019_Jun_13_0846,2IFC,,JOSU26,
2IFC,7,0,7,0,7.6,-1,correct answer,0.3689386677,True,False,stimulusJOSU26_2IFC_2019_Jun_13_0846_165,stimulusJOSU26_2IFC_2019_Jun_13_0846_166,False,2019_Jun_13_0846,2IFC,,JOSU26,
2IFC,8,0,8,0,7.6,-1,correct answer,0.367981269024,True,False,stimulusJOSU26_2IFC_2019_Jun_13_0846_167,stimulusJOSU26_2IFC_2019_Jun_13_0846_168,False,2019_Jun_13_0846,2IFC,,JOSU26,
2IFC,9,0,9,0,7.6,-1,correct answer,0.499534027651,False,True,stimulusJOSU26_2IFC_2019_Jun_13_0846_169,stimulusJOSU26_2IFC_2019_Jun_13_0846_170,False,2019_Jun_13_0846,2IFC,,JOSU26,
2IFC,10,0,10,0,7.6,-1,correct answer,0.471860620659,False,True,stimulusJOSU26_2IFC_2019_Jun_13_0846_171,stimulusJOSU26_2IFC_2019_Jun_13_0846_172,False,2019_Jun_13_0846,2IFC,,JOSU26,
2IFC,11,0,11,0,7.6,-1,correct answer,0.497695593629,True,False,stimulusJOSU26_2IFC_2019_Jun_13_0846_173,stimulusJOSU26_2IFC_2019_Jun_13_0846_174,False,2019_Jun_13_0846,2IFC,,JOSU26,
2IFC,12,0,12,0,7.6,-1,correct answer,0.533764299471,False,True,stimulusJOSU26_2IFC_2019_Jun_13_0846_175,stimulusJOSU26_2IFC_2019_Jun_13_0846_176,False,2019_Jun_13_0846,2IFC,,JOSU26,
2IFC,13,0,13,0,7.6,-1,correct answer,0.30105905002,True,False,stimulusJOSU26_2IFC_2019_Jun_13_0846_177,stimulusJOSU26_2IFC_2019_Jun_13_0846_178,False,2019_Jun_13_0846,2IFC,,JOSU26,
2IFC,14,0,14,0,7.6,-1,correct answer,0.468623448629,False,True,stimulusJOSU26_2IFC_2019_Jun_13_0846_179,stimulusJOSU26_2IFC_2019_Jun_13_0846_180,False,2019_Jun_13_0846,2IFC,,JOSU26,
2IFC,15,0,15,0,7.6,-1,correct answer,0.334449340124,True,False,stimulusJOSU26_2IFC_2019_Jun_13_0846_181,stimulusJOSU26_2IFC_2019_Jun_13_0846_182,False,2019_Jun_13_0846,2IFC,,JOSU26,
2IFC,16,0,16,0,7.6,-1,correct answer,0.30104960734,True,False,stimulusJOSU26_2IFC_2019_Jun_13_0846_183,stimulusJOSU26_2IFC_2019_Jun_13_0846_184,False,2019_Jun_13_0846,2IFC,,JOSU26,
2IFC,17,0,17,0,7.6,-1,correct answer,0.334486289416,True,False,stimulusJOSU26_2IFC_2019_Jun_13_0846_185,stimulusJOSU26_2IFC_2019_Jun_13_0846_186,False,2019_Jun_13_0846,2IFC,,JOSU26,
2IFC,18,0,18,0,7.6,-1,correct answer,0.667467098683,False,True,stimulusJOSU26_2IFC_2019_Jun_13_0846_187,stimulusJOSU26_2IFC_2019_Jun_13_0846_188,False,2019_Jun_13_0846,2IFC,,JOSU26,
2IFC,19,0,19,0,7.6,-1,correct answer,0.676653523929,True,False,stimulusJOSU26_2IFC_2019_Jun_13_0846_189,stimulusJOSU26_2IFC_2019_Jun_13_0846_190,False,2019_Jun_13_0846,2IFC,,JOSU26,
2IFC,20,0,20,0,7.6,-1,correct answer,0.60056130169,False,True,stimulusJOSU26_2IFC_2019_Jun_13_0846_191,stimulusJOSU26_2IFC_2019_Jun_13_0846_192,False,2019_Jun_13_0846,2IFC,,JOSU26,
2IFC,21,0,21,0,7.6,-1,correct answer,0.303216069937,True,False,stimulusJOSU26_2IFC_2019_Jun_13_0846_193,stimulusJOSU26_2IFC_2019_Jun_13_0846_194,False,2019_Jun_13_0846,2IFC,,JOSU26,
2IFC,22,0,22,0,7.6,-1,correct answer,0.600837600417,False,True,stimulusJOSU26_2IFC_2019_Jun_13_0846_195,stimulusJOSU26_2IFC_2019_Jun_13_0846_196,False,2019_Jun_13_0846,2IFC,,JOSU26,
2IFC,23,0,23,0,7.6,-1,correct answer,0.472511339467,False,True,stimulusJOSU26_2IFC_2019_Jun_13_0846_197,stimulusJOSU26_2IFC_2019_Jun_13_0846_198,False,2019_Jun_13_0846,2IFC,,JOSU26,
2IFC,24,0,24,0,7.6,-1,correct answer,0.407277704217,True,False,stimulusJOSU26_2IFC_2019_Jun_13_0846_199,stimulusJOSU26_2IFC_2019_Jun_13_0846_200,False,2019_Jun_13_0846,2IFC,,JOSU26,
2IFC,25,0,25,0,7.6,-1,correct answer,0.566963274032,False,True,stimulusJOSU26_2IFC_2019_Jun_13_0846_201,stimulusJOSU26_2IFC_2019_Jun_13_0846_202,False,2019_Jun_13_0846,2IFC,,JOSU26,
2IFC,26,0,26,0,7.6,-1,correct answer,0.269420158584,True,False,stimulusJOSU26_2IFC_2019_Jun_13_0846_203,stimulusJOSU26_2IFC_2019_Jun_13_0846_204,False,2019_Jun_13_0846,2IFC,,JOSU26,
2IFC,27,0,27,0,7.6,-1,correct answer,0.533458851278,False,True,stimulusJOSU26_2IFC_2019_Jun_13_0846_205,stimulusJOSU26_2IFC_2019_Jun_13_0846_206,False,2019_Jun_13_0846,2IFC,,JOSU26,
2IFC,28,0,28,0,7.6,-1,correct answer,0.535622029565,False,True,stimulusJOSU26_2IFC_2019_Jun_13_0846_207,stimulusJOSU26_2IFC_2019_Jun_13_0846_208,False,2019_Jun_13_0846,2IFC,,JOSU26,
2IFC,29,0,29,0,7.6,-1,correct answer,0.467205004767,True,False,stimulusJOSU26_2IFC_2019_Jun_13_0846_209,stimulusJOSU26_2IFC_2019_Jun_13_0846_210,False,2019_Jun_13_0846,2IFC,,JOSU26,
2IFC,30,0,30,0,7.6,-1,correct answer,0.667808264028,False,True,stimulusJOSU26_2IFC_2019_Jun_13_0846_211,stimulusJOSU26_2IFC_2019_Jun_13_0846_212,False,2019_Jun_13_0846,2IFC,,JOSU26,
2IFC,31,0,31,0,7.6,-1,correct answer,0.700343382545,True,False,stimulusJOSU26_2IFC_2019_Jun_13_0846_213,stimulusJOSU26_2IFC_2019_Jun_13_0846_214,False,2019_Jun_13_0846,2IFC,,JOSU26,
2IFC,32,0,32,0,7.6,-1,correct answer,0.434124678373,True,False,stimulusJOSU26_2IFC_2019_Jun_13_0846_215,stimulusJOSU26_2IFC_2019_Jun_13_0846_216,False,2019_Jun_13_0846,2IFC,,JOSU26,
2IFC,33,0,33,0,7.6,-1,correct answer,0.667203937192,False,True,stimulusJOSU26_2IFC_2019_Jun_13_0846_217,stimulusJOSU26_2IFC_2019_Jun_13_0846_218,False,2019_Jun_13_0846,2IFC,,JOSU26,
2IFC,34,0,34,0,7.6,-1,correct answer,0.667609148193,True,False,stimulusJOSU26_2IFC_2019_Jun_13_0846_219,stimulusJOSU26_2IFC_2019_Jun_13_0846_220,False,2019_Jun_13_0846,2IFC,,JOSU26,
2IFC,35,0,35,0,7.6,-1,correct answer,0.503057762515,True,False,stimulusJOSU26_2IFC_2019_Jun_13_0846_221,stimulusJOSU26_2IFC_2019_Jun_13_0846_222,False,2019_Jun_13_0846,2IFC,,JOSU26,
2IFC,36,0,36,0,7.6,-1,correct answer,0.602080740035,False,True,stimulusJOSU26_2IFC_2019_Jun_13_0846_223,stimulusJOSU26_2IFC_2019_Jun_13_0846_224,False,2019_Jun_13_0846,2IFC,,JOSU26,
2IFC,37,0,37,0,7.6,-1,correct answer,0.434004387818,True,False,stimulusJOSU26_2IFC_2019_Jun_13_0846_225,stimulusJOSU26_2IFC_2019_Jun_13_0846_226,False,2019_Jun_13_0846,2IFC,,JOSU26,
2IFC,38,0,38,0,7.6,-1,correct answer,0.438720764592,True,False,stimulusJOSU26_2IFC_2019_Jun_13_0846_227,stimulusJOSU26_2IFC_2019_Jun_13_0846_228,False,2019_Jun_13_0846,2IFC,,JOSU26,
2IFC,39,0,39,0,7.6,-1,correct answer,0.631364727393,False,True,stimulusJOSU26_2IFC_2019_Jun_13_0846_229,stimulusJOSU26_2IFC_2019_Jun_13_0846_230,False,2019_Jun_13_0846,2IFC,,JOSU26,
2IFC,40,0,40,0,7.6,-1,correct answer,0.436961566098,False,True,stimulusJOSU26_2IFC_2019_Jun_13_0846_231,stimulusJOSU26_2IFC_2019_Jun_13_0846_232,False,2019_Jun_13_0846,2IFC,,JOSU26,
2IFC,41,0,41,0,7.6,-1,correct answer,0.498342206702,False,True,stimulusJOSU26_2IFC_2019_Jun_13_0846_233,stimulusJOSU26_2IFC_2019_Jun_13_0846_234,False,2019_Jun_13_0846,2IFC,,JOSU26,
2IFC,42,0,42,0,7.6,-1,correct answer,0.372360996436,True,False,stimulusJOSU26_2IFC_2019_Jun_13_0846_235,stimulusJOSU26_2IFC_2019_Jun_13_0846_236,False,2019_Jun_13_0846,2IFC,,JOSU26,
2IFC,43,0,43,0,7.6,-1,correct answer,0.334984695073,True,False,stimulusJOSU26_2IFC_2019_Jun_13_0846_237,stimulusJOSU26_2IFC_2019_Jun_13_0846_238,False,2019_Jun_13_0846,2IFC,,JOSU26,
2IFC,44,0,44,0,7.6,-1,correct answer,0.399082753342,True,False,stimulusJOSU26_2IFC_2019_Jun_13_0846_239,stimulusJOSU26_2IFC_2019_Jun_13_0846_240,False,2019_Jun_13_0846,2IFC,,JOSU26,
2IFC,45,0,45,0,7.6,-1,correct answer,0.501435276121,False,True,stimulusJOSU26_2IFC_2019_Jun_13_0846_241,stimulusJOSU26_2IFC_2019_Jun_13_0846_242,False,2019_Jun_13_0846,2IFC,,JOSU26,
2IFC,46,0,46,0,7.6,-1,correct answer,0.299562191591,True,False,stimulusJOSU26_2IFC_2019_Jun_13_0846_243,stimulusJOSU26_2IFC_2019_Jun_13_0846_244,False,2019_Jun_13_0846,2IFC,,JOSU26,
2IFC,47,0,47,0,7.6,-1,correct answer,0.500112080015,False,True,stimulusJOSU26_2IFC_2019_Jun_13_0846_245,stimulusJOSU26_2IFC_2019_Jun_13_0846_246,False,2019_Jun_13_0846,2IFC,,JOSU26,
2IFC,48,0,48,0,7.6,-1,correct answer,0.400584948715,True,False,stimulusJOSU26_2IFC_2019_Jun_13_0846_247,stimulusJOSU26_2IFC_2019_Jun_13_0846_248,False,2019_Jun_13_0846,2IFC,,JOSU26,
2IFC,49,0,49,0,7.6,-1,correct answer,0.59975211136,False,True,stimulusJOSU26_2IFC_2019_Jun_13_0846_249,stimulusJOSU26_2IFC_2019_Jun_13_0846_250,False,2019_Jun_13_0846,2IFC,,JOSU26,
2IFC,50,0,50,0,7.6,-1,correct answer,0.569422046654,True,False,stimulusJOSU26_2IFC_2019_Jun_13_0846_251,stimulusJOSU26_2IFC_2019_Jun_13_0846_252,False,2019_Jun_13_0846,2IFC,,JOSU26,
2IFC,51,0,51,0,7.6,-1,correct answer,0.2658767174,True,False,stimulusJOSU26_2IFC_2019_Jun_13_0846_253,stimulusJOSU26_2IFC_2019_Jun_13_0846_254,False,2019_Jun_13_0846,2IFC,,JOSU26,
2IFC,52,0,52,0,7.6,-1,correct answer,0.435633443296,True,False,stimulusJOSU26_2IFC_2019_Jun_13_0846_255,stimulusJOSU26_2IFC_2019_Jun_13_0846_256,False,2019_Jun_13_0846,2IFC,,JOSU26,
2IFC,53,0,53,0,7.6,-1,correct answer,0.334314680193,True,False,stimulusJOSU26_2IFC_2019_Jun_13_0846_257,stimulusJOSU26_2IFC_2019_Jun_13_0846_258,False,2019_Jun_13_0846,2IFC,,JOSU26,
2IFC,54,0,54,0,7.6,-1,no answer,-1,True,False,stimulusJOSU26_2IFC_2019_Jun_13_0846_259,stimulusJOSU26_2IFC_2019_Jun_13_0846_260,False,2019_Jun_13_0846,2IFC,,JOSU26,
2IFC,55,0,55,0,7.6,-1,correct answer,0.667351734359,False,True,stimulusJOSU26_2IFC_2019_Jun_13_0846_261,stimulusJOSU26_2IFC_2019_Jun_13_0846_262,False,2019_Jun_13_0846,2IFC,,JOSU26,
2IFC,56,0,56,0,7.6,-1,correct answer,0.40134117892,True,False,stimulusJOSU26_2IFC_2019_Jun_13_0846_263,stimulusJOSU26_2IFC_2019_Jun_13_0846_264,False,2019_Jun_13_0846,2IFC,,JOSU26,
2IFC,57,0,57,0,7.6,-1,correct answer,0.603816126939,False,True,stimulusJOSU26_2IFC_2019_Jun_13_0846_265,stimulusJOSU26_2IFC_2019_Jun_13_0846_266,False,2019_Jun_13_0846,2IFC,,JOSU26,
2IFC,58,0,58,0,7.6,-1,correct answer,0.467655786313,True,False,stimulusJOSU26_2IFC_2019_Jun_13_0846_267,stimulusJOSU26_2IFC_2019_Jun_13_0846_268,False,2019_Jun_13_0846,2IFC,,JOSU26,
2IFC,59,0,59,0,7.6,-1,correct answer,0.605465298984,False,True,stimulusJOSU26_2IFC_2019_Jun_13_0846_269,stimulusJOSU26_2IFC_2019_Jun_13_0846_270,False,2019_Jun_13_0846,2IFC,,JOSU26,
2IFC,60,0,60,0,7.6,-1,correct answer,0.230494037271,True,False,stimulusJOSU26_2IFC_2019_Jun_13_0846_271,stimulusJOSU26_2IFC_2019_Jun_13_0846_272,False,2019_Jun_13_0846,2IFC,,JOSU26,
2IFC,61,0,61,0,7.6,-1,correct answer,0.134733275045,True,False,stimulusJOSU26_2IFC_2019_Jun_13_0846_273,stimulusJOSU26_2IFC_2019_Jun_13_0846_274,False,2019_Jun_13_0846,2IFC,,JOSU26,
2IFC,62,0,62,0,7.6,-1,wrong answer,0.603047991637,False,True,stimulusJOSU26_2IFC_2019_Jun_13_0846_275,stimulusJOSU26_2IFC_2019_Jun_13_0846_276,False,2019_Jun_13_0846,2IFC,,JOSU26,
2IFC,63,0,63,0,7.6,-1,correct answer,0.500234423205,False,True,stimulusJOSU26_2IFC_2019_Jun_13_0846_277,stimulusJOSU26_2IFC_2019_Jun_13_0846_278,False,2019_Jun_13_0846,2IFC,,JOSU26,
2IFC,64,0,64,0,7.6,-1,correct answer,0.434717099648,True,False,stimulusJOSU26_2IFC_2019_Jun_13_0846_279,stimulusJOSU26_2IFC_2019_Jun_13_0846_280,False,2019_Jun_13_0846,2IFC,,JOSU26,
2IFC,65,0,65,0,7.6,-1,correct answer,0.766375122592,True,False,stimulusJOSU26_2IFC_2019_Jun_13_0846_281,stimulusJOSU26_2IFC_2019_Jun_13_0846_282,False,2019_Jun_13_0846,2IFC,,JOSU26,
2IFC,66,0,66,0,7.6,-1,correct answer,0.535514055751,False,True,stimulusJOSU26_2IFC_2019_Jun_13_0846_283,stimulusJOSU26_2IFC_2019_Jun_13_0846_284,False,2019_Jun_13_0846,2IFC,,JOSU26,
2IFC,67,0,67,0,7.6,-1,correct answer,0.66664230777,False,True,stimulusJOSU26_2IFC_2019_Jun_13_0846_285,stimulusJOSU26_2IFC_2019_Jun_13_0846_286,False,2019_Jun_13_0846,2IFC,,JOSU26,
2IFC,68,0,68,0,7.6,-1,correct answer,0.668105090503,False,True,stimulusJOSU26_2IFC_2019_Jun_13_0846_287,stimulusJOSU26_2IFC_2019_Jun_13_0846_288,False,2019_Jun_13_0846,2IFC,,JOSU26,
2IFC,69,0,69,0,7.6,-1,correct answer,0.533538087271,False,True,stimulusJOSU26_2IFC_2019_Jun_13_0846_289,stimulusJOSU26_2IFC_2019_Jun_13_0846_290,False,2019_Jun_13_0846,2IFC,,JOSU26,
2IFC,70,0,70,0,7.6,-1,correct answer,0.100990734994,True,False,stimulusJOSU26_2IFC_2019_Jun_13_0846_291,stimulusJOSU26_2IFC_2019_Jun_13_0846_292,False,2019_Jun_13_0846,2IFC,,JOSU26,
2IFC,71,0,71,0,7.6,-1,correct answer,0.468242870178,False,True,stimulusJOSU26_2IFC_2019_Jun_13_0846_293,stimulusJOSU26_2IFC_2019_Jun_13_0846_294,False,2019_Jun_13_0846,2IFC,,JOSU26,
2IFC,72,0,72,0,7.6,-1,correct answer,0.435249169823,False,True,stimulusJOSU26_2IFC_2019_Jun_13_0846_295,stimulusJOSU26_2IFC_2019_Jun_13_0846_296,False,2019_Jun_13_0846,2IFC,,JOSU26,
2IFC,73,0,73,0,7.6,-1,correct answer,0.200302738231,True,False,stimulusJOSU26_2IFC_2019_Jun_13_0846_297,stimulusJOSU26_2IFC_2019_Jun_13_0846_298,False,2019_Jun_13_0846,2IFC,,JOSU26,
2IFC,74,0,74,0,7.6,-1,correct answer,0.266158353072,True,False,stimulusJOSU26_2IFC_2019_Jun_13_0846_299,stimulusJOSU26_2IFC_2019_Jun_13_0846_300,False,2019_Jun_13_0846,2IFC,,JOSU26,
2IFC,0,0,0,0,4,-1,wrong answer,0.735254342668,False,True,stimulusJOSU26_2IFC_2019_Jun_13_0846_301,stimulusJOSU26_2IFC_2019_Jun_13_0846_302,False,2019_Jun_13_0846,2IFC,,JOSU26,
2IFC,1,0,1,0,4,-1,correct answer,0.572068439797,False,True,stimulusJOSU26_2IFC_2019_Jun_13_0846_303,stimulusJOSU26_2IFC_2019_Jun_13_0846_304,False,2019_Jun_13_0846,2IFC,,JOSU26,
2IFC,2,0,2,0,4,-1,correct answer,0.635510032065,True,False,stimulusJOSU26_2IFC_2019_Jun_13_0846_305,stimulusJOSU26_2IFC_2019_Jun_13_0846_306,False,2019_Jun_13_0846,2IFC,,JOSU26,
2IFC,3,0,3,0,4,-1,correct answer,0.533180910628,False,True,stimulusJOSU26_2IFC_2019_Jun_13_0846_307,stimulusJOSU26_2IFC_2019_Jun_13_0846_308,False,2019_Jun_13_0846,2IFC,,JOSU26,
2IFC,4,0,4,0,4,-1,correct answer,0.267171175685,True,False,stimulusJOSU26_2IFC_2019_Jun_13_0846_309,stimulusJOSU26_2IFC_2019_Jun_13_0846_310,False,2019_Jun_13_0846,2IFC,,JOSU26,
2IFC,5,0,5,0,4,-1,correct answer,0.567171011586,False,True,stimulusJOSU26_2IFC_2019_Jun_13_0846_311,stimulusJOSU26_2IFC_2019_Jun_13_0846_312,False,2019_Jun_13_0846,2IFC,,JOSU26,
2IFC,6,0,6,0,4,-1,correct answer,0.20065457793,True,False,stimulusJOSU26_2IFC_2019_Jun_13_0846_313,stimulusJOSU26_2IFC_2019_Jun_13_0846_314,False,2019_Jun_13_0846,2IFC,,JOSU26,
2IFC,7,0,7,0,4,-1,correct answer,0.502076142002,False,True,stimulusJOSU26_2IFC_2019_Jun_13_0846_315,stimulusJOSU26_2IFC_2019_Jun_13_0846_316,False,2019_Jun_13_0846,2IFC,,JOSU26,
2IFC,8,0,8,0,4,-1,correct answer,0.235053584911,True,False,stimulusJOSU26_2IFC_2019_Jun_13_0846_317,stimulusJOSU26_2IFC_2019_Jun_13_0846_318,False,2019_Jun_13_0846,2IFC,,JOSU26,
2IFC,9,0,9,0,4,-1,correct answer,0.60127360234,True,False,stimulusJOSU26_2IFC_2019_Jun_13_0846_319,stimulusJOSU26_2IFC_2019_Jun_13_0846_320,False,2019_Jun_13_0846,2IFC,,JOSU26,
2IFC,10,0,10,0,4,-1,correct answer,0.570572813042,False,True,stimulusJOSU26_2IFC_2019_Jun_13_0846_321,stimulusJOSU26_2IFC_2019_Jun_13_0846_322,False,2019_Jun_13_0846,2IFC,,JOSU26,
2IFC,11,0,11,0,4,-1,correct answer,0.298385560513,True,False,stimulusJOSU26_2IFC_2019_Jun_13_0846_323,stimulusJOSU26_2IFC_2019_Jun_13_0846_324,False,2019_Jun_13_0846,2IFC,,JOSU26,
2IFC,12,0,12,0,4,-1,correct answer,0.401237720624,True,False,stimulusJOSU26_2IFC_2019_Jun_13_0846_325,stimulusJOSU26_2IFC_2019_Jun_13_0846_326,False,2019_Jun_13_0846,2IFC,,JOSU26,
2IFC,13,0,13,0,4,-1,correct answer,0.269092951436,True,False,stimulusJOSU26_2IFC_2019_Jun_13_0846_327,stimulusJOSU26_2IFC_2019_Jun_13_0846_328,False,2019_Jun_13_0846,2IFC,,JOSU26,
2IFC,14,0,14,0,4,-1,wrong answer,0.598535656929,False,True,stimulusJOSU26_2IFC_2019_Jun_13_0846_329,stimulusJOSU26_2IFC_2019_Jun_13_0846_330,False,2019_Jun_13_0846,2IFC,,JOSU26,
2IFC,15,0,15,0,4,-1,correct answer,0.532887779176,False,True,stimulusJOSU26_2IFC_2019_Jun_13_0846_331,stimulusJOSU26_2IFC_2019_Jun_13_0846_332,False,2019_Jun_13_0846,2IFC,,JOSU26,
2IFC,16,0,16,0,4,-1,correct answer,0.401518946048,True,False,stimulusJOSU26_2IFC_2019_Jun_13_0846_333,stimulusJOSU26_2IFC_2019_Jun_13_0846_334,False,2019_Jun_13_0846,2IFC,,JOSU26,
2IFC,17,0,17,0,4,-1,correct answer,0.635437775869,False,True,stimulusJOSU26_2IFC_2019_Jun_13_0846_335,stimulusJOSU26_2IFC_2019_Jun_13_0846_336,False,2019_Jun_13_0846,2IFC,,JOSU26,
2IFC,18,0,18,0,4,-1,correct answer,0.433283465449,True,False,stimulusJOSU26_2IFC_2019_Jun_13_0846_337,stimulusJOSU26_2IFC_2019_Jun_13_0846_338,False,2019_Jun_13_0846,2IFC,,JOSU26,
2IFC,19,0,19,0,4,-1,correct answer,0.533741308842,False,True,stimulusJOSU26_2IFC_2019_Jun_13_0846_339,stimulusJOSU26_2IFC_2019_Jun_13_0846_340,False,2019_Jun_13_0846,2IFC,,JOSU26,
2IFC,20,0,20,0,4,-1,correct answer,0.275030708872,True,False,stimulusJOSU26_2IFC_2019_Jun_13_0846_341,stimulusJOSU26_2IFC_2019_Jun_13_0846_342,False,2019_Jun_13_0846,2IFC,,JOSU26,
2IFC,21,0,21,0,4,-1,wrong answer,0.629916724283,False,True,stimulusJOSU26_2IFC_2019_Jun_13_0846_343,stimulusJOSU26_2IFC_2019_Jun_13_0846_344,False,2019_Jun_13_0846,2IFC,,JOSU26,
2IFC,22,0,22,0,4,-1,correct answer,0.700897622388,True,False,stimulusJOSU26_2IFC_2019_Jun_13_0846_345,stimulusJOSU26_2IFC_2019_Jun_13_0846_346,False,2019_Jun_13_0846,2IFC,,JOSU26,
2IFC,23,0,23,0,4,-1,correct answer,0.568522945978,False,True,stimulusJOSU26_2IFC_2019_Jun_13_0846_347,stimulusJOSU26_2IFC_2019_Jun_13_0846_348,False,2019_Jun_13_0846,2IFC,,JOSU26,
2IFC,24,0,24,0,4,-1,wrong answer,0.634576856159,False,True,stimulusJOSU26_2IFC_2019_Jun_13_0846_349,stimulusJOSU26_2IFC_2019_Jun_13_0846_350,False,2019_Jun_13_0846,2IFC,,JOSU26,
2IFC,25,0,25,0,4,-1,correct answer,0.501099858433,True,False,stimulusJOSU26_2IFC_2019_Jun_13_0846_351,stimulusJOSU26_2IFC_2019_Jun_13_0846_352,False,2019_Jun_13_0846,2IFC,,JOSU26,
2IFC,26,0,26,0,4,-1,correct answer,0.568906809203,True,False,stimulusJOSU26_2IFC_2019_Jun_13_0846_353,stimulusJOSU26_2IFC_2019_Jun_13_0846_354,False,2019_Jun_13_0846,2IFC,,JOSU26,
2IFC,27,0,27,0,4,-1,wrong answer,0.70962546533,False,True,stimulusJOSU26_2IFC_2019_Jun_13_0846_355,stimulusJOSU26_2IFC_2019_Jun_13_0846_356,False,2019_Jun_13_0846,2IFC,,JOSU26,
2IFC,28,0,28,0,4,-1,correct answer,0.504418319091,True,False,stimulusJOSU26_2IFC_2019_Jun_13_0846_357,stimulusJOSU26_2IFC_2019_Jun_13_0846_358,False,2019_Jun_13_0846,2IFC,,JOSU26,
2IFC,29,0,29,0,4,-1,correct answer,0.566728029866,True,False,stimulusJOSU26_2IFC_2019_Jun_13_0846_359,stimulusJOSU26_2IFC_2019_Jun_13_0846_360,False,2019_Jun_13_0846,2IFC,,JOSU26,
2IFC,30,0,30,0,4,-1,correct answer,0.633504504804,False,True,stimulusJOSU26_2IFC_2019_Jun_13_0846_361,stimulusJOSU26_2IFC_2019_Jun_13_0846_362,False,2019_Jun_13_0846,2IFC,,JOSU26,
2IFC,31,0,31,0,4,-1,correct answer,0.600891792681,True,False,stimulusJOSU26_2IFC_2019_Jun_13_0846_363,stimulusJOSU26_2IFC_2019_Jun_13_0846_364,False,2019_Jun_13_0846,2IFC,,JOSU26,
2IFC,32,0,32,0,4,-1,correct answer,0.871275507379,False,True,stimulusJOSU26_2IFC_2019_Jun_13_0846_365,stimulusJOSU26_2IFC_2019_Jun_13_0846_366,False,2019_Jun_13_0846,2IFC,,JOSU26,
2IFC,33,0,33,0,4,-1,correct answer,0.501929986756,False,True,stimulusJOSU26_2IFC_2019_Jun_13_0846_367,stimulusJOSU26_2IFC_2019_Jun_13_0846_368,False,2019_Jun_13_0846,2IFC,,JOSU26,
2IFC,34,0,34,0,4,-1,correct answer,0.501023085788,True,False,stimulusJOSU26_2IFC_2019_Jun_13_0846_369,stimulusJOSU26_2IFC_2019_Jun_13_0846_370,False,2019_Jun_13_0846,2IFC,,JOSU26,
2IFC,35,0,35,0,4,-1,correct answer,0.567761790007,True,False,stimulusJOSU26_2IFC_2019_Jun_13_0846_371,stimulusJOSU26_2IFC_2019_Jun_13_0846_372,False,2019_Jun_13_0846,2IFC,,JOSU26,
2IFC,36,0,36,0,4,-1,correct answer,0.667708911467,False,True,stimulusJOSU26_2IFC_2019_Jun_13_0846_373,stimulusJOSU26_2IFC_2019_Jun_13_0846_374,False,2019_Jun_13_0846,2IFC,,JOSU26,
2IFC,37,0,37,0,4,-1,correct answer,0.437312174123,False,True,stimulusJOSU26_2IFC_2019_Jun_13_0846_375,stimulusJOSU26_2IFC_2019_Jun_13_0846_376,False,2019_Jun_13_0846,2IFC,,JOSU26,
2IFC,38,0,38,0,4,-1,correct answer,0.133716757875,True,False,stimulusJOSU26_2IFC_2019_Jun_13_0846_377,stimulusJOSU26_2IFC_2019_Jun_13_0846_378,False,2019_Jun_13_0846,2IFC,,JOSU26,
2IFC,39,0,39,0,4,-1,correct answer,0.634408120997,True,False,stimulusJOSU26_2IFC_2019_Jun_13_0846_379,stimulusJOSU26_2IFC_2019_Jun_13_0846_380,False,2019_Jun_13_0846,2IFC,,JOSU26,
2IFC,40,0,40,0,4,-1,wrong answer,0.500127269886,False,True,stimulusJOSU26_2IFC_2019_Jun_13_0846_381,stimulusJOSU26_2IFC_2019_Jun_13_0846_382,False,2019_Jun_13_0846,2IFC,,JOSU26,
2IFC,41,0,41,0,4,-1,correct answer,0.633131316397,False,True,stimulusJOSU26_2IFC_2019_Jun_13_0846_383,stimulusJOSU26_2IFC_2019_Jun_13_0846_384,False,2019_Jun_13_0846,2IFC,,JOSU26,
2IFC,42,0,42,0,4,-1,correct answer,0.502861520741,True,False,stimulusJOSU26_2IFC_2019_Jun_13_0846_385,stimulusJOSU26_2IFC_2019_Jun_13_0846_386,False,2019_Jun_13_0846,2IFC,,JOSU26,
2IFC,43,0,43,0,4,-1,wrong answer,0.634238975123,False,True,stimulusJOSU26_2IFC_2019_Jun_13_0846_387,stimulusJOSU26_2IFC_2019_Jun_13_0846_388,False,2019_Jun_13_0846,2IFC,,JOSU26,
2IFC,44,0,44,0,4,-1,correct answer,0.60093038436,True,False,stimulusJOSU26_2IFC_2019_Jun_13_0846_389,stimulusJOSU26_2IFC_2019_Jun_13_0846_390,False,2019_Jun_13_0846,2IFC,,JOSU26,
2IFC,45,0,45,0,4,-1,correct answer,0.732573463582,False,True,stimulusJOSU26_2IFC_2019_Jun_13_0846_391,stimulusJOSU26_2IFC_2019_Jun_13_0846_392,False,2019_Jun_13_0846,2IFC,,JOSU26,
2IFC,46,0,46,0,4,-1,correct answer,0.668428191915,True,False,stimulusJOSU26_2IFC_2019_Jun_13_0846_393,stimulusJOSU26_2IFC_2019_Jun_13_0846_394,False,2019_Jun_13_0846,2IFC,,JOSU26,
2IFC,47,0,47,0,4,-1,correct answer,0.634550170507,False,True,stimulusJOSU26_2IFC_2019_Jun_13_0846_395,stimulusJOSU26_2IFC_2019_Jun_13_0846_396,False,2019_Jun_13_0846,2IFC,,JOSU26,
2IFC,48,0,48,0,4,-1,correct answer,0.566388096195,False,True,stimulusJOSU26_2IFC_2019_Jun_13_0846_397,stimulusJOSU26_2IFC_2019_Jun_13_0846_398,False,2019_Jun_13_0846,2IFC,,JOSU26,
2IFC,49,0,49,0,4,-1,correct answer,0.667978642043,True,False,stimulusJOSU26_2IFC_2019_Jun_13_0846_399,stimulusJOSU26_2IFC_2019_Jun_13_0846_400,False,2019_Jun_13_0846,2IFC,,JOSU26,
2IFC,50,0,50,0,4,-1,wrong answer,0.667519238312,True,False,stimulusJOSU26_2IFC_2019_Jun_13_0846_401,stimulusJOSU26_2IFC_2019_Jun_13_0846_402,False,2019_Jun_13_0846,2IFC,,JOSU26,
2IFC,51,0,51,0,4,-1,correct answer,0.603410505224,False,True,stimulusJOSU26_2IFC_2019_Jun_13_0846_403,stimulusJOSU26_2IFC_2019_Jun_13_0846_404,False,2019_Jun_13_0846,2IFC,,JOSU26,
2IFC,52,0,52,0,4,-1,wrong answer,0.567560210824,True,False,stimulusJOSU26_2IFC_2019_Jun_13_0846_405,stimulusJOSU26_2IFC_2019_Jun_13_0846_406,False,2019_Jun_13_0846,2IFC,,JOSU26,
2IFC,53,0,53,0,4,-1,correct answer,0.599337867927,True,False,stimulusJOSU26_2IFC_2019_Jun_13_0846_407,stimulusJOSU26_2IFC_2019_Jun_13_0846_408,False,2019_Jun_13_0846,2IFC,,JOSU26,
2IFC,54,0,54,0,4,-1,correct answer,0.668679036666,False,True,stimulusJOSU26_2IFC_2019_Jun_13_0846_409,stimulusJOSU26_2IFC_2019_Jun_13_0846_410,False,2019_Jun_13_0846,2IFC,,JOSU26,
2IFC,55,0,55,0,4,-1,correct answer,0.600617546123,True,False,stimulusJOSU26_2IFC_2019_Jun_13_0846_411,stimulusJOSU26_2IFC_2019_Jun_13_0846_412,False,2019_Jun_13_0846,2IFC,,JOSU26,
2IFC,56,0,56,0,4,-1,correct answer,0.401111271698,True,False,stimulusJOSU26_2IFC_2019_Jun_13_0846_413,stimulusJOSU26_2IFC_2019_Jun_13_0846_414,False,2019_Jun_13_0846,2IFC,,JOSU26,
2IFC,57,0,57,0,4,-1,wrong answer,0.701178026851,False,True,stimulusJOSU26_2IFC_2019_Jun_13_0846_415,stimulusJOSU26_2IFC_2019_Jun_13_0846_416,False,2019_Jun_13_0846,2IFC,,JOSU26,
2IFC,58,0,58,0,4,-1,correct answer,0.543497574516,True,False,stimulusJOSU26_2IFC_2019_Jun_13_0846_417,stimulusJOSU26_2IFC_2019_Jun_13_0846_418,False,2019_Jun_13_0846,2IFC,,JOSU26,
2IFC,59,0,59,0,4,-1,correct answer,0.667579178233,False,True,stimulusJOSU26_2IFC_2019_Jun_13_0846_419,stimulusJOSU26_2IFC_2019_Jun_13_0846_420,False,2019_Jun_13_0846,2IFC,,JOSU26,
2IFC,60,0,60,0,4,-1,correct answer,0.567404202651,False,True,stimulusJOSU26_2IFC_2019_Jun_13_0846_421,stimulusJOSU26_2IFC_2019_Jun_13_0846_422,False,2019_Jun_13_0846,2IFC,,JOSU26,
2IFC,61,0,61,0,4,-1,correct answer,0.43596639717,True,False,stimulusJOSU26_2IFC_2019_Jun_13_0846_423,stimulusJOSU26_2IFC_2019_Jun_13_0846_424,False,2019_Jun_13_0846,2IFC,,JOSU26,
2IFC,62,0,62,0,4,-1,correct answer,0.533731866162,False,True,stimulusJOSU26_2IFC_2019_Jun_13_0846_425,stimulusJOSU26_2IFC_2019_Jun_13_0846_426,False,2019_Jun_13_0846,2IFC,,JOSU26,
2IFC,63,0,63,0,4,-1,wrong answer,0.467197204009,True,False,stimulusJOSU26_2IFC_2019_Jun_13_0846_427,stimulusJOSU26_2IFC_2019_Jun_13_0846_428,False,2019_Jun_13_0846,2IFC,,JOSU26,
2IFC,64,0,64,0,4,-1,correct answer,0.607788590714,False,True,stimulusJOSU26_2IFC_2019_Jun_13_0846_429,stimulusJOSU26_2IFC_2019_Jun_13_0846_430,False,2019_Jun_13_0846,2IFC,,JOSU26,
2IFC,65,0,65,0,4,-1,correct answer,0.576604996808,False,True,stimulusJOSU26_2IFC_2019_Jun_13_0846_431,stimulusJOSU26_2IFC_2019_Jun_13_0846_432,False,2019_Jun_13_0846,2IFC,,JOSU26,
2IFC,66,0,66,0,4,-1,correct answer,0.667238012888,True,False,stimulusJOSU26_2IFC_2019_Jun_13_0846_433,stimulusJOSU26_2IFC_2019_Jun_13_0846_434,False,2019_Jun_13_0846,2IFC,,JOSU26,
2IFC,67,0,67,0,4,-1,correct answer,0.569597761147,False,True,stimulusJOSU26_2IFC_2019_Jun_13_0846_435,stimulusJOSU26_2IFC_2019_Jun_13_0846_436,False,2019_Jun_13_0846,2IFC,,JOSU26,
2IFC,68,0,68,0,4,-1,no answer,-1,True,False,stimulusJOSU26_2IFC_2019_Jun_13_0846_437,stimulusJOSU26_2IFC_2019_Jun_13_0846_438,False,2019_Jun_13_0846,2IFC,,JOSU26,
2IFC,69,0,69,0,4,-1,correct answer,0.501742776483,False,True,stimulusJOSU26_2IFC_2019_Jun_13_0846_439,stimulusJOSU26_2IFC_2019_Jun_13_0846_440,False,2019_Jun_13_0846,2IFC,,JOSU26,
2IFC,70,0,70,0,4,-1,correct answer,0.668750061654,True,False,stimulusJOSU26_2IFC_2019_Jun_13_0846_441,stimulusJOSU26_2IFC_2019_Jun_13_0846_442,False,2019_Jun_13_0846,2IFC,,JOSU26,
2IFC,71,0,71,0,4,-1,correct answer,0.532213248312,False,True,stimulusJOSU26_2IFC_2019_Jun_13_0846_443,stimulusJOSU26_2IFC_2019_Jun_13_0846_444,False,2019_Jun_13_0846,2IFC,,JOSU26,
2IFC,72,0,72,0,4,-1,correct answer,0.635468156077,False,True,stimulusJOSU26_2IFC_2019_Jun_13_0846_445,stimulusJOSU26_2IFC_2019_Jun_13_0846_446,False,2019_Jun_13_0846,2IFC,,JOSU26,
2IFC,73,0,73,0,4,-1,correct answer,0.600092865992,True,False,stimulusJOSU26_2IFC_2019_Jun_13_0846_447,stimulusJOSU26_2IFC_2019_Jun_13_0846_448,False,2019_Jun_13_0846,2IFC,,JOSU26,
2IFC,74,0,74,0,4,-1,correct answer,0.668310774956,False,True,stimulusJOSU26_2IFC_2019_Jun_13_0846_449,stimulusJOSU26_2IFC_2019_Jun_13_0846_450,False,2019_Jun_13_0846,2IFC,,JOSU26,
2IFC,0,0,0,0,3,-1,wrong answer,0.734074017033,True,False,stimulusJOSU26_2IFC_2019_Jun_13_0846_451,stimulusJOSU26_2IFC_2019_Jun_13_0846_452,False,2019_Jun_13_0846,2IFC,,JOSU26,
2IFC,1,0,1,0,3,-1,correct answer,0.167135786265,True,False,stimulusJOSU26_2IFC_2019_Jun_13_0846_453,stimulusJOSU26_2IFC_2019_Jun_13_0846_454,False,2019_Jun_13_0846,2IFC,,JOSU26,
2IFC,2,0,2,0,3,-1,correct answer,0.539053801447,True,False,stimulusJOSU26_2IFC_2019_Jun_13_0846_455,stimulusJOSU26_2IFC_2019_Jun_13_0846_456,False,2019_Jun_13_0846,2IFC,,JOSU26,
2IFC,3,0,3,0,3,-1,correct answer,0.571740822401,True,False,stimulusJOSU26_2IFC_2019_Jun_13_0846_457,stimulusJOSU26_2IFC_2019_Jun_13_0846_458,False,2019_Jun_13_0846,2IFC,,JOSU26,
2IFC,4,0,4,0,3,-1,correct answer,0.567341388669,False,True,stimulusJOSU26_2IFC_2019_Jun_13_0846_459,stimulusJOSU26_2IFC_2019_Jun_13_0846_460,False,2019_Jun_13_0846,2IFC,,JOSU26,
2IFC,5,0,5,0,3,-1,wrong answer,0.379336209502,False,True,stimulusJOSU26_2IFC_2019_Jun_13_0846_461,stimulusJOSU26_2IFC_2019_Jun_13_0846_462,False,2019_Jun_13_0846,2IFC,,JOSU26,
2IFC,6,0,6,0,3,-1,correct answer,0.560282834806,True,False,stimulusJOSU26_2IFC_2019_Jun_13_0846_463,stimulusJOSU26_2IFC_2019_Jun_13_0846_464,False,2019_Jun_13_0846,2IFC,,JOSU26,
2IFC,7,0,7,0,3,-1,correct answer,0.567851700354,False,True,stimulusJOSU26_2IFC_2019_Jun_13_0846_465,stimulusJOSU26_2IFC_2019_Jun_13_0846_466,False,2019_Jun_13_0846,2IFC,,JOSU26,
2IFC,8,0,8,0,3,-1,correct answer,0.604298520833,False,True,stimulusJOSU26_2IFC_2019_Jun_13_0846_467,stimulusJOSU26_2IFC_2019_Jun_13_0846_468,False,2019_Jun_13_0846,2IFC,,JOSU26,
2IFC,9,0,9,0,3,-1,correct answer,0.334135680925,True,False,stimulusJOSU26_2IFC_2019_Jun_13_0846_469,stimulusJOSU26_2IFC_2019_Jun_13_0846_470,False,2019_Jun_13_0846,2IFC,,JOSU26,
2IFC,10,0,10,0,3,-1,wrong answer,0.335851772223,False,True,stimulusJOSU26_2IFC_2019_Jun_13_0846_471,stimulusJOSU26_2IFC_2019_Jun_13_0846_472,False,2019_Jun_13_0846,2IFC,,JOSU26,
2IFC,11,0,11,0,3,-1,correct answer,0.43319601845,True,False,stimulusJOSU26_2IFC_2019_Jun_13_0846_473,stimulusJOSU26_2IFC_2019_Jun_13_0846_474,False,2019_Jun_13_0846,2IFC,,JOSU26,
2IFC,12,0,12,0,3,-1,correct answer,0.503818097524,True,False,stimulusJOSU26_2IFC_2019_Jun_13_0846_475,stimulusJOSU26_2IFC_2019_Jun_13_0846_476,False,2019_Jun_13_0846,2IFC,,JOSU26,
2IFC,13,0,13,0,3,-1,correct answer,0.567757684737,True,False,stimulusJOSU26_2IFC_2019_Jun_13_0846_477,stimulusJOSU26_2IFC_2019_Jun_13_0846_478,False,2019_Jun_13_0846,2IFC,,JOSU26,
2IFC,14,0,14,0,3,-1,correct answer,0.535322329495,False,True,stimulusJOSU26_2IFC_2019_Jun_13_0846_479,stimulusJOSU26_2IFC_2019_Jun_13_0846_480,False,2019_Jun_13_0846,2IFC,,JOSU26,
2IFC,15,0,15,0,3,-1,correct answer,0.467802762985,True,False,stimulusJOSU26_2IFC_2019_Jun_13_0846_481,stimulusJOSU26_2IFC_2019_Jun_13_0846_482,False,2019_Jun_13_0846,2IFC,,JOSU26,
2IFC,16,0,16,0,3,-1,wrong answer,0.50327658467,False,True,stimulusJOSU26_2IFC_2019_Jun_13_0846_483,stimulusJOSU26_2IFC_2019_Jun_13_0846_484,False,2019_Jun_13_0846,2IFC,,JOSU26,
2IFC,17,0,17,0,3,-1,correct answer,0.700947299134,False,True,stimulusJOSU26_2IFC_2019_Jun_13_0846_485,stimulusJOSU26_2IFC_2019_Jun_13_0846_486,False,2019_Jun_13_0846,2IFC,,JOSU26,
2IFC,18,0,18,0,3,-1,correct answer,0.569634710904,True,False,stimulusJOSU26_2IFC_2019_Jun_13_0846_487,stimulusJOSU26_2IFC_2019_Jun_13_0846_488,False,2019_Jun_13_0846,2IFC,,JOSU26,
2IFC,19,0,19,0,3,-1,wrong answer,0.634030416608,True,False,stimulusJOSU26_2IFC_2019_Jun_13_0846_489,stimulusJOSU26_2IFC_2019_Jun_13_0846_490,False,2019_Jun_13_0846,2IFC,,JOSU26,
2IFC,20,0,20,0,3,-1,correct answer,0.701696549077,False,True,stimulusJOSU26_2IFC_2019_Jun_13_0846_491,stimulusJOSU26_2IFC_2019_Jun_13_0846_492,False,2019_Jun_13_0846,2IFC,,JOSU26,
2IFC,21,0,21,0,3,-1,correct answer,0.801722906064,True,False,stimulusJOSU26_2IFC_2019_Jun_13_0846_493,stimulusJOSU26_2IFC_2019_Jun_13_0846_494,False,2019_Jun_13_0846,2IFC,,JOSU26,
2IFC,22,0,22,0,3,-1,correct answer,0.667104173917,True,False,stimulusJOSU26_2IFC_2019_Jun_13_0846_495,stimulusJOSU26_2IFC_2019_Jun_13_0846_496,False,2019_Jun_13_0846,2IFC,,JOSU26,
2IFC,23,0,23,0,3,-1,correct answer,0.435837075114,True,False,stimulusJOSU26_2IFC_2019_Jun_13_0846_497,stimulusJOSU26_2IFC_2019_Jun_13_0846_498,False,2019_Jun_13_0846,2IFC,,JOSU26,
2IFC,24,0,24,0,3,-1,wrong answer,0.770181314088,False,True,stimulusJOSU26_2IFC_2019_Jun_13_0846_499,stimulusJOSU26_2IFC_2019_Jun_13_0846_500,False,2019_Jun_13_0846,2IFC,,JOSU26,
2IFC,25,0,25,0,3,-1,correct answer,0.600870443974,True,False,stimulusJOSU26_2IFC_2019_Jun_13_0846_501,stimulusJOSU26_2IFC_2019_Jun_13_0846_502,False,2019_Jun_13_0846,2IFC,,JOSU26,
2IFC,26,0,26,0,3,-1,wrong answer,0.699856472202,False,True,stimulusJOSU26_2IFC_2019_Jun_13_0846_503,stimulusJOSU26_2IFC_2019_Jun_13_0846_504,False,2019_Jun_13_0846,2IFC,,JOSU26,
2IFC,27,0,27,0,3,-1,correct answer,0.367439345457,True,False,stimulusJOSU26_2IFC_2019_Jun_13_0846_505,stimulusJOSU26_2IFC_2019_Jun_13_0846_506,False,2019_Jun_13_0846,2IFC,,JOSU26,
2IFC,28,0,28,0,3,-1,correct answer,0.567272416316,True,False,stimulusJOSU26_2IFC_2019_Jun_13_0846_507,stimulusJOSU26_2IFC_2019_Jun_13_0846_508,False,2019_Jun_13_0846,2IFC,,JOSU26,
2IFC,29,0,29,0,3,-1,no answer,-1,False,True,stimulusJOSU26_2IFC_2019_Jun_13_0846_509,stimulusJOSU26_2IFC_2019_Jun_13_0846_510,False,2019_Jun_13_0846,2IFC,,JOSU26,
2IFC,30,0,30,0,3,-1,correct answer,0.501991979312,False,True,stimulusJOSU26_2IFC_2019_Jun_13_0846_511,stimulusJOSU26_2IFC_2019_Jun_13_0846_512,False,2019_Jun_13_0846,2IFC,,JOSU26,
2IFC,31,0,31,0,3,-1,correct answer,0.665041170083,True,False,stimulusJOSU26_2IFC_2019_Jun_13_0846_513,stimulusJOSU26_2IFC_2019_Jun_13_0846_514,False,2019_Jun_13_0846,2IFC,,JOSU26,
2IFC,32,0,32,0,3,-1,correct answer,0.401933189016,True,False,stimulusJOSU26_2IFC_2019_Jun_13_0846_515,stimulusJOSU26_2IFC_2019_Jun_13_0846_516,False,2019_Jun_13_0846,2IFC,,JOSU26,
2IFC,33,0,33,0,3,-1,wrong answer,0.767961480655,False,True,stimulusJOSU26_2IFC_2019_Jun_13_0846_517,stimulusJOSU26_2IFC_2019_Jun_13_0846_518,False,2019_Jun_13_0846,2IFC,,JOSU26,
2IFC,34,0,34,0,3,-1,correct answer,0.503995454405,True,False,stimulusJOSU26_2IFC_2019_Jun_13_0846_519,stimulusJOSU26_2IFC_2019_Jun_13_0846_520,False,2019_Jun_13_0846,2IFC,,JOSU26,
2IFC,35,0,35,0,3,-1,correct answer,0.530850228854,False,True,stimulusJOSU26_2IFC_2019_Jun_13_0846_521,stimulusJOSU26_2IFC_2019_Jun_13_0846_522,False,2019_Jun_13_0846,2IFC,,JOSU26,
2IFC,36,0,36,0,3,-1,wrong answer,0.501002147794,False,True,stimulusJOSU26_2IFC_2019_Jun_13_0846_523,stimulusJOSU26_2IFC_2019_Jun_13_0846_524,False,2019_Jun_13_0846,2IFC,,JOSU26,
2IFC,37,0,37,0,3,-1,wrong answer,0.667916649021,False,True,stimulusJOSU26_2IFC_2019_Jun_13_0846_525,stimulusJOSU26_2IFC_2019_Jun_13_0846_526,False,2019_Jun_13_0846,2IFC,,JOSU26,
2IFC,38,0,38,0,3,-1,correct answer,0.631558916997,False,True,stimulusJOSU26_2IFC_2019_Jun_13_0846_527,stimulusJOSU26_2IFC_2019_Jun_13_0846_528,False,2019_Jun_13_0846,2IFC,,JOSU26,
2IFC,39,0,39,0,3,-1,correct answer,0.468379993457,True,False,stimulusJOSU26_2IFC_2019_Jun_13_0846_529,stimulusJOSU26_2IFC_2019_Jun_13_0846_530,False,2019_Jun_13_0846,2IFC,,JOSU26,
2IFC,40,0,40,0,3,-1,correct answer,0.633828016464,False,True,stimulusJOSU26_2IFC_2019_Jun_13_0846_531,stimulusJOSU26_2IFC_2019_Jun_13_0846_532,False,2019_Jun_13_0846,2IFC,,JOSU26,
2IFC,41,0,41,0,3,-1,correct answer,0.435996777844,True,False,stimulusJOSU26_2IFC_2019_Jun_13_0846_533,stimulusJOSU26_2IFC_2019_Jun_13_0846_534,False,2019_Jun_13_0846,2IFC,,JOSU26,
2IFC,42,0,42,0,3,-1,wrong answer,0.634248417802,False,True,stimulusJOSU26_2IFC_2019_Jun_13_0846_535,stimulusJOSU26_2IFC_2019_Jun_13_0846_536,False,2019_Jun_13_0846,2IFC,,JOSU26,
2IFC,43,0,43,0,3,-1,wrong answer,0.601597114,False,True,stimulusJOSU26_2IFC_2019_Jun_13_0846_537,stimulusJOSU26_2IFC_2019_Jun_13_0846_538,False,2019_Jun_13_0846,2IFC,,JOSU26,
2IFC,44,0,44,0,3,-1,wrong answer,0.634633101523,False,True,stimulusJOSU26_2IFC_2019_Jun_13_0846_539,stimulusJOSU26_2IFC_2019_Jun_13_0846_540,False,2019_Jun_13_0846,2IFC,,JOSU26,
2IFC,45,0,45,0,3,-1,correct answer,0.668849003967,True,False,stimulusJOSU26_2IFC_2019_Jun_13_0846_541,stimulusJOSU26_2IFC_2019_Jun_13_0846_542,False,2019_Jun_13_0846,2IFC,,JOSU26,
2IFC,46,0,46,0,3,-1,correct answer,0.5029477356,True,False,stimulusJOSU26_2IFC_2019_Jun_13_0846_543,stimulusJOSU26_2IFC_2019_Jun_13_0846_544,False,2019_Jun_13_0846,2IFC,,JOSU26,
2IFC,47,0,47,0,3,-1,correct answer,0.535601091571,False,True,stimulusJOSU26_2IFC_2019_Jun_13_0846_545,stimulusJOSU26_2IFC_2019_Jun_13_0846_546,False,2019_Jun_13_0846,2IFC,,JOSU26,
2IFC,48,0,48,0,3,-1,wrong answer,0.665535469539,False,True,stimulusJOSU26_2IFC_2019_Jun_13_0846_547,stimulusJOSU26_2IFC_2019_Jun_13_0846_548,False,2019_Jun_13_0846,2IFC,,JOSU26,
2IFC,49,0,49,0,3,-1,correct answer,0.667914595921,False,True,stimulusJOSU26_2IFC_2019_Jun_13_0846_549,stimulusJOSU26_2IFC_2019_Jun_13_0846_550,False,2019_Jun_13_0846,2IFC,,JOSU26,
2IFC,50,0,50,0,3,-1,wrong answer,0.534348919988,False,True,stimulusJOSU26_2IFC_2019_Jun_13_0846_551,stimulusJOSU26_2IFC_2019_Jun_13_0846_552,False,2019_Jun_13_0846,2IFC,,JOSU26,
2IFC,51,0,51,0,3,-1,correct answer,0.602604599204,True,False,stimulusJOSU26_2IFC_2019_Jun_13_0846_553,stimulusJOSU26_2IFC_2019_Jun_13_0846_554,False,2019_Jun_13_0846,2IFC,,JOSU26,
2IFC,52,0,52,0,3,-1,correct answer,0.466772287153,True,False,stimulusJOSU26_2IFC_2019_Jun_13_0846_555,stimulusJOSU26_2IFC_2019_Jun_13_0846_556,False,2019_Jun_13_0846,2IFC,,JOSU26,
2IFC,53,0,53,0,3,-1,correct answer,0.702525856439,True,False,stimulusJOSU26_2IFC_2019_Jun_13_0846_557,stimulusJOSU26_2IFC_2019_Jun_13_0846_558,False,2019_Jun_13_0846,2IFC,,JOSU26,
2IFC,54,0,54,0,3,-1,correct answer,0.52603614144,True,False,stimulusJOSU26_2IFC_2019_Jun_13_0846_559,stimulusJOSU26_2IFC_2019_Jun_13_0846_560,False,2019_Jun_13_0846,2IFC,,JOSU26,
2IFC,55,0,55,0,3,-1,correct answer,0.567198928446,False,True,stimulusJOSU26_2IFC_2019_Jun_13_0846_561,stimulusJOSU26_2IFC_2019_Jun_13_0846_562,False,2019_Jun_13_0846,2IFC,,JOSU26,
2IFC,56,0,56,0,3,-1,wrong answer,0.468284746632,False,True,stimulusJOSU26_2IFC_2019_Jun_13_0846_563,stimulusJOSU26_2IFC_2019_Jun_13_0846_564,False,2019_Jun_13_0846,2IFC,,JOSU26,
2IFC,57,0,57,0,3,-1,correct answer,0.667835359927,True,False,stimulusJOSU26_2IFC_2019_Jun_13_0846_565,stimulusJOSU26_2IFC_2019_Jun_13_0846_566,False,2019_Jun_13_0846,2IFC,,JOSU26,
2IFC,58,0,58,0,3,-1,correct answer,0.735045373905,False,True,stimulusJOSU26_2IFC_2019_Jun_13_0846_567,stimulusJOSU26_2IFC_2019_Jun_13_0846_568,False,2019_Jun_13_0846,2IFC,,JOSU26,
2IFC,59,0,59,0,3,-1,correct answer,0.636714580469,True,False,stimulusJOSU26_2IFC_2019_Jun_13_0846_569,stimulusJOSU26_2IFC_2019_Jun_13_0846_570,False,2019_Jun_13_0846,2IFC,,JOSU26,
2IFC,60,0,60,0,3,-1,wrong answer,0.829323646612,False,True,stimulusJOSU26_2IFC_2019_Jun_13_0846_571,stimulusJOSU26_2IFC_2019_Jun_13_0846_572,False,2019_Jun_13_0846,2IFC,,JOSU26,
2IFC,61,0,61,0,3,-1,correct answer,0.60114099551,False,True,stimulusJOSU26_2IFC_2019_Jun_13_0846_573,stimulusJOSU26_2IFC_2019_Jun_13_0846_574,False,2019_Jun_13_0846,2IFC,,JOSU26,
2IFC,62,0,62,0,3,-1,wrong answer,0.733021371532,False,True,stimulusJOSU26_2IFC_2019_Jun_13_0846_575,stimulusJOSU26_2IFC_2019_Jun_13_0846_576,False,2019_Jun_13_0846,2IFC,,JOSU26,
2IFC,63,0,63,0,3,-1,correct answer,0.534521760885,True,False,stimulusJOSU26_2IFC_2019_Jun_13_0846_577,stimulusJOSU26_2IFC_2019_Jun_13_0846_578,False,2019_Jun_13_0846,2IFC,,JOSU26,
2IFC,64,0,64,0,3,-1,correct answer,0.497764565051,True,False,stimulusJOSU26_2IFC_2019_Jun_13_0846_579,stimulusJOSU26_2IFC_2019_Jun_13_0846_580,False,2019_Jun_13_0846,2IFC,,JOSU26,
2IFC,65,0,65,0,3,-1,correct answer,0.767661369871,False,True,stimulusJOSU26_2IFC_2019_Jun_13_0846_581,stimulusJOSU26_2IFC_2019_Jun_13_0846_582,False,2019_Jun_13_0846,2IFC,,JOSU26,
2IFC,66,0,66,0,3,-1,correct answer,0.535675400868,True,False,stimulusJOSU26_2IFC_2019_Jun_13_0846_583,stimulusJOSU26_2IFC_2019_Jun_13_0846_584,False,2019_Jun_13_0846,2IFC,,JOSU26,
2IFC,67,0,67,0,3,-1,correct answer,0.566466100514,True,False,stimulusJOSU26_2IFC_2019_Jun_13_0846_585,stimulusJOSU26_2IFC_2019_Jun_13_0846_586,False,2019_Jun_13_0846,2IFC,,JOSU26,
2IFC,68,0,68,0,3,-1,correct answer,0.569155600853,False,True,stimulusJOSU26_2IFC_2019_Jun_13_0846_587,stimulusJOSU26_2IFC_2019_Jun_13_0846_588,False,2019_Jun_13_0846,2IFC,,JOSU26,
2IFC,69,0,69,0,3,-1,correct answer,0.667492963374,False,True,stimulusJOSU26_2IFC_2019_Jun_13_0846_589,stimulusJOSU26_2IFC_2019_Jun_13_0846_590,False,2019_Jun_13_0846,2IFC,,JOSU26,
2IFC,70,0,70,0,3,-1,correct answer,0.769422621466,False,True,stimulusJOSU26_2IFC_2019_Jun_13_0846_591,stimulusJOSU26_2IFC_2019_Jun_13_0846_592,False,2019_Jun_13_0846,2IFC,,JOSU26,
2IFC,71,0,71,0,3,-1,wrong answer,0.70197161613,True,False,stimulusJOSU26_2IFC_2019_Jun_13_0846_593,stimulusJOSU26_2IFC_2019_Jun_13_0846_594,False,2019_Jun_13_0846,2IFC,,JOSU26,
2IFC,72,0,72,0,3,-1,correct answer,0.599193765782,True,False,stimulusJOSU26_2IFC_2019_Jun_13_0846_595,stimulusJOSU26_2IFC_2019_Jun_13_0846_596,False,2019_Jun_13_0846,2IFC,,JOSU26,
2IFC,73,0,73,0,3,-1,correct answer,0.565791158937,False,True,stimulusJOSU26_2IFC_2019_Jun_13_0846_597,stimulusJOSU26_2IFC_2019_Jun_13_0846_598,False,2019_Jun_13_0846,2IFC,,JOSU26,
2IFC,74,0,74,0,3,-1,no answer,-1,True,False,stimulusJOSU26_2IFC_2019_Jun_13_0846_599,stimulusJOSU26_2IFC_2019_Jun_13_0846_600,False,2019_Jun_13_0846,2IFC,,JOSU26,
2IFC,0,0,0,0,5,-1,correct answer,0.534085347783,True,False,stimulusJOSU26_2IFC_2019_Jun_13_0846_601,stimulusJOSU26_2IFC_2019_Jun_13_0846_602,False,2019_Jun_13_0846,2IFC,,JOSU26,
2IFC,1,0,1,0,5,-1,wrong answer,0.801180982962,True,False,stimulusJOSU26_2IFC_2019_Jun_13_0846_603,stimulusJOSU26_2IFC_2019_Jun_13_0846_604,False,2019_Jun_13_0846,2IFC,,JOSU26,
2IFC,2,0,2,0,5,-1,correct answer,0.199893832207,True,False,stimulusJOSU26_2IFC_2019_Jun_13_0846_605,stimulusJOSU26_2IFC_2019_Jun_13_0846_606,False,2019_Jun_13_0846,2IFC,,JOSU26,
2IFC,3,0,3,0,5,-1,wrong answer,0.13895165734,False,True,stimulusJOSU26_2IFC_2019_Jun_13_0846_607,stimulusJOSU26_2IFC_2019_Jun_13_0846_608,False,2019_Jun_13_0846,2IFC,,JOSU26,
2IFC,4,0,4,0,5,-1,correct answer,0.468216184992,False,True,stimulusJOSU26_2IFC_2019_Jun_13_0846_609,stimulusJOSU26_2IFC_2019_Jun_13_0846_610,False,2019_Jun_13_0846,2IFC,,JOSU26,
2IFC,5,0,5,0,5,-1,correct answer,0.567298281472,True,False,stimulusJOSU26_2IFC_2019_Jun_13_0846_611,stimulusJOSU26_2IFC_2019_Jun_13_0846_612,False,2019_Jun_13_0846,2IFC,,JOSU26,
2IFC,6,0,6,0,5,-1,correct answer,0.501850751229,True,False,stimulusJOSU26_2IFC_2019_Jun_13_0846_613,stimulusJOSU26_2IFC_2019_Jun_13_0846_614,False,2019_Jun_13_0846,2IFC,,JOSU26,
2IFC,7,0,7,0,5,-1,correct answer,0.467179140076,True,False,stimulusJOSU26_2IFC_2019_Jun_13_0846_615,stimulusJOSU26_2IFC_2019_Jun_13_0846_616,False,2019_Jun_13_0846,2IFC,,JOSU26,
2IFC,8,0,8,0,5,-1,correct answer,0.567971580196,False,True,stimulusJOSU26_2IFC_2019_Jun_13_0846_617,stimulusJOSU26_2IFC_2019_Jun_13_0846_618,False,2019_Jun_13_0846,2IFC,,JOSU26,
2IFC,9,0,9,0,5,-1,correct answer,0.602499499451,False,True,stimulusJOSU26_2IFC_2019_Jun_13_0846_619,stimulusJOSU26_2IFC_2019_Jun_13_0846_620,False,2019_Jun_13_0846,2IFC,,JOSU26,
2IFC,10,0,10,0,5,-1,correct answer,0.829098666087,False,True,stimulusJOSU26_2IFC_2019_Jun_13_0846_621,stimulusJOSU26_2IFC_2019_Jun_13_0846_622,False,2019_Jun_13_0846,2IFC,,JOSU26,
2IFC,11,0,11,0,5,-1,correct answer,0.566987907048,False,True,stimulusJOSU26_2IFC_2019_Jun_13_0846_623,stimulusJOSU26_2IFC_2019_Jun_13_0846_624,False,2019_Jun_13_0846,2IFC,,JOSU26,
2IFC,12,0,12,0,5,-1,correct answer,0.603741817642,True,False,stimulusJOSU26_2IFC_2019_Jun_13_0846_625,stimulusJOSU26_2IFC_2019_Jun_13_0846_626,False,2019_Jun_13_0846,2IFC,,JOSU26,
2IFC,13,0,13,0,5,-1,no answer,-1,False,True,stimulusJOSU26_2IFC_2019_Jun_13_0846_627,stimulusJOSU26_2IFC_2019_Jun_13_0846_628,False,2019_Jun_13_0846,2IFC,,JOSU26,
2IFC,14,0,14,0,5,-1,correct answer,0.567705955356,True,False,stimulusJOSU26_2IFC_2019_Jun_13_0846_629,stimulusJOSU26_2IFC_2019_Jun_13_0846_630,False,2019_Jun_13_0846,2IFC,,JOSU26,
2IFC,15,0,15,0,5,-1,correct answer,0.404475713614,True,False,stimulusJOSU26_2IFC_2019_Jun_13_0846_631,stimulusJOSU26_2IFC_2019_Jun_13_0846_632,False,2019_Jun_13_0846,2IFC,,JOSU26,
2IFC,16,0,16,0,5,-1,correct answer,0.533054461703,True,False,stimulusJOSU26_2IFC_2019_Jun_13_0846_633,stimulusJOSU26_2IFC_2019_Jun_13_0846_634,False,2019_Jun_13_0846,2IFC,,JOSU26,
2IFC,17,0,17,0,5,-1,correct answer,0.567808592692,False,True,stimulusJOSU26_2IFC_2019_Jun_13_0846_635,stimulusJOSU26_2IFC_2019_Jun_13_0846_636,False,2019_Jun_13_0846,2IFC,,JOSU26,
2IFC,18,0,18,0,5,-1,correct answer,0.463717398234,True,False,stimulusJOSU26_2IFC_2019_Jun_13_0846_637,stimulusJOSU26_2IFC_2019_Jun_13_0846_638,False,2019_Jun_13_0846,2IFC,,JOSU26,
2IFC,19,0,19,0,5,-1,correct answer,0.610029772855,True,False,stimulusJOSU26_2IFC_2019_Jun_13_0846_639,stimulusJOSU26_2IFC_2019_Jun_13_0846_640,False,2019_Jun_13_0846,2IFC,,JOSU26,
2IFC,20,0,20,0,5,-1,correct answer,0.560802588705,False,True,stimulusJOSU26_2IFC_2019_Jun_13_0846_641,stimulusJOSU26_2IFC_2019_Jun_13_0846_642,False,2019_Jun_13_0846,2IFC,,JOSU26,
2IFC,21,0,21,0,5,-1,correct answer,0.534689264372,False,True,stimulusJOSU26_2IFC_2019_Jun_13_0846_643,stimulusJOSU26_2IFC_2019_Jun_13_0846_644,False,2019_Jun_13_0846,2IFC,,JOSU26,
2IFC,22,0,22,0,5,-1,correct answer,0.631989992689,False,True,stimulusJOSU26_2IFC_2019_Jun_13_0846_645,stimulusJOSU26_2IFC_2019_Jun_13_0846_646,False,2019_Jun_13_0846,2IFC,,JOSU26,
2IFC,23,0,23,0,5,-1,correct answer,0.567678038031,True,False,stimulusJOSU26_2IFC_2019_Jun_13_0846_647,stimulusJOSU26_2IFC_2019_Jun_13_0846_648,False,2019_Jun_13_0846,2IFC,,JOSU26,
2IFC,24,0,24,0,5,-1,correct answer,0.532625439111,False,True,stimulusJOSU26_2IFC_2019_Jun_13_0846_649,stimulusJOSU26_2IFC_2019_Jun_13_0846_650,False,2019_Jun_13_0846,2IFC,,JOSU26,
2IFC,25,0,25,0,5,-1,correct answer,0.635149570648,True,False,stimulusJOSU26_2IFC_2019_Jun_13_0846_651,stimulusJOSU26_2IFC_2019_Jun_13_0846_652,False,2019_Jun_13_0846,2IFC,,JOSU26,
2IFC,26,0,26,0,5,-1,correct answer,0.531906568911,False,True,stimulusJOSU26_2IFC_2019_Jun_13_0846_653,stimulusJOSU26_2IFC_2019_Jun_13_0846_654,False,2019_Jun_13_0846,2IFC,,JOSU26,
2IFC,27,0,27,0,5,-1,correct answer,0.431490190793,False,True,stimulusJOSU26_2IFC_2019_Jun_13_0846_655,stimulusJOSU26_2IFC_2019_Jun_13_0846_656,False,2019_Jun_13_0846,2IFC,,JOSU26,
2IFC,28,0,28,0,5,-1,correct answer,0.472740014549,False,True,stimulusJOSU26_2IFC_2019_Jun_13_0846_657,stimulusJOSU26_2IFC_2019_Jun_13_0846_658,False,2019_Jun_13_0846,2IFC,,JOSU26,
2IFC,29,0,29,0,5,-1,correct answer,0.497257948853,True,False,stimulusJOSU26_2IFC_2019_Jun_13_0846_659,stimulusJOSU26_2IFC_2019_Jun_13_0846_660,False,2019_Jun_13_0846,2IFC,,JOSU26,
2IFC,30,0,30,0,5,-1,correct answer,0.333367545623,True,False,stimulusJOSU26_2IFC_2019_Jun_13_0846_661,stimulusJOSU26_2IFC_2019_Jun_13_0846_662,False,2019_Jun_13_0846,2IFC,,JOSU26,
2IFC,31,0,31,0,5,-1,correct answer,0.400680196006,True,False,stimulusJOSU26_2IFC_2019_Jun_13_0846_663,stimulusJOSU26_2IFC_2019_Jun_13_0846_664,False,2019_Jun_13_0846,2IFC,,JOSU26,
2IFC,32,0,32,0,5,-1,correct answer,0.367764910217,True,False,stimulusJOSU26_2IFC_2019_Jun_13_0846_665,stimulusJOSU26_2IFC_2019_Jun_13_0846_666,False,2019_Jun_13_0846,2IFC,,JOSU26,
2IFC,33,0,33,0,5,-1,correct answer,0.735144726466,False,True,stimulusJOSU26_2IFC_2019_Jun_13_0846_667,stimulusJOSU26_2IFC_2019_Jun_13_0846_668,False,2019_Jun_13_0846,2IFC,,JOSU26,
2IFC,34,0,34,0,5,-1,correct answer,0.235821720213,True,False,stimulusJOSU26_2IFC_2019_Jun_13_0846_669,stimulusJOSU26_2IFC_2019_Jun_13_0846_670,False,2019_Jun_13_0846,2IFC,,JOSU26,
2IFC,35,0,35,0,5,-1,correct answer,0.433212851174,True,False,stimulusJOSU26_2IFC_2019_Jun_13_0846_671,stimulusJOSU26_2IFC_2019_Jun_13_0846_672,False,2019_Jun_13_0846,2IFC,,JOSU26,
2IFC,36,0,36,0,5,-1,correct answer,0.610617267434,True,False,stimulusJOSU26_2IFC_2019_Jun_13_0846_673,stimulusJOSU26_2IFC_2019_Jun_13_0846_674,False,2019_Jun_13_0846,2IFC,,JOSU26,
2IFC,37,0,37,0,5,-1,correct answer,0.499959765933,True,False,stimulusJOSU26_2IFC_2019_Jun_13_0846_675,stimulusJOSU26_2IFC_2019_Jun_13_0846_676,False,2019_Jun_13_0846,2IFC,,JOSU26,
2IFC,38,0,38,0,5,-1,correct answer,0.433623809833,True,False,stimulusJOSU26_2IFC_2019_Jun_13_0846_677,stimulusJOSU26_2IFC_2019_Jun_13_0846_678,False,2019_Jun_13_0846,2IFC,,JOSU26,
2IFC,39,0,39,0,5,-1,correct answer,0.235248595476,True,False,stimulusJOSU26_2IFC_2019_Jun_13_0846_679,stimulusJOSU26_2IFC_2019_Jun_13_0846_680,False,2019_Jun_13_0846,2IFC,,JOSU26,
2IFC,40,0,40,0,5,-1,wrong answer,0.568246237002,False,True,stimulusJOSU26_2IFC_2019_Jun_13_0846_681,stimulusJOSU26_2IFC_2019_Jun_13_0846_682,False,2019_Jun_13_0846,2IFC,,JOSU26,
2IFC,41,0,41,0,5,-1,correct answer,0.475909446366,True,False,stimulusJOSU26_2IFC_2019_Jun_13_0846_683,stimulusJOSU26_2IFC_2019_Jun_13_0846_684,False,2019_Jun_13_0846,2IFC,,JOSU26,
2IFC,42,0,42,0,5,-1,wrong answer,0.568973317742,False,True,stimulusJOSU26_2IFC_2019_Jun_13_0846_685,stimulusJOSU26_2IFC_2019_Jun_13_0846_686,False,2019_Jun_13_0846,2IFC,,JOSU26,
2IFC,43,0,43,0,5,-1,correct answer,0.300536011346,True,False,stimulusJOSU26_2IFC_2019_Jun_13_0846_687,stimulusJOSU26_2IFC_2019_Jun_13_0846_688,False,2019_Jun_13_0846,2IFC,,JOSU26,
2IFC,44,0,44,0,5,-1,correct answer,0.501952566672,True,False,stimulusJOSU26_2IFC_2019_Jun_13_0846_689,stimulusJOSU26_2IFC_2019_Jun_13_0846_690,False,2019_Jun_13_0846,2IFC,,JOSU26,
2IFC,45,0,45,0,5,-1,correct answer,0.533956435975,True,False,stimulusJOSU26_2IFC_2019_Jun_13_0846_691,stimulusJOSU26_2IFC_2019_Jun_13_0846_692,False,2019_Jun_13_0846,2IFC,,JOSU26,
2IFC,46,0,46,0,5,-1,correct answer,0.602273287252,True,False,stimulusJOSU26_2IFC_2019_Jun_13_0846_693,stimulusJOSU26_2IFC_2019_Jun_13_0846_694,False,2019_Jun_13_0846,2IFC,,JOSU26,
2IFC,47,0,47,0,5,-1,correct answer,0.543534934521,False,True,stimulusJOSU26_2IFC_2019_Jun_13_0846_695,stimulusJOSU26_2IFC_2019_Jun_13_0846_696,False,2019_Jun_13_0846,2IFC,,JOSU26,
2IFC,48,0,48,0,5,-1,correct answer,0.502217370551,True,False,stimulusJOSU26_2IFC_2019_Jun_13_0846_697,stimulusJOSU26_2IFC_2019_Jun_13_0846_698,False,2019_Jun_13_0846,2IFC,,JOSU26,
2IFC,49,0,49,0,5,-1,correct answer,0.565352283418,False,True,stimulusJOSU26_2IFC_2019_Jun_13_0846_699,stimulusJOSU26_2IFC_2019_Jun_13_0846_700,False,2019_Jun_13_0846,2IFC,,JOSU26,
2IFC,50,0,50,0,5,-1,correct answer,0.702036482748,False,True,stimulusJOSU26_2IFC_2019_Jun_13_0846_701,stimulusJOSU26_2IFC_2019_Jun_13_0846_702,False,2019_Jun_13_0846,2IFC,,JOSU26,
2IFC,51,0,51,0,5,-1,correct answer,0.735495334491,True,False,stimulusJOSU26_2IFC_2019_Jun_13_0846_703,stimulusJOSU26_2IFC_2019_Jun_13_0846_704,False,2019_Jun_13_0846,2IFC,,JOSU26,
2IFC,52,0,52,0,5,-1,correct answer,0.636436639354,False,True,stimulusJOSU26_2IFC_2019_Jun_13_0846_705,stimulusJOSU26_2IFC_2019_Jun_13_0846_706,False,2019_Jun_13_0846,2IFC,,JOSU26,
2IFC,53,0,53,0,5,-1,correct answer,0.335390316322,True,False,stimulusJOSU26_2IFC_2019_Jun_13_0846_707,stimulusJOSU26_2IFC_2019_Jun_13_0846_708,False,2019_Jun_13_0846,2IFC,,JOSU26,
2IFC,54,0,54,0,5,-1,correct answer,0.533690811601,False,True,stimulusJOSU26_2IFC_2019_Jun_13_0846_709,stimulusJOSU26_2IFC_2019_Jun_13_0846_710,False,2019_Jun_13_0846,2IFC,,JOSU26,
2IFC,55,0,55,0,5,-1,correct answer,0.536411103327,False,True,stimulusJOSU26_2IFC_2019_Jun_13_0846_711,stimulusJOSU26_2IFC_2019_Jun_13_0846_712,False,2019_Jun_13_0846,2IFC,,JOSU26,
2IFC,56,0,56,0,5,-1,correct answer,0.467308873776,False,True,stimulusJOSU26_2IFC_2019_Jun_13_0846_713,stimulusJOSU26_2IFC_2019_Jun_13_0846_714,False,2019_Jun_13_0846,2IFC,,JOSU26,
2IFC,57,0,57,0,5,-1,correct answer,0.46790745249,True,False,stimulusJOSU26_2IFC_2019_Jun_13_0846_715,stimulusJOSU26_2IFC_2019_Jun_13_0846_716,False,2019_Jun_13_0846,2IFC,,JOSU26,
2IFC,58,0,58,0,5,-1,correct answer,0.569088270888,True,False,stimulusJOSU26_2IFC_2019_Jun_13_0846_717,stimulusJOSU26_2IFC_2019_Jun_13_0846_718,False,2019_Jun_13_0846,2IFC,,JOSU26,
2IFC,59,0,59,0,5,-1,correct answer,0.600025125779,False,True,stimulusJOSU26_2IFC_2019_Jun_13_0846_719,stimulusJOSU26_2IFC_2019_Jun_13_0846_720,False,2019_Jun_13_0846,2IFC,,JOSU26,
2IFC,60,0,60,0,5,-1,correct answer,0.265597955324,True,False,stimulusJOSU26_2IFC_2019_Jun_13_0846_721,stimulusJOSU26_2IFC_2019_Jun_13_0846_722,False,2019_Jun_13_0846,2IFC,,JOSU26,
2IFC,61,0,61,0,5,-1,correct answer,0.567670648452,False,True,stimulusJOSU26_2IFC_2019_Jun_13_0846_723,stimulusJOSU26_2IFC_2019_Jun_13_0846_724,False,2019_Jun_13_0846,2IFC,,JOSU26,
2IFC,62,0,62,0,5,-1,correct answer,0.867966079153,False,True,stimulusJOSU26_2IFC_2019_Jun_13_0846_725,stimulusJOSU26_2IFC_2019_Jun_13_0846_726,False,2019_Jun_13_0846,2IFC,,JOSU26,
2IFC,63,0,63,0,5,-1,correct answer,0.834341365844,False,True,stimulusJOSU26_2IFC_2019_Jun_13_0846_727,stimulusJOSU26_2IFC_2019_Jun_13_0846_728,False,2019_Jun_13_0846,2IFC,,JOSU26,
2IFC,64,0,64,0,5,-1,correct answer,0.568207645789,True,False,stimulusJOSU26_2IFC_2019_Jun_13_0846_729,stimulusJOSU26_2IFC_2019_Jun_13_0846_730,False,2019_Jun_13_0846,2IFC,,JOSU26,
2IFC,65,0,65,0,5,-1,correct answer,0.700389363803,False,True,stimulusJOSU26_2IFC_2019_Jun_13_0846_731,stimulusJOSU26_2IFC_2019_Jun_13_0846_732,False,2019_Jun_13_0846,2IFC,,JOSU26,
2IFC,66,0,66,0,5,-1,correct answer,0.4745341097,True,False,stimulusJOSU26_2IFC_2019_Jun_13_0846_733,stimulusJOSU26_2IFC_2019_Jun_13_0846_734,False,2019_Jun_13_0846,2IFC,,JOSU26,
2IFC,67,0,67,0,5,-1,correct answer,0.600927100051,False,True,stimulusJOSU26_2IFC_2019_Jun_13_0846_735,stimulusJOSU26_2IFC_2019_Jun_13_0846_736,False,2019_Jun_13_0846,2IFC,,JOSU26,
2IFC,68,0,68,0,5,-1,correct answer,0.77423342457,False,True,stimulusJOSU26_2IFC_2019_Jun_13_0846_737,stimulusJOSU26_2IFC_2019_Jun_13_0846_738,False,2019_Jun_13_0846,2IFC,,JOSU26,
2IFC,69,0,69,0,5,-1,no answer,-1,False,True,stimulusJOSU26_2IFC_2019_Jun_13_0846_739,stimulusJOSU26_2IFC_2019_Jun_13_0846_740,False,2019_Jun_13_0846,2IFC,,JOSU26,
2IFC,70,0,70,0,5,-1,correct answer,0.665865140036,True,False,stimulusJOSU26_2IFC_2019_Jun_13_0846_741,stimulusJOSU26_2IFC_2019_Jun_13_0846_742,False,2019_Jun_13_0846,2IFC,,JOSU26,
2IFC,71,0,71,0,5,-1,correct answer,0.532375825569,True,False,stimulusJOSU26_2IFC_2019_Jun_13_0846_743,stimulusJOSU26_2IFC_2019_Jun_13_0846_744,False,2019_Jun_13_0846,2IFC,,JOSU26,
2IFC,72,0,72,0,5,-1,wrong answer,0.572302863002,False,True,stimulusJOSU26_2IFC_2019_Jun_13_0846_745,stimulusJOSU26_2IFC_2019_Jun_13_0846_746,False,2019_Jun_13_0846,2IFC,,JOSU26,
2IFC,73,0,73,0,5,-1,correct answer,0.466459038667,False,True,stimulusJOSU26_2IFC_2019_Jun_13_0846_747,stimulusJOSU26_2IFC_2019_Jun_13_0846_748,False,2019_Jun_13_0846,2IFC,,JOSU26,
2IFC,74,0,74,0,5,-1,correct answer,0.46810451569,False,True,stimulusJOSU26_2IFC_2019_Jun_13_0846_749,stimulusJOSU26_2IFC_2019_Jun_13_0846_750,False,2019_Jun_13_0846,2IFC,,JOSU26,
2IFC,0,0,0,0,1.5,-1,correct answer,0.60045209527,True,False,stimulusJOSU26_2IFC_2019_Jun_13_0846_751,stimulusJOSU26_2IFC_2019_Jun_13_0846_752,False,2019_Jun_13_0846,2IFC,,JOSU26,
2IFC,1,0,1,0,1.5,-1,correct answer,0.536774028093,True,False,stimulusJOSU26_2IFC_2019_Jun_13_0846_753,stimulusJOSU26_2IFC_2019_Jun_13_0846_754,False,2019_Jun_13_0846,2IFC,,JOSU26,
2IFC,2,0,2,0,1.5,-1,correct answer,0.500187620521,False,True,stimulusJOSU26_2IFC_2019_Jun_13_0846_755,stimulusJOSU26_2IFC_2019_Jun_13_0846_756,False,2019_Jun_13_0846,2IFC,,JOSU26,
2IFC,3,0,3,0,1.5,-1,correct answer,0.535342856776,True,False,stimulusJOSU26_2IFC_2019_Jun_13_0846_757,stimulusJOSU26_2IFC_2019_Jun_13_0846_758,False,2019_Jun_13_0846,2IFC,,JOSU26,
2IFC,4,0,4,0,1.5,-1,correct answer,0.465621931478,True,False,stimulusJOSU26_2IFC_2019_Jun_13_0846_759,stimulusJOSU26_2IFC_2019_Jun_13_0846_760,False,2019_Jun_13_0846,2IFC,,JOSU26,
2IFC,5,0,5,0,1.5,-1,wrong answer,0.668573936448,False,True,stimulusJOSU26_2IFC_2019_Jun_13_0846_761,stimulusJOSU26_2IFC_2019_Jun_13_0846_762,False,2019_Jun_13_0846,2IFC,,JOSU26,
2IFC,6,0,6,0,1.5,-1,correct answer,0.700224733911,False,True,stimulusJOSU26_2IFC_2019_Jun_13_0846_763,stimulusJOSU26_2IFC_2019_Jun_13_0846_764,False,2019_Jun_13_0846,2IFC,,JOSU26,
2IFC,7,0,7,0,1.5,-1,wrong answer,0.568307818845,True,False,stimulusJOSU26_2IFC_2019_Jun_13_0846_765,stimulusJOSU26_2IFC_2019_Jun_13_0846_766,False,2019_Jun_13_0846,2IFC,,JOSU26,
2IFC,8,0,8,0,1.5,-1,correct answer,0.635420122184,True,False,stimulusJOSU26_2IFC_2019_Jun_13_0846_767,stimulusJOSU26_2IFC_2019_Jun_13_0846_768,False,2019_Jun_13_0846,2IFC,,JOSU26,
2IFC,9,0,9,0,1.5,-1,wrong answer,0.667485573329,True,False,stimulusJOSU26_2IFC_2019_Jun_13_0846_769,stimulusJOSU26_2IFC_2019_Jun_13_0846_770,False,2019_Jun_13_0846,2IFC,,JOSU26,
2IFC,10,0,10,0,1.5,-1,correct answer,0.735432931222,False,True,stimulusJOSU26_2IFC_2019_Jun_13_0846_771,stimulusJOSU26_2IFC_2019_Jun_13_0846_772,False,2019_Jun_13_0846,2IFC,,JOSU26,
2IFC,11,0,11,0,1.5,-1,correct answer,0.63520827936,False,True,stimulusJOSU26_2IFC_2019_Jun_13_0846_773,stimulusJOSU26_2IFC_2019_Jun_13_0846_774,False,2019_Jun_13_0846,2IFC,,JOSU26,
2IFC,12,0,12,0,1.5,-1,correct answer,0.633815289475,True,False,stimulusJOSU26_2IFC_2019_Jun_13_0846_775,stimulusJOSU26_2IFC_2019_Jun_13_0846_776,False,2019_Jun_13_0846,2IFC,,JOSU26,
2IFC,13,0,13,0,1.5,-1,wrong answer,0.633969655726,False,True,stimulusJOSU26_2IFC_2019_Jun_13_0846_777,stimulusJOSU26_2IFC_2019_Jun_13_0846_778,False,2019_Jun_13_0846,2IFC,,JOSU26,
2IFC,14,0,14,0,1.5,-1,correct answer,0.73648721911,False,True,stimulusJOSU26_2IFC_2019_Jun_13_0846_779,stimulusJOSU26_2IFC_2019_Jun_13_0846_780,False,2019_Jun_13_0846,2IFC,,JOSU26,
2IFC,15,0,15,0,1.5,-1,wrong answer,0.702765205875,False,True,stimulusJOSU26_2IFC_2019_Jun_13_0846_781,stimulusJOSU26_2IFC_2019_Jun_13_0846_782,False,2019_Jun_13_0846,2IFC,,JOSU26,
2IFC,16,0,16,0,1.5,-1,correct answer,0.665901678614,True,False,stimulusJOSU26_2IFC_2019_Jun_13_0846_783,stimulusJOSU26_2IFC_2019_Jun_13_0846_784,False,2019_Jun_13_0846,2IFC,,JOSU26,
2IFC,17,0,17,0,1.5,-1,correct answer,0.736579181626,True,False,stimulusJOSU26_2IFC_2019_Jun_13_0846_785,stimulusJOSU26_2IFC_2019_Jun_13_0846_786,False,2019_Jun_13_0846,2IFC,,JOSU26,
2IFC,18,0,18,0,1.5,-1,correct answer,0.60137131298,False,True,stimulusJOSU26_2IFC_2019_Jun_13_0846_787,stimulusJOSU26_2IFC_2019_Jun_13_0846_788,False,2019_Jun_13_0846,2IFC,,JOSU26,
2IFC,19,0,19,0,1.5,-1,correct answer,0.499497899786,True,False,stimulusJOSU26_2IFC_2019_Jun_13_0846_789,stimulusJOSU26_2IFC_2019_Jun_13_0846_790,False,2019_Jun_13_0846,2IFC,,JOSU26,
2IFC,20,0,20,0,1.5,-1,wrong answer,0.669176210649,True,False,stimulusJOSU26_2IFC_2019_Jun_13_0846_791,stimulusJOSU26_2IFC_2019_Jun_13_0846_792,False,2019_Jun_13_0846,2IFC,,JOSU26,
2IFC,21,0,21,0,1.5,-1,wrong answer,0.465458943509,False,True,stimulusJOSU26_2IFC_2019_Jun_13_0846_793,stimulusJOSU26_2IFC_2019_Jun_13_0846_794,False,2019_Jun_13_0846,2IFC,,JOSU26,
2IFC,22,0,22,0,1.5,-1,wrong answer,0.702214660589,True,False,stimulusJOSU26_2IFC_2019_Jun_13_0846_795,stimulusJOSU26_2IFC_2019_Jun_13_0846_796,False,2019_Jun_13_0846,2IFC,,JOSU26,
2IFC,23,0,23,0,1.5,-1,correct answer,0.630911893211,True,False,stimulusJOSU26_2IFC_2019_Jun_13_0846_797,stimulusJOSU26_2IFC_2019_Jun_13_0846_798,False,2019_Jun_13_0846,2IFC,,JOSU26,
2IFC,24,0,24,0,1.5,-1,wrong answer,0.634491051547,False,True,stimulusJOSU26_2IFC_2019_Jun_13_0846_799,stimulusJOSU26_2IFC_2019_Jun_13_0846_800,False,2019_Jun_13_0846,2IFC,,JOSU26,
2IFC,25,0,25,0,1.5,-1,wrong answer,0.566601170227,True,False,stimulusJOSU26_2IFC_2019_Jun_13_0846_801,stimulusJOSU26_2IFC_2019_Jun_13_0846_802,False,2019_Jun_13_0846,2IFC,,JOSU26,
2IFC,26,0,26,0,1.5,-1,correct answer,0.566692312248,False,True,stimulusJOSU26_2IFC_2019_Jun_13_0846_803,stimulusJOSU26_2IFC_2019_Jun_13_0846_804,False,2019_Jun_13_0846,2IFC,,JOSU26,
2IFC,27,0,27,0,1.5,-1,wrong answer,0.76894269092,False,True,stimulusJOSU26_2IFC_2019_Jun_13_0846_805,stimulusJOSU26_2IFC_2019_Jun_13_0846_806,False,2019_Jun_13_0846,2IFC,,JOSU26,
2IFC,28,0,28,0,1.5,-1,wrong answer,0.635508390144,True,False,stimulusJOSU26_2IFC_2019_Jun_13_0846_807,stimulusJOSU26_2IFC_2019_Jun_13_0846_808,False,2019_Jun_13_0846,2IFC,,JOSU26,
2IFC,29,0,29,0,1.5,-1,correct answer,0.634002089035,True,False,stimulusJOSU26_2IFC_2019_Jun_13_0846_809,stimulusJOSU26_2IFC_2019_Jun_13_0846_810,False,2019_Jun_13_0846,2IFC,,JOSU26,
2IFC,30,0,30,0,1.5,-1,wrong answer,0.736683871131,True,False,stimulusJOSU26_2IFC_2019_Jun_13_0846_811,stimulusJOSU26_2IFC_2019_Jun_13_0846_812,False,2019_Jun_13_0846,2IFC,,JOSU26,
2IFC,31,0,31,0,1.5,-1,correct answer,0.732745483052,True,False,stimulusJOSU26_2IFC_2019_Jun_13_0846_813,stimulusJOSU26_2IFC_2019_Jun_13_0846_814,False,2019_Jun_13_0846,2IFC,,JOSU26,
2IFC,32,0,32,0,1.5,-1,correct answer,0.571308104787,True,False,stimulusJOSU26_2IFC_2019_Jun_13_0846_815,stimulusJOSU26_2IFC_2019_Jun_13_0846_816,False,2019_Jun_13_0846,2IFC,,JOSU26,
2IFC,33,0,33,0,1.5,-1,wrong answer,0.600037442055,False,True,stimulusJOSU26_2IFC_2019_Jun_13_0846_817,stimulusJOSU26_2IFC_2019_Jun_13_0846_818,False,2019_Jun_13_0846,2IFC,,JOSU26,
2IFC,34,0,34,0,1.5,-1,correct answer,0.602240853943,False,True,stimulusJOSU26_2IFC_2019_Jun_13_0846_819,stimulusJOSU26_2IFC_2019_Jun_13_0846_820,False,2019_Jun_13_0846,2IFC,,JOSU26,
2IFC,35,0,35,0,1.5,-1,correct answer,0.565769399982,True,False,stimulusJOSU26_2IFC_2019_Jun_13_0846_821,stimulusJOSU26_2IFC_2019_Jun_13_0846_822,False,2019_Jun_13_0846,2IFC,,JOSU26,
2IFC,36,0,36,0,1.5,-1,correct answer,0.700945246033,True,False,stimulusJOSU26_2IFC_2019_Jun_13_0846_823,stimulusJOSU26_2IFC_2019_Jun_13_0846_824,False,2019_Jun_13_0846,2IFC,,JOSU26,
2IFC,37,0,37,0,1.5,-1,correct answer,0.669897954445,True,False,stimulusJOSU26_2IFC_2019_Jun_13_0846_825,stimulusJOSU26_2IFC_2019_Jun_13_0846_826,False,2019_Jun_13_0846,2IFC,,JOSU26,
2IFC,38,0,38,0,1.5,-1,correct answer,0.734135599341,True,False,stimulusJOSU26_2IFC_2019_Jun_13_0846_827,stimulusJOSU26_2IFC_2019_Jun_13_0846_828,False,2019_Jun_13_0846,2IFC,,JOSU26,
2IFC,39,0,39,0,1.5,-1,wrong answer,0.834834023379,False,True,stimulusJOSU26_2IFC_2019_Jun_13_0846_829,stimulusJOSU26_2IFC_2019_Jun_13_0846_830,False,2019_Jun_13_0846,2IFC,,JOSU26,
2IFC,40,0,40,0,1.5,-1,correct answer,0.835774179082,True,False,stimulusJOSU26_2IFC_2019_Jun_13_0846_831,stimulusJOSU26_2IFC_2019_Jun_13_0846_832,False,2019_Jun_13_0846,2IFC,,JOSU26,
2IFC,41,0,41,0,1.5,-1,correct answer,0.870171543676,False,True,stimulusJOSU26_2IFC_2019_Jun_13_0846_833,stimulusJOSU26_2IFC_2019_Jun_13_0846_834,False,2019_Jun_13_0846,2IFC,,JOSU26,
2IFC,42,0,42,0,1.5,-1,wrong answer,0.599297223613,True,False,stimulusJOSU26_2IFC_2019_Jun_13_0846_835,stimulusJOSU26_2IFC_2019_Jun_13_0846_836,False,2019_Jun_13_0846,2IFC,,JOSU26,
2IFC,43,0,43,0,1.5,-1,wrong answer,0.503270016052,False,True,stimulusJOSU26_2IFC_2019_Jun_13_0846_837,stimulusJOSU26_2IFC_2019_Jun_13_0846_838,False,2019_Jun_13_0846,2IFC,,JOSU26,
2IFC,44,0,44,0,1.5,-1,correct answer,0.701818071306,False,True,stimulusJOSU26_2IFC_2019_Jun_13_0846_839,stimulusJOSU26_2IFC_2019_Jun_13_0846_840,False,2019_Jun_13_0846,2IFC,,JOSU26,
2IFC,45,0,45,0,1.5,-1,correct answer,0.633638753556,True,False,stimulusJOSU26_2IFC_2019_Jun_13_0846_841,stimulusJOSU26_2IFC_2019_Jun_13_0846_842,False,2019_Jun_13_0846,2IFC,,JOSU26,
2IFC,46,0,46,0,1.5,-1,correct answer,0.73922229046,True,False,stimulusJOSU26_2IFC_2019_Jun_13_0846_843,stimulusJOSU26_2IFC_2019_Jun_13_0846_844,False,2019_Jun_13_0846,2IFC,,JOSU26,
2IFC,47,0,47,0,1.5,-1,wrong answer,0.700232534204,False,True,stimulusJOSU26_2IFC_2019_Jun_13_0846_845,stimulusJOSU26_2IFC_2019_Jun_13_0846_846,False,2019_Jun_13_0846,2IFC,,JOSU26,
2IFC,48,0,48,0,1.5,-1,correct answer,0.568669512402,True,False,stimulusJOSU26_2IFC_2019_Jun_13_0846_847,stimulusJOSU26_2IFC_2019_Jun_13_0846_848,False,2019_Jun_13_0846,2IFC,,JOSU26,
2IFC,49,0,49,0,1.5,-1,correct answer,0.533381257672,True,False,stimulusJOSU26_2IFC_2019_Jun_13_0846_849,stimulusJOSU26_2IFC_2019_Jun_13_0846_850,False,2019_Jun_13_0846,2IFC,,JOSU26,
2IFC,50,0,50,0,1.5,-1,wrong answer,0.534234787337,False,True,stimulusJOSU26_2IFC_2019_Jun_13_0846_851,stimulusJOSU26_2IFC_2019_Jun_13_0846_852,False,2019_Jun_13_0846,2IFC,,JOSU26,
2IFC,51,0,51,0,1.5,-1,correct answer,0.633696230594,False,True,stimulusJOSU26_2IFC_2019_Jun_13_0846_853,stimulusJOSU26_2IFC_2019_Jun_13_0846_854,False,2019_Jun_13_0846,2IFC,,JOSU26,
2IFC,52,0,52,0,1.5,-1,correct answer,0.534285695292,False,True,stimulusJOSU26_2IFC_2019_Jun_13_0846_855,stimulusJOSU26_2IFC_2019_Jun_13_0846_856,False,2019_Jun_13_0846,2IFC,,JOSU26,
2IFC,53,0,53,0,1.5,-1,wrong answer,0.644049433526,False,True,stimulusJOSU26_2IFC_2019_Jun_13_0846_857,stimulusJOSU26_2IFC_2019_Jun_13_0846_858,False,2019_Jun_13_0846,2IFC,,JOSU26,
2IFC,54,0,54,0,1.5,-1,wrong answer,0.733038614504,False,True,stimulusJOSU26_2IFC_2019_Jun_13_0846_859,stimulusJOSU26_2IFC_2019_Jun_13_0846_860,False,2019_Jun_13_0846,2IFC,,JOSU26,
2IFC,55,0,55,0,1.5,-1,correct answer,0.601178355515,False,True,stimulusJOSU26_2IFC_2019_Jun_13_0846_861,stimulusJOSU26_2IFC_2019_Jun_13_0846_862,False,2019_Jun_13_0846,2IFC,,JOSU26,
2IFC,56,0,56,0,1.5,-1,wrong answer,0.802749276627,True,False,stimulusJOSU26_2IFC_2019_Jun_13_0846_863,stimulusJOSU26_2IFC_2019_Jun_13_0846_864,False,2019_Jun_13_0846,2IFC,,JOSU26,
2IFC,57,0,57,0,1.5,-1,wrong answer,0.63312023133,False,True,stimulusJOSU26_2IFC_2019_Jun_13_0846_865,stimulusJOSU26_2IFC_2019_Jun_13_0846_866,False,2019_Jun_13_0846,2IFC,,JOSU26,
2IFC,58,0,58,0,1.5,-1,correct answer,0.568024541251,False,True,stimulusJOSU26_2IFC_2019_Jun_13_0846_867,stimulusJOSU26_2IFC_2019_Jun_13_0846_868,False,2019_Jun_13_0846,2IFC,,JOSU26,
2IFC,59,0,59,0,1.5,-1,correct answer,0.834645992145,False,True,stimulusJOSU26_2IFC_2019_Jun_13_0846_869,stimulusJOSU26_2IFC_2019_Jun_13_0846_870,False,2019_Jun_13_0846,2IFC,,JOSU26,
2IFC,60,0,60,0,1.5,-1,wrong answer,0.663133763243,True,False,stimulusJOSU26_2IFC_2019_Jun_13_0846_871,stimulusJOSU26_2IFC_2019_Jun_13_0846_872,False,2019_Jun_13_0846,2IFC,,JOSU26,
2IFC,61,0,61,0,1.5,-1,correct answer,0.501667646226,True,False,stimulusJOSU26_2IFC_2019_Jun_13_0846_873,stimulusJOSU26_2IFC_2019_Jun_13_0846_874,False,2019_Jun_13_0846,2IFC,,JOSU26,
2IFC,62,0,62,0,1.5,-1,no answer,-1,True,False,stimulusJOSU26_2IFC_2019_Jun_13_0846_875,stimulusJOSU26_2IFC_2019_Jun_13_0846_876,False,2019_Jun_13_0846,2IFC,,JOSU26,
2IFC,63,0,63,0,1.5,-1,wrong answer,0.73367619561,True,False,stimulusJOSU26_2IFC_2019_Jun_13_0846_877,stimulusJOSU26_2IFC_2019_Jun_13_0846_878,False,2019_Jun_13_0846,2IFC,,JOSU26,
2IFC,64,0,64,0,1.5,-1,correct answer,0.601256770082,True,False,stimulusJOSU26_2IFC_2019_Jun_13_0846_879,stimulusJOSU26_2IFC_2019_Jun_13_0846_880,False,2019_Jun_13_0846,2IFC,,JOSU26,
2IFC,65,0,65,0,1.5,-1,correct answer,0.733695902396,False,True,stimulusJOSU26_2IFC_2019_Jun_13_0846_881,stimulusJOSU26_2IFC_2019_Jun_13_0846_882,False,2019_Jun_13_0846,2IFC,,JOSU26,
2IFC,66,0,66,0,1.5,-1,wrong answer,0.5659057023,False,True,stimulusJOSU26_2IFC_2019_Jun_13_0846_883,stimulusJOSU26_2IFC_2019_Jun_13_0846_884,False,2019_Jun_13_0846,2IFC,,JOSU26,
2IFC,67,0,67,0,1.5,-1,correct answer,0.497876645066,True,False,stimulusJOSU26_2IFC_2019_Jun_13_0846_885,stimulusJOSU26_2IFC_2019_Jun_13_0846_886,False,2019_Jun_13_0846,2IFC,,JOSU26,
2IFC,68,0,68,0,1.5,-1,correct answer,0.568842352834,False,True,stimulusJOSU26_2IFC_2019_Jun_13_0846_887,stimulusJOSU26_2IFC_2019_Jun_13_0846_888,False,2019_Jun_13_0846,2IFC,,JOSU26,
2IFC,69,0,69,0,1.5,-1,wrong answer,0.568840710446,True,False,stimulusJOSU26_2IFC_2019_Jun_13_0846_889,stimulusJOSU26_2IFC_2019_Jun_13_0846_890,False,2019_Jun_13_0846,2IFC,,JOSU26,
2IFC,70,0,70,0,1.5,-1,wrong answer,0.56810049247,False,True,stimulusJOSU26_2IFC_2019_Jun_13_0846_891,stimulusJOSU26_2IFC_2019_Jun_13_0846_892,False,2019_Jun_13_0846,2IFC,,JOSU26,
2IFC,71,0,71,0,1.5,-1,wrong answer,0.768634369131,False,True,stimulusJOSU26_2IFC_2019_Jun_13_0846_893,stimulusJOSU26_2IFC_2019_Jun_13_0846_894,False,2019_Jun_13_0846,2IFC,,JOSU26,
2IFC,72,0,72,0,1.5,-1,wrong answer,0.670923913829,False,True,stimulusJOSU26_2IFC_2019_Jun_13_0846_895,stimulusJOSU26_2IFC_2019_Jun_13_0846_896,False,2019_Jun_13_0846,2IFC,,JOSU26,
2IFC,73,0,73,0,1.5,-1,correct answer,0.666911627166,False,True,stimulusJOSU26_2IFC_2019_Jun_13_0846_897,stimulusJOSU26_2IFC_2019_Jun_13_0846_898,False,2019_Jun_13_0846,2IFC,,JOSU26,
2IFC,74,0,74,0,1.5,-1,wrong answer,0.633536527399,True,False,stimulusJOSU26_2IFC_2019_Jun_13_0846_899,stimulusJOSU26_2IFC_2019_Jun_13_0846_900,False,2019_Jun_13_0846,2IFC,,JOSU26,
2IFC,0,0,0,0,5.8,-1,correct answer,0.667878057342,True,False,stimulusJOSU26_2IFC_2019_Jun_13_0846_901,stimulusJOSU26_2IFC_2019_Jun_13_0846_902,False,2019_Jun_13_0846,2IFC,,JOSU26,
2IFC,1,0,1,0,5.8,-1,correct answer,0.333303089719,True,False,stimulusJOSU26_2IFC_2019_Jun_13_0846_903,stimulusJOSU26_2IFC_2019_Jun_13_0846_904,False,2019_Jun_13_0846,2IFC,,JOSU26,
2IFC,2,0,2,0,5.8,-1,correct answer,0.167021243367,True,False,stimulusJOSU26_2IFC_2019_Jun_13_0846_905,stimulusJOSU26_2IFC_2019_Jun_13_0846_906,False,2019_Jun_13_0846,2IFC,,JOSU26,
2IFC,3,0,3,0,5.8,-1,correct answer,0.602348006796,False,True,stimulusJOSU26_2IFC_2019_Jun_13_0846_907,stimulusJOSU26_2IFC_2019_Jun_13_0846_908,False,2019_Jun_13_0846,2IFC,,JOSU26,
2IFC,4,0,4,0,5.8,-1,correct answer,0.566952188965,False,True,stimulusJOSU26_2IFC_2019_Jun_13_0846_909,stimulusJOSU26_2IFC_2019_Jun_13_0846_910,False,2019_Jun_13_0846,2IFC,,JOSU26,
2IFC,5,0,5,0,5.8,-1,correct answer,0.635424638167,False,True,stimulusJOSU26_2IFC_2019_Jun_13_0846_911,stimulusJOSU26_2IFC_2019_Jun_13_0846_912,False,2019_Jun_13_0846,2IFC,,JOSU26,
2IFC,6,0,6,0,5.8,-1,correct answer,0.466556749307,True,False,stimulusJOSU26_2IFC_2019_Jun_13_0846_913,stimulusJOSU26_2IFC_2019_Jun_13_0846_914,False,2019_Jun_13_0846,2IFC,,JOSU26,
2IFC,7,0,7,0,5.8,-1,correct answer,0.767255748622,False,True,stimulusJOSU26_2IFC_2019_Jun_13_0846_915,stimulusJOSU26_2IFC_2019_Jun_13_0846_916,False,2019_Jun_13_0846,2IFC,,JOSU26,
2IFC,8,0,8,0,5.8,-1,correct answer,0.566875827033,False,True,stimulusJOSU26_2IFC_2019_Jun_13_0846_917,stimulusJOSU26_2IFC_2019_Jun_13_0846_918,False,2019_Jun_13_0846,2IFC,,JOSU26,
2IFC,9,0,9,0,5.8,-1,correct answer,0.699824449606,True,False,stimulusJOSU26_2IFC_2019_Jun_13_0846_919,stimulusJOSU26_2IFC_2019_Jun_13_0846_920,False,2019_Jun_13_0846,2IFC,,JOSU26,
2IFC,10,0,10,0,5.8,-1,correct answer,0.568003192544,True,False,stimulusJOSU26_2IFC_2019_Jun_13_0846_921,stimulusJOSU26_2IFC_2019_Jun_13_0846_922,False,2019_Jun_13_0846,2IFC,,JOSU26,
2IFC,11,0,11,0,5.8,-1,correct answer,0.4678142583,True,False,stimulusJOSU26_2IFC_2019_Jun_13_0846_923,stimulusJOSU26_2IFC_2019_Jun_13_0846_924,False,2019_Jun_13_0846,2IFC,,JOSU26,
2IFC,12,0,12,0,5.8,-1,correct answer,0.66744903475,False,True,stimulusJOSU26_2IFC_2019_Jun_13_0846_925,stimulusJOSU26_2IFC_2019_Jun_13_0846_926,False,2019_Jun_13_0846,2IFC,,JOSU26,
2IFC,13,0,13,0,5.8,-1,correct answer,0.700840556528,True,False,stimulusJOSU26_2IFC_2019_Jun_13_0846_927,stimulusJOSU26_2IFC_2019_Jun_13_0846_928,False,2019_Jun_13_0846,2IFC,,JOSU26,
2IFC,14,0,14,0,5.8,-1,correct answer,0.435054569971,True,False,stimulusJOSU26_2IFC_2019_Jun_13_0846_929,stimulusJOSU26_2IFC_2019_Jun_13_0846_930,False,2019_Jun_13_0846,2IFC,,JOSU26,
2IFC,15,0,15,0,5.8,-1,correct answer,0.334605348296,True,False,stimulusJOSU26_2IFC_2019_Jun_13_0846_931,stimulusJOSU26_2IFC_2019_Jun_13_0846_932,False,2019_Jun_13_0846,2IFC,,JOSU26,
2IFC,16,0,16,0,5.8,-1,correct answer,0.465851016808,True,False,stimulusJOSU26_2IFC_2019_Jun_13_0846_933,stimulusJOSU26_2IFC_2019_Jun_13_0846_934,False,2019_Jun_13_0846,2IFC,,JOSU26,
2IFC,17,0,17,0,5.8,-1,correct answer,0.66999238031,False,True,stimulusJOSU26_2IFC_2019_Jun_13_0846_935,stimulusJOSU26_2IFC_2019_Jun_13_0846_936,False,2019_Jun_13_0846,2IFC,,JOSU26,
2IFC,18,0,18,0,5.8,-1,correct answer,0.501113406383,True,False,stimulusJOSU26_2IFC_2019_Jun_13_0846_937,stimulusJOSU26_2IFC_2019_Jun_13_0846_938,False,2019_Jun_13_0846,2IFC,,JOSU26,
2IFC,19,0,19,0,5.8,-1,correct answer,0.670669374056,True,False,stimulusJOSU26_2IFC_2019_Jun_13_0846_939,stimulusJOSU26_2IFC_2019_Jun_13_0846_940,False,2019_Jun_13_0846,2IFC,,JOSU26,
2IFC,20,0,20,0,5.8,-1,correct answer,0.701801649295,False,True,stimulusJOSU26_2IFC_2019_Jun_13_0846_941,stimulusJOSU26_2IFC_2019_Jun_13_0846_942,False,2019_Jun_13_0846,2IFC,,JOSU26,
2IFC,21,0,21,0,5.8,-1,correct answer,0.565684006084,False,True,stimulusJOSU26_2IFC_2019_Jun_13_0846_943,stimulusJOSU26_2IFC_2019_Jun_13_0846_944,False,2019_Jun_13_0846,2IFC,,JOSU26,
2IFC,22,0,22,0,5.8,-1,correct answer,0.467855312862,True,False,stimulusJOSU26_2IFC_2019_Jun_13_0846_945,stimulusJOSU26_2IFC_2019_Jun_13_0846_946,False,2019_Jun_13_0846,2IFC,,JOSU26,
2IFC,23,0,23,0,5.8,-1,correct answer,0.634316158015,True,False,stimulusJOSU26_2IFC_2019_Jun_13_0846_947,stimulusJOSU26_2IFC_2019_Jun_13_0846_948,False,2019_Jun_13_0846,2IFC,,JOSU26,
2IFC,24,0,24,0,5.8,-1,correct answer,0.466707420535,True,False,stimulusJOSU26_2IFC_2019_Jun_13_0846_949,stimulusJOSU26_2IFC_2019_Jun_13_0846_950,False,2019_Jun_13_0846,2IFC,,JOSU26,
2IFC,25,0,25,0,5.8,-1,correct answer,0.833705837373,False,True,stimulusJOSU26_2IFC_2019_Jun_13_0846_951,stimulusJOSU26_2IFC_2019_Jun_13_0846_952,False,2019_Jun_13_0846,2IFC,,JOSU26,
2IFC,26,0,26,0,5.8,-1,correct answer,0.601524857804,True,False,stimulusJOSU26_2IFC_2019_Jun_13_0846_953,stimulusJOSU26_2IFC_2019_Jun_13_0846_954,False,2019_Jun_13_0846,2IFC,,JOSU26,
2IFC,27,0,27,0,5.8,-1,correct answer,0.669220549986,True,False,stimulusJOSU26_2IFC_2019_Jun_13_0846_955,stimulusJOSU26_2IFC_2019_Jun_13_0846_956,False,2019_Jun_13_0846,2IFC,,JOSU26,
2IFC,28,0,28,0,5.8,-1,correct answer,0.534720055293,False,True,stimulusJOSU26_2IFC_2019_Jun_13_0846_957,stimulusJOSU26_2IFC_2019_Jun_13_0846_958,False,2019_Jun_13_0846,2IFC,,JOSU26,
2IFC,29,0,29,0,5.8,-1,correct answer,0.367329729255,True,False,stimulusJOSU26_2IFC_2019_Jun_13_0846_959,stimulusJOSU26_2IFC_2019_Jun_13_0846_960,False,2019_Jun_13_0846,2IFC,,JOSU26,
2IFC,30,0,30,0,5.8,-1,correct answer,0.600051400717,False,True,stimulusJOSU26_2IFC_2019_Jun_13_0846_961,stimulusJOSU26_2IFC_2019_Jun_13_0846_962,False,2019_Jun_13_0846,2IFC,,JOSU26,
2IFC,31,0,31,0,5.8,-1,correct answer,0.401766095776,True,False,stimulusJOSU26_2IFC_2019_Jun_13_0846_963,stimulusJOSU26_2IFC_2019_Jun_13_0846_964,False,2019_Jun_13_0846,2IFC,,JOSU26,
2IFC,32,0,32,0,5.8,-1,correct answer,0.669023076072,False,True,stimulusJOSU26_2IFC_2019_Jun_13_0846_965,stimulusJOSU26_2IFC_2019_Jun_13_0846_966,False,2019_Jun_13_0846,2IFC,,JOSU26,
2IFC,33,0,33,0,5.8,-1,correct answer,0.466071481351,True,False,stimulusJOSU26_2IFC_2019_Jun_13_0846_967,stimulusJOSU26_2IFC_2019_Jun_13_0846_968,False,2019_Jun_13_0846,2IFC,,JOSU26,
2IFC,34,0,34,0,5.8,-1,correct answer,0.534961047117,False,True,stimulusJOSU26_2IFC_2019_Jun_13_0846_969,stimulusJOSU26_2IFC_2019_Jun_13_0846_970,False,2019_Jun_13_0846,2IFC,,JOSU26,
2IFC,35,0,35,0,5.8,-1,correct answer,0.466316167731,True,False,stimulusJOSU26_2IFC_2019_Jun_13_0846_971,stimulusJOSU26_2IFC_2019_Jun_13_0846_972,False,2019_Jun_13_0846,2IFC,,JOSU26,
2IFC,36,0,36,0,5.8,-1,correct answer,0.505646679085,True,False,stimulusJOSU26_2IFC_2019_Jun_13_0846_973,stimulusJOSU26_2IFC_2019_Jun_13_0846_974,False,2019_Jun_13_0846,2IFC,,JOSU26,
2IFC,37,0,37,0,5.8,-1,correct answer,0.532220638357,True,False,stimulusJOSU26_2IFC_2019_Jun_13_0846_975,stimulusJOSU26_2IFC_2019_Jun_13_0846_976,False,2019_Jun_13_0846,2IFC,,JOSU26,
2IFC,38,0,38,0,5.8,-1,correct answer,0.668097700924,False,True,stimulusJOSU26_2IFC_2019_Jun_13_0846_977,stimulusJOSU26_2IFC_2019_Jun_13_0846_978,False,2019_Jun_13_0846,2IFC,,JOSU26,
2IFC,39,0,39,0,5.8,-1,correct answer,0.534624397755,False,True,stimulusJOSU26_2IFC_2019_Jun_13_0846_979,stimulusJOSU26_2IFC_2019_Jun_13_0846_980,False,2019_Jun_13_0846,2IFC,,JOSU26,
2IFC,40,0,40,0,5.8,-1,correct answer,0.701212102547,True,False,stimulusJOSU26_2IFC_2019_Jun_13_0846_981,stimulusJOSU26_2IFC_2019_Jun_13_0846_982,False,2019_Jun_13_0846,2IFC,,JOSU26,
2IFC,41,0,41,0,5.8,-1,correct answer,0.53137983568,False,True,stimulusJOSU26_2IFC_2019_Jun_13_0846_983,stimulusJOSU26_2IFC_2019_Jun_13_0846_984,False,2019_Jun_13_0846,2IFC,,JOSU26,
2IFC,42,0,42,0,5.8,-1,correct answer,0.434570944402,True,False,stimulusJOSU26_2IFC_2019_Jun_13_0846_985,stimulusJOSU26_2IFC_2019_Jun_13_0846_986,False,2019_Jun_13_0846,2IFC,,JOSU26,
2IFC,43,0,43,0,5.8,-1,correct answer,0.434003566857,True,False,stimulusJOSU26_2IFC_2019_Jun_13_0846_987,stimulusJOSU26_2IFC_2019_Jun_13_0846_988,False,2019_Jun_13_0846,2IFC,,JOSU26,
2IFC,44,0,44,0,5.8,-1,wrong answer,0.636009669397,False,True,stimulusJOSU26_2IFC_2019_Jun_13_0846_989,stimulusJOSU26_2IFC_2019_Jun_13_0846_990,False,2019_Jun_13_0846,2IFC,,JOSU26,
2IFC,45,0,45,0,5.8,-1,correct answer,0.465560348704,False,True,stimulusJOSU26_2IFC_2019_Jun_13_0846_991,stimulusJOSU26_2IFC_2019_Jun_13_0846_992,False,2019_Jun_13_0846,2IFC,,JOSU26,
2IFC,46,0,46,0,5.8,-1,correct answer,0.534837061539,False,True,stimulusJOSU26_2IFC_2019_Jun_13_0846_993,stimulusJOSU26_2IFC_2019_Jun_13_0846_994,False,2019_Jun_13_0846,2IFC,,JOSU26,
2IFC,47,0,47,0,5.8,-1,correct answer,0.566606096923,False,True,stimulusJOSU26_2IFC_2019_Jun_13_0846_995,stimulusJOSU26_2IFC_2019_Jun_13_0846_996,False,2019_Jun_13_0846,2IFC,,JOSU26,
2IFC,48,0,48,0,5.8,-1,correct answer,0.634368297644,False,True,stimulusJOSU26_2IFC_2019_Jun_13_0846_997,stimulusJOSU26_2IFC_2019_Jun_13_0846_998,False,2019_Jun_13_0846,2IFC,,JOSU26,
2IFC,49,0,49,0,5.8,-1,correct answer,0.641300403047,False,True,stimulusJOSU26_2IFC_2019_Jun_13_0846_999,stimulusJOSU26_2IFC_2019_Jun_13_0846_1000,False,2019_Jun_13_0846,2IFC,,JOSU26,
2IFC,50,0,50,0,5.8,-1,correct answer,0.568351337221,True,False,stimulusJOSU26_2IFC_2019_Jun_13_0846_1001,stimulusJOSU26_2IFC_2019_Jun_13_0846_1002,False,2019_Jun_13_0846,2IFC,,JOSU26,
2IFC,51,0,51,0,5.8,-1,correct answer,0.434860791545,False,True,stimulusJOSU26_2IFC_2019_Jun_13_0846_1003,stimulusJOSU26_2IFC_2019_Jun_13_0846_1004,False,2019_Jun_13_0846,2IFC,,JOSU26,
2IFC,52,0,52,0,5.8,-1,correct answer,0.534257367719,False,True,stimulusJOSU26_2IFC_2019_Jun_13_0846_1005,stimulusJOSU26_2IFC_2019_Jun_13_0846_1006,False,2019_Jun_13_0846,2IFC,,JOSU26,
2IFC,53,0,53,0,5.8,-1,correct answer,0.468441165518,True,False,stimulusJOSU26_2IFC_2019_Jun_13_0846_1007,stimulusJOSU26_2IFC_2019_Jun_13_0846_1008,False,2019_Jun_13_0846,2IFC,,JOSU26,
2IFC,54,0,54,0,5.8,-1,correct answer,0.599367427174,False,True,stimulusJOSU26_2IFC_2019_Jun_13_0846_1009,stimulusJOSU26_2IFC_2019_Jun_13_0846_1010,False,2019_Jun_13_0846,2IFC,,JOSU26,
2IFC,55,0,55,0,5.8,-1,correct answer,0.704794545658,False,True,stimulusJOSU26_2IFC_2019_Jun_13_0846_1011,stimulusJOSU26_2IFC_2019_Jun_13_0846_1012,False,2019_Jun_13_0846,2IFC,,JOSU26,
2IFC,56,0,56,0,5.8,-1,correct answer,0.566741167568,True,False,stimulusJOSU26_2IFC_2019_Jun_13_0846_1013,stimulusJOSU26_2IFC_2019_Jun_13_0846_1014,False,2019_Jun_13_0846,2IFC,,JOSU26,
2IFC,57,0,57,0,5.8,-1,correct answer,0.70107251592,False,True,stimulusJOSU26_2IFC_2019_Jun_13_0846_1015,stimulusJOSU26_2IFC_2019_Jun_13_0846_1016,False,2019_Jun_13_0846,2IFC,,JOSU26,
2IFC,58,0,58,0,5.8,-1,correct answer,0.666437854525,False,True,stimulusJOSU26_2IFC_2019_Jun_13_0846_1017,stimulusJOSU26_2IFC_2019_Jun_13_0846_1018,False,2019_Jun_13_0846,2IFC,,JOSU26,
2IFC,59,0,59,0,5.8,-1,correct answer,0.669968978968,False,True,stimulusJOSU26_2IFC_2019_Jun_13_0846_1019,stimulusJOSU26_2IFC_2019_Jun_13_0846_1020,False,2019_Jun_13_0846,2IFC,,JOSU26,
2IFC,60,0,60,0,5.8,-1,correct answer,0.43654116476,True,False,stimulusJOSU26_2IFC_2019_Jun_13_0846_1021,stimulusJOSU26_2IFC_2019_Jun_13_0846_1022,False,2019_Jun_13_0846,2IFC,,JOSU26,
2IFC,61,0,61,0,5.8,-1,correct answer,0.500908953603,False,True,stimulusJOSU26_2IFC_2019_Jun_13_0846_1023,stimulusJOSU26_2IFC_2019_Jun_13_0846_1024,False,2019_Jun_13_0846,2IFC,,JOSU26,
2IFC,62,0,62,0,5.8,-1,correct answer,0.567687891424,False,True,stimulusJOSU26_2IFC_2019_Jun_13_0846_1025,stimulusJOSU26_2IFC_2019_Jun_13_0846_1026,False,2019_Jun_13_0846,2IFC,,JOSU26,
2IFC,63,0,63,0,5.8,-1,correct answer,0.565195453819,False,True,stimulusJOSU26_2IFC_2019_Jun_13_0846_1027,stimulusJOSU26_2IFC_2019_Jun_13_0846_1028,False,2019_Jun_13_0846,2IFC,,JOSU26,
2IFC,64,0,64,0,5.8,-1,wrong answer,0.670173021499,False,True,stimulusJOSU26_2IFC_2019_Jun_13_0846_1029,stimulusJOSU26_2IFC_2019_Jun_13_0846_1030,False,2019_Jun_13_0846,2IFC,,JOSU26,
2IFC,65,0,65,0,5.8,-1,correct answer,0.498972808477,True,False,stimulusJOSU26_2IFC_2019_Jun_13_0846_1031,stimulusJOSU26_2IFC_2019_Jun_13_0846_1032,False,2019_Jun_13_0846,2IFC,,JOSU26,
2IFC,66,0,66,0,5.8,-1,correct answer,0.602622663602,True,False,stimulusJOSU26_2IFC_2019_Jun_13_0846_1033,stimulusJOSU26_2IFC_2019_Jun_13_0846_1034,False,2019_Jun_13_0846,2IFC,,JOSU26,
2IFC,67,0,67,0,5.8,-1,correct answer,0.566547389142,True,False,stimulusJOSU26_2IFC_2019_Jun_13_0846_1035,stimulusJOSU26_2IFC_2019_Jun_13_0846_1036,False,2019_Jun_13_0846,2IFC,,JOSU26,
2IFC,68,0,68,0,5.8,-1,correct answer,0.675669850316,True,False,stimulusJOSU26_2IFC_2019_Jun_13_0846_1037,stimulusJOSU26_2IFC_2019_Jun_13_0846_1038,False,2019_Jun_13_0846,2IFC,,JOSU26,
2IFC,69,0,69,0,5.8,-1,correct answer,0.572254418395,True,False,stimulusJOSU26_2IFC_2019_Jun_13_0846_1039,stimulusJOSU26_2IFC_2019_Jun_13_0846_1040,False,2019_Jun_13_0846,2IFC,,JOSU26,
2IFC,70,0,70,0,5.8,-1,correct answer,0.500953292474,False,True,stimulusJOSU26_2IFC_2019_Jun_13_0846_1041,stimulusJOSU26_2IFC_2019_Jun_13_0846_1042,False,2019_Jun_13_0846,2IFC,,JOSU26,
2IFC,71,0,71,0,5.8,-1,correct answer,0.534299243242,False,True,stimulusJOSU26_2IFC_2019_Jun_13_0846_1043,stimulusJOSU26_2IFC_2019_Jun_13_0846_1044,False,2019_Jun_13_0846,2IFC,,JOSU26,
2IFC,72,0,72,0,5.8,-1,correct answer,0.466518158093,True,False,stimulusJOSU26_2IFC_2019_Jun_13_0846_1045,stimulusJOSU26_2IFC_2019_Jun_13_0846_1046,False,2019_Jun_13_0846,2IFC,,JOSU26,
2IFC,73,0,73,0,5.8,-1,correct answer,0.731509322766,False,True,stimulusJOSU26_2IFC_2019_Jun_13_0846_1047,stimulusJOSU26_2IFC_2019_Jun_13_0846_1048,False,2019_Jun_13_0846,2IFC,,JOSU26,
2IFC,74,0,74,0,5.8,-1,correct answer,0.567416108679,False,True,stimulusJOSU26_2IFC_2019_Jun_13_0846_1049,stimulusJOSU26_2IFC_2019_Jun_13_0846_1050,False,2019_Jun_13_0846,2IFC,,JOSU26,
2IFC,0,0,0,0,6.7,-1,correct answer,0.468297473155,True,False,stimulusJOSU26_2IFC_2019_Jun_13_0846_1051,stimulusJOSU26_2IFC_2019_Jun_13_0846_1052,False,2019_Jun_13_0846,2IFC,,JOSU26,
2IFC,1,0,1,0,6.7,-1,correct answer,0.36950809788,True,False,stimulusJOSU26_2IFC_2019_Jun_13_0846_1053,stimulusJOSU26_2IFC_2019_Jun_13_0846_1054,False,2019_Jun_13_0846,2IFC,,JOSU26,
2IFC,2,0,2,0,6.7,-1,correct answer,0.399583211169,True,False,stimulusJOSU26_2IFC_2019_Jun_13_0846_1055,stimulusJOSU26_2IFC_2019_Jun_13_0846_1056,False,2019_Jun_13_0846,2IFC,,JOSU26,
2IFC,3,0,3,0,6.7,-1,correct answer,0.501736618578,False,True,stimulusJOSU26_2IFC_2019_Jun_13_0846_1057,stimulusJOSU26_2IFC_2019_Jun_13_0846_1058,False,2019_Jun_13_0846,2IFC,,JOSU26,
2IFC,4,0,4,0,6.7,-1,correct answer,0.434109488502,True,False,stimulusJOSU26_2IFC_2019_Jun_13_0846_1059,stimulusJOSU26_2IFC_2019_Jun_13_0846_1060,False,2019_Jun_13_0846,2IFC,,JOSU26,
2IFC,5,0,5,0,6.7,-1,correct answer,0.465888376813,False,True,stimulusJOSU26_2IFC_2019_Jun_13_0846_1061,stimulusJOSU26_2IFC_2019_Jun_13_0846_1062,False,2019_Jun_13_0846,2IFC,,JOSU26,
2IFC,6,0,6,0,6.7,-1,correct answer,0.535059578717,False,True,stimulusJOSU26_2IFC_2019_Jun_13_0846_1063,stimulusJOSU26_2IFC_2019_Jun_13_0846_1064,False,2019_Jun_13_0846,2IFC,,JOSU26,
2IFC,7,0,7,0,6.7,-1,correct answer,0.300321294926,True,False,stimulusJOSU26_2IFC_2019_Jun_13_0846_1065,stimulusJOSU26_2IFC_2019_Jun_13_0846_1066,False,2019_Jun_13_0846,2IFC,,JOSU26,
2IFC,8,0,8,0,6.7,-1,wrong answer,0.501112996135,False,True,stimulusJOSU26_2IFC_2019_Jun_13_0846_1067,stimulusJOSU26_2IFC_2019_Jun_13_0846_1068,False,2019_Jun_13_0846,2IFC,,JOSU26,
2IFC,9,0,9,0,6.7,-1,correct answer,0.534024586901,False,True,stimulusJOSU26_2IFC_2019_Jun_13_0846_1069,stimulusJOSU26_2IFC_2019_Jun_13_0846_1070,False,2019_Jun_13_0846,2IFC,,JOSU26,
2IFC,10,0,10,0,6.7,-1,correct answer,0.377380358055,True,False,stimulusJOSU26_2IFC_2019_Jun_13_0846_1071,stimulusJOSU26_2IFC_2019_Jun_13_0846_1072,False,2019_Jun_13_0846,2IFC,,JOSU26,
2IFC,11,0,11,0,6.7,-1,correct answer,0.542524575721,False,True,stimulusJOSU26_2IFC_2019_Jun_13_0846_1073,stimulusJOSU26_2IFC_2019_Jun_13_0846_1074,False,2019_Jun_13_0846,2IFC,,JOSU26,
2IFC,12,0,12,0,6.7,-1,correct answer,0.501394632272,False,True,stimulusJOSU26_2IFC_2019_Jun_13_0846_1075,stimulusJOSU26_2IFC_2019_Jun_13_0846_1076,False,2019_Jun_13_0846,2IFC,,JOSU26,
2IFC,13,0,13,0,6.7,-1,wrong answer,0.634157686494,False,True,stimulusJOSU26_2IFC_2019_Jun_13_0846_1077,stimulusJOSU26_2IFC_2019_Jun_13_0846_1078,False,2019_Jun_13_0846,2IFC,,JOSU26,
2IFC,14,0,14,0,6.7,-1,correct answer,0.431605555117,True,False,stimulusJOSU26_2IFC_2019_Jun_13_0846_1079,stimulusJOSU26_2IFC_2019_Jun_13_0846_1080,False,2019_Jun_13_0846,2IFC,,JOSU26,
2IFC,15,0,15,0,6.7,-1,correct answer,0.468772067223,False,True,stimulusJOSU26_2IFC_2019_Jun_13_0846_1081,stimulusJOSU26_2IFC_2019_Jun_13_0846_1082,False,2019_Jun_13_0846,2IFC,,JOSU26,
2IFC,16,0,16,0,6.7,-1,correct answer,0.433790903073,False,True,stimulusJOSU26_2IFC_2019_Jun_13_0846_1083,stimulusJOSU26_2IFC_2019_Jun_13_0846_1084,False,2019_Jun_13_0846,2IFC,,JOSU26,
2IFC,17,0,17,0,6.7,-1,correct answer,0.469737265725,True,False,stimulusJOSU26_2IFC_2019_Jun_13_0846_1085,stimulusJOSU26_2IFC_2019_Jun_13_0846_1086,False,2019_Jun_13_0846,2IFC,,JOSU26,
2IFC,18,0,18,0,6.7,-1,correct answer,0.535995217972,True,False,stimulusJOSU26_2IFC_2019_Jun_13_0846_1087,stimulusJOSU26_2IFC_2019_Jun_13_0846_1088,False,2019_Jun_13_0846,2IFC,,JOSU26,
2IFC,19,0,19,0,6.7,-1,correct answer,0.434113183059,True,False,stimulusJOSU26_2IFC_2019_Jun_13_0846_1089,stimulusJOSU26_2IFC_2019_Jun_13_0846_1090,False,2019_Jun_13_0846,2IFC,,JOSU26,
2IFC,20,0,20,0,6.7,-1,correct answer,0.435174450278,False,True,stimulusJOSU26_2IFC_2019_Jun_13_0846_1091,stimulusJOSU26_2IFC_2019_Jun_13_0846_1092,False,2019_Jun_13_0846,2IFC,,JOSU26,
2IFC,21,0,21,0,6.7,-1,correct answer,0.400552515406,True,False,stimulusJOSU26_2IFC_2019_Jun_13_0846_1093,stimulusJOSU26_2IFC_2019_Jun_13_0846_1094,False,2019_Jun_13_0846,2IFC,,JOSU26,
2IFC,22,0,22,0,6.7,-1,correct answer,0.634561665822,False,True,stimulusJOSU26_2IFC_2019_Jun_13_0846_1095,stimulusJOSU26_2IFC_2019_Jun_13_0846_1096,False,2019_Jun_13_0846,2IFC,,JOSU26,
2IFC,23,0,23,0,6.7,-1,correct answer,0.306988596916,True,False,stimulusJOSU26_2IFC_2019_Jun_13_0846_1097,stimulusJOSU26_2IFC_2019_Jun_13_0846_1098,False,2019_Jun_13_0846,2IFC,,JOSU26,
2IFC,24,0,24,0,6.7,-1,correct answer,0.433012093417,True,False,stimulusJOSU26_2IFC_2019_Jun_13_0846_1099,stimulusJOSU26_2IFC_2019_Jun_13_0846_1100,False,2019_Jun_13_0846,2IFC,,JOSU26,
2IFC,25,0,25,0,6.7,-1,correct answer,0.42946208315,True,False,stimulusJOSU26_2IFC_2019_Jun_13_0846_1101,stimulusJOSU26_2IFC_2019_Jun_13_0846_1102,False,2019_Jun_13_0846,2IFC,,JOSU26,
2IFC,26,0,26,0,6.7,-1,correct answer,0.368270295206,True,False,stimulusJOSU26_2IFC_2019_Jun_13_0846_1103,stimulusJOSU26_2IFC_2019_Jun_13_0846_1104,False,2019_Jun_13_0846,2IFC,,JOSU26,
2IFC,27,0,27,0,6.7,-1,correct answer,0.433741226792,True,False,stimulusJOSU26_2IFC_2019_Jun_13_0846_1105,stimulusJOSU26_2IFC_2019_Jun_13_0846_1106,False,2019_Jun_13_0846,2IFC,,JOSU26,
