Task,trials.thisRepN,trials.thisTrialN,trials.thisN,trials.thisIndex,signal_intensity,constant Value,response,time_response,signal_on_stimuluspos1,signal_on_stimuluspos2,stimulus_name_pos1,stimulus_name_pos2,random_intensity,date,expName,session,participant,
2IFC,0,0,0,0,7.6,-1,correct answer,0.468152960297,True,False,stimulusJOSU26_2IFC_2019_Jun_12_0915_1,stimulusJOSU26_2IFC_2019_Jun_12_0915_2,True,2019_Jun_12_0915,2IFC,2,JOSU26,
2IFC,1,0,1,0,5.8,-1,correct answer,0.733335851226,True,False,stimulusJOSU26_2IFC_2019_Jun_12_0915_3,stimulusJOSU26_2IFC_2019_Jun_12_0915_4,True,2019_Jun_12_0915,2IFC,2,JOSU26,
2IFC,2,0,2,0,1.5,-1,wrong answer,0.468733475544,False,True,stimulusJOSU26_2IFC_2019_Jun_12_0915_5,stimulusJOSU26_2IFC_2019_Jun_12_0915_6,True,2019_Jun_12_0915,2IFC,2,JOSU26,
2IFC,3,0,3,0,3,-1,no answer,-1,True,False,stimulusJOSU26_2IFC_2019_Jun_12_0915_7,stimulusJOSU26_2IFC_2019_Jun_12_0915_8,True,2019_Jun_12_0915,2IFC,2,JOSU26,
2IFC,4,0,4,0,6.7,-1,correct answer,0.234544505365,True,False,stimulusJOSU26_2IFC_2019_Jun_12_0915_9,stimulusJOSU26_2IFC_2019_Jun_12_0915_10,True,2019_Jun_12_0915,2IFC,2,JOSU26,
2IFC,5,0,5,0,5.8,-1,correct answer,0.532491189893,False,True,stimulusJOSU26_2IFC_2019_Jun_12_0915_11,stimulusJOSU26_2IFC_2019_Jun_12_0915_12,True,2019_Jun_12_0915,2IFC,2,JOSU26,
2IFC,6,0,6,0,5.8,-1,correct answer,0.73579749791,True,False,stimulusJOSU26_2IFC_2019_Jun_12_0915_13,stimulusJOSU26_2IFC_2019_Jun_12_0915_14,True,2019_Jun_12_0915,2IFC,2,JOSU26,
2IFC,7,0,7,0,5,-1,correct answer,0.634819490369,True,False,stimulusJOSU26_2IFC_2019_Jun_12_0915_15,stimulusJOSU26_2IFC_2019_Jun_12_0915_16,True,2019_Jun_12_0915,2IFC,2,JOSU26,
2IFC,8,0,8,0,5.8,-1,correct answer,0.734549021348,True,False,stimulusJOSU26_2IFC_2019_Jun_12_0915_17,stimulusJOSU26_2IFC_2019_Jun_12_0915_18,True,2019_Jun_12_0915,2IFC,2,JOSU26,
2IFC,9,0,9,0,1.5,-1,wrong answer,0.668623202015,True,False,stimulusJOSU26_2IFC_2019_Jun_12_0915_19,stimulusJOSU26_2IFC_2019_Jun_12_0915_20,True,2019_Jun_12_0915,2IFC,2,JOSU26,
2IFC,10,0,10,0,8.7,-1,correct answer,0.333286256995,True,False,stimulusJOSU26_2IFC_2019_Jun_12_0915_21,stimulusJOSU26_2IFC_2019_Jun_12_0915_22,True,2019_Jun_12_0915,2IFC,2,JOSU26,
2IFC,11,0,11,0,5.8,-1,correct answer,0.700014943723,True,False,stimulusJOSU26_2IFC_2019_Jun_12_0915_23,stimulusJOSU26_2IFC_2019_Jun_12_0915_24,True,2019_Jun_12_0915,2IFC,2,JOSU26,
2IFC,12,0,12,0,4,-1,correct answer,0.699540350586,False,True,stimulusJOSU26_2IFC_2019_Jun_12_0915_25,stimulusJOSU26_2IFC_2019_Jun_12_0915_26,True,2019_Jun_12_0915,2IFC,2,JOSU26,
2IFC,13,0,13,0,5,-1,correct answer,0.501229591668,False,True,stimulusJOSU26_2IFC_2019_Jun_12_0915_27,stimulusJOSU26_2IFC_2019_Jun_12_0915_28,True,2019_Jun_12_0915,2IFC,2,JOSU26,
2IFC,14,0,14,0,7.6,-1,correct answer,0.533992564306,True,False,stimulusJOSU26_2IFC_2019_Jun_12_0915_29,stimulusJOSU26_2IFC_2019_Jun_12_0915_30,True,2019_Jun_12_0915,2IFC,2,JOSU26,
2IFC,15,0,15,0,8.7,-1,correct answer,0.49989202572,False,True,stimulusJOSU26_2IFC_2019_Jun_12_0915_31,stimulusJOSU26_2IFC_2019_Jun_12_0915_32,True,2019_Jun_12_0915,2IFC,2,JOSU26,
2IFC,16,0,16,0,7.6,-1,correct answer,0.270619779825,True,False,stimulusJOSU26_2IFC_2019_Jun_12_0915_33,stimulusJOSU26_2IFC_2019_Jun_12_0915_34,True,2019_Jun_12_0915,2IFC,2,JOSU26,
2IFC,17,0,17,0,5,-1,correct answer,0.331440843176,True,False,stimulusJOSU26_2IFC_2019_Jun_12_0915_35,stimulusJOSU26_2IFC_2019_Jun_12_0915_36,True,2019_Jun_12_0915,2IFC,2,JOSU26,
2IFC,18,0,18,0,5,-1,correct answer,0.703663074877,False,True,stimulusJOSU26_2IFC_2019_Jun_12_0915_37,stimulusJOSU26_2IFC_2019_Jun_12_0915_38,True,2019_Jun_12_0915,2IFC,2,JOSU26,
2IFC,19,0,19,0,5.8,-1,correct answer,0.700090074446,False,True,stimulusJOSU26_2IFC_2019_Jun_12_0915_39,stimulusJOSU26_2IFC_2019_Jun_12_0915_40,True,2019_Jun_12_0915,2IFC,2,JOSU26,
2IFC,20,0,20,0,4,-1,correct answer,0.668901143596,False,True,stimulusJOSU26_2IFC_2019_Jun_12_0915_41,stimulusJOSU26_2IFC_2019_Jun_12_0915_42,True,2019_Jun_12_0915,2IFC,2,JOSU26,
2IFC,21,0,21,0,5,-1,correct answer,0.533538908232,False,True,stimulusJOSU26_2IFC_2019_Jun_12_0915_43,stimulusJOSU26_2IFC_2019_Jun_12_0915_44,True,2019_Jun_12_0915,2IFC,2,JOSU26,
2IFC,22,0,22,0,7.6,-1,correct answer,0.535309191793,False,True,stimulusJOSU26_2IFC_2019_Jun_12_0915_45,stimulusJOSU26_2IFC_2019_Jun_12_0915_46,True,2019_Jun_12_0915,2IFC,2,JOSU26,
2IFC,23,0,23,0,5.8,-1,correct answer,0.333194705192,True,False,stimulusJOSU26_2IFC_2019_Jun_12_0915_47,stimulusJOSU26_2IFC_2019_Jun_12_0915_48,True,2019_Jun_12_0915,2IFC,2,JOSU26,
2IFC,24,0,24,0,6.7,-1,correct answer,0.502654193435,False,True,stimulusJOSU26_2IFC_2019_Jun_12_0915_49,stimulusJOSU26_2IFC_2019_Jun_12_0915_50,True,2019_Jun_12_0915,2IFC,2,JOSU26,
2IFC,25,0,25,0,8.7,-1,correct answer,0.500720101409,False,True,stimulusJOSU26_2IFC_2019_Jun_12_0915_51,stimulusJOSU26_2IFC_2019_Jun_12_0915_52,True,2019_Jun_12_0915,2IFC,2,JOSU26,
2IFC,26,0,26,0,5.8,-1,correct answer,0.272948819678,True,False,stimulusJOSU26_2IFC_2019_Jun_12_0915_53,stimulusJOSU26_2IFC_2019_Jun_12_0915_54,True,2019_Jun_12_0915,2IFC,2,JOSU26,
2IFC,27,0,27,0,7.6,-1,correct answer,0.463527725078,False,True,stimulusJOSU26_2IFC_2019_Jun_12_0915_55,stimulusJOSU26_2IFC_2019_Jun_12_0915_56,True,2019_Jun_12_0915,2IFC,2,JOSU26,
2IFC,28,0,28,0,6.7,-1,correct answer,0.132907157298,True,False,stimulusJOSU26_2IFC_2019_Jun_12_0915_57,stimulusJOSU26_2IFC_2019_Jun_12_0915_58,True,2019_Jun_12_0915,2IFC,2,JOSU26,
2IFC,29,0,29,0,3,-1,correct answer,0.433241589461,False,True,stimulusJOSU26_2IFC_2019_Jun_12_0915_59,stimulusJOSU26_2IFC_2019_Jun_12_0915_60,True,2019_Jun_12_0915,2IFC,2,JOSU26,
2IFC,30,0,30,0,8.7,-1,correct answer,0.503344324883,False,True,stimulusJOSU26_2IFC_2019_Jun_12_0915_61,stimulusJOSU26_2IFC_2019_Jun_12_0915_62,True,2019_Jun_12_0915,2IFC,2,JOSU26,
2IFC,31,0,31,0,7.6,-1,correct answer,0.534167047124,False,True,stimulusJOSU26_2IFC_2019_Jun_12_0915_63,stimulusJOSU26_2IFC_2019_Jun_12_0915_64,True,2019_Jun_12_0915,2IFC,2,JOSU26,
2IFC,32,0,32,0,3,-1,wrong answer,0.70013482403,False,True,stimulusJOSU26_2IFC_2019_Jun_12_0915_65,stimulusJOSU26_2IFC_2019_Jun_12_0915_66,True,2019_Jun_12_0915,2IFC,2,JOSU26,
2IFC,33,0,33,0,5.8,-1,correct answer,0.470941403415,False,True,stimulusJOSU26_2IFC_2019_Jun_12_0915_67,stimulusJOSU26_2IFC_2019_Jun_12_0915_68,True,2019_Jun_12_0915,2IFC,2,JOSU26,
2IFC,34,0,34,0,7.6,-1,correct answer,0.700889411382,False,True,stimulusJOSU26_2IFC_2019_Jun_12_0915_69,stimulusJOSU26_2IFC_2019_Jun_12_0915_70,True,2019_Jun_12_0915,2IFC,2,JOSU26,
2IFC,35,0,35,0,3,-1,correct answer,0.602791809011,True,False,stimulusJOSU26_2IFC_2019_Jun_12_0915_71,stimulusJOSU26_2IFC_2019_Jun_12_0915_72,True,2019_Jun_12_0915,2IFC,2,JOSU26,
2IFC,36,0,36,0,4,-1,correct answer,0.43357043853,False,True,stimulusJOSU26_2IFC_2019_Jun_12_0915_73,stimulusJOSU26_2IFC_2019_Jun_12_0915_74,True,2019_Jun_12_0915,2IFC,2,JOSU26,
2IFC,37,0,37,0,1.5,-1,correct answer,0.468474009074,False,True,stimulusJOSU26_2IFC_2019_Jun_12_0915_75,stimulusJOSU26_2IFC_2019_Jun_12_0915_76,True,2019_Jun_12_0915,2IFC,2,JOSU26,
2IFC,38,0,38,0,7.6,-1,correct answer,0.567017877009,False,True,stimulusJOSU26_2IFC_2019_Jun_12_0915_77,stimulusJOSU26_2IFC_2019_Jun_12_0915_78,True,2019_Jun_12_0915,2IFC,2,JOSU26,
2IFC,39,0,39,0,5,-1,correct answer,0.570772750303,True,False,stimulusJOSU26_2IFC_2019_Jun_12_0915_79,stimulusJOSU26_2IFC_2019_Jun_12_0915_80,True,2019_Jun_12_0915,2IFC,2,JOSU26,
2IFC,40,0,40,0,4,-1,correct answer,0.49985261308,False,True,stimulusJOSU26_2IFC_2019_Jun_12_0915_81,stimulusJOSU26_2IFC_2019_Jun_12_0915_82,True,2019_Jun_12_0915,2IFC,2,JOSU26,
2IFC,41,0,41,0,1.5,-1,correct answer,0.468096714932,True,False,stimulusJOSU26_2IFC_2019_Jun_12_0915_83,stimulusJOSU26_2IFC_2019_Jun_12_0915_84,True,2019_Jun_12_0915,2IFC,2,JOSU26,
2IFC,42,0,42,0,4,-1,correct answer,0.435773850419,False,True,stimulusJOSU26_2IFC_2019_Jun_12_0915_85,stimulusJOSU26_2IFC_2019_Jun_12_0915_86,True,2019_Jun_12_0915,2IFC,2,JOSU26,
2IFC,43,0,43,0,6.7,-1,correct answer,0.567430478055,False,True,stimulusJOSU26_2IFC_2019_Jun_12_0915_87,stimulusJOSU26_2IFC_2019_Jun_12_0915_88,True,2019_Jun_12_0915,2IFC,2,JOSU26,
2IFC,44,0,44,0,8.7,-1,correct answer,0.501080562361,False,True,stimulusJOSU26_2IFC_2019_Jun_12_0915_89,stimulusJOSU26_2IFC_2019_Jun_12_0915_90,True,2019_Jun_12_0915,2IFC,2,JOSU26,
2IFC,45,0,45,0,1.5,-1,wrong answer,0.572465029079,False,True,stimulusJOSU26_2IFC_2019_Jun_12_0915_91,stimulusJOSU26_2IFC_2019_Jun_12_0915_92,True,2019_Jun_12_0915,2IFC,2,JOSU26,
2IFC,46,0,46,0,5,-1,correct answer,0.534306633752,False,True,stimulusJOSU26_2IFC_2019_Jun_12_0915_93,stimulusJOSU26_2IFC_2019_Jun_12_0915_94,True,2019_Jun_12_0915,2IFC,2,JOSU26,
2IFC,47,0,47,0,1.5,-1,no answer,-1,False,True,stimulusJOSU26_2IFC_2019_Jun_12_0915_95,stimulusJOSU26_2IFC_2019_Jun_12_0915_96,True,2019_Jun_12_0915,2IFC,2,JOSU26,
2IFC,48,0,48,0,3,-1,wrong answer,0.668381799944,True,False,stimulusJOSU26_2IFC_2019_Jun_12_0915_97,stimulusJOSU26_2IFC_2019_Jun_12_0915_98,True,2019_Jun_12_0915,2IFC,2,JOSU26,
2IFC,49,0,49,0,8.7,-1,correct answer,0.26685053762,True,False,stimulusJOSU26_2IFC_2019_Jun_12_0915_99,stimulusJOSU26_2IFC_2019_Jun_12_0915_100,True,2019_Jun_12_0915,2IFC,2,JOSU26,
2IFC,50,0,50,0,7.6,-1,wrong answer,0.469474925194,False,True,stimulusJOSU26_2IFC_2019_Jun_12_0915_101,stimulusJOSU26_2IFC_2019_Jun_12_0915_102,True,2019_Jun_12_0915,2IFC,2,JOSU26,
2IFC,51,0,51,0,5,-1,correct answer,0.401594076306,True,False,stimulusJOSU26_2IFC_2019_Jun_12_0915_103,stimulusJOSU26_2IFC_2019_Jun_12_0915_104,True,2019_Jun_12_0915,2IFC,2,JOSU26,
2IFC,52,0,52,0,3,-1,wrong answer,0.833546544425,False,True,stimulusJOSU26_2IFC_2019_Jun_12_0915_105,stimulusJOSU26_2IFC_2019_Jun_12_0915_106,True,2019_Jun_12_0915,2IFC,2,JOSU26,
2IFC,53,0,53,0,4,-1,correct answer,0.668900732417,True,False,stimulusJOSU26_2IFC_2019_Jun_12_0915_107,stimulusJOSU26_2IFC_2019_Jun_12_0915_108,True,2019_Jun_12_0915,2IFC,2,JOSU26,
2IFC,54,0,54,0,5.8,-1,correct answer,0.704693139531,True,False,stimulusJOSU26_2IFC_2019_Jun_12_0915_109,stimulusJOSU26_2IFC_2019_Jun_12_0915_110,True,2019_Jun_12_0915,2IFC,2,JOSU26,
2IFC,55,0,55,0,6.7,-1,correct answer,0.53519259626,False,True,stimulusJOSU26_2IFC_2019_Jun_12_0915_111,stimulusJOSU26_2IFC_2019_Jun_12_0915_112,True,2019_Jun_12_0915,2IFC,2,JOSU26,
2IFC,56,0,56,0,5,-1,correct answer,0.633421573788,False,True,stimulusJOSU26_2IFC_2019_Jun_12_0915_113,stimulusJOSU26_2IFC_2019_Jun_12_0915_114,True,2019_Jun_12_0915,2IFC,2,JOSU26,
2IFC,57,0,57,0,8.7,-1,correct answer,0.569598992821,False,True,stimulusJOSU26_2IFC_2019_Jun_12_0915_115,stimulusJOSU26_2IFC_2019_Jun_12_0915_116,True,2019_Jun_12_0915,2IFC,2,JOSU26,
2IFC,58,0,58,0,3,-1,wrong answer,0.630529672839,False,True,stimulusJOSU26_2IFC_2019_Jun_12_0915_117,stimulusJOSU26_2IFC_2019_Jun_12_0915_118,True,2019_Jun_12_0915,2IFC,2,JOSU26,
2IFC,59,0,59,0,5.8,-1,correct answer,0.469208479859,False,True,stimulusJOSU26_2IFC_2019_Jun_12_0915_119,stimulusJOSU26_2IFC_2019_Jun_12_0915_120,True,2019_Jun_12_0915,2IFC,2,JOSU26,
2IFC,60,0,60,0,5,-1,correct answer,0.436759986915,True,False,stimulusJOSU26_2IFC_2019_Jun_12_0915_121,stimulusJOSU26_2IFC_2019_Jun_12_0915_122,True,2019_Jun_12_0915,2IFC,2,JOSU26,
2IFC,61,0,61,0,4,-1,no answer,-1,False,True,stimulusJOSU26_2IFC_2019_Jun_12_0915_123,stimulusJOSU26_2IFC_2019_Jun_12_0915_124,True,2019_Jun_12_0915,2IFC,2,JOSU26,
2IFC,62,0,62,0,6.7,-1,correct answer,0.535704549868,True,False,stimulusJOSU26_2IFC_2019_Jun_12_0915_125,stimulusJOSU26_2IFC_2019_Jun_12_0915_126,True,2019_Jun_12_0915,2IFC,2,JOSU26,
2IFC,63,0,63,0,8.7,-1,correct answer,0.500772241037,True,False,stimulusJOSU26_2IFC_2019_Jun_12_0915_127,stimulusJOSU26_2IFC_2019_Jun_12_0915_128,True,2019_Jun_12_0915,2IFC,2,JOSU26,
2IFC,64,0,64,0,4,-1,no answer,-1,False,True,stimulusJOSU26_2IFC_2019_Jun_12_0915_129,stimulusJOSU26_2IFC_2019_Jun_12_0915_130,True,2019_Jun_12_0915,2IFC,2,JOSU26,
2IFC,65,0,65,0,7.6,-1,correct answer,0.435920415912,False,True,stimulusJOSU26_2IFC_2019_Jun_12_0915_131,stimulusJOSU26_2IFC_2019_Jun_12_0915_132,True,2019_Jun_12_0915,2IFC,2,JOSU26,
2IFC,66,0,66,0,6.7,-1,correct answer,0.799986698199,True,False,stimulusJOSU26_2IFC_2019_Jun_12_0915_133,stimulusJOSU26_2IFC_2019_Jun_12_0915_134,True,2019_Jun_12_0915,2IFC,2,JOSU26,
2IFC,67,0,67,0,1.5,-1,wrong answer,0.734180759639,False,True,stimulusJOSU26_2IFC_2019_Jun_12_0915_135,stimulusJOSU26_2IFC_2019_Jun_12_0915_136,True,2019_Jun_12_0915,2IFC,2,JOSU26,
2IFC,68,0,68,0,6.7,-1,no answer,-1,True,False,stimulusJOSU26_2IFC_2019_Jun_12_0915_137,stimulusJOSU26_2IFC_2019_Jun_12_0915_138,True,2019_Jun_12_0915,2IFC,2,JOSU26,
2IFC,69,0,69,0,7.6,-1,correct answer,0.433909551706,True,False,stimulusJOSU26_2IFC_2019_Jun_12_0915_139,stimulusJOSU26_2IFC_2019_Jun_12_0915_140,True,2019_Jun_12_0915,2IFC,2,JOSU26,
2IFC,70,0,70,0,4,-1,no answer,-1,True,False,stimulusJOSU26_2IFC_2019_Jun_12_0915_141,stimulusJOSU26_2IFC_2019_Jun_12_0915_142,True,2019_Jun_12_0915,2IFC,2,JOSU26,
2IFC,71,0,71,0,6.7,-1,correct answer,0.637696611695,False,True,stimulusJOSU26_2IFC_2019_Jun_12_0915_143,stimulusJOSU26_2IFC_2019_Jun_12_0915_144,True,2019_Jun_12_0915,2IFC,2,JOSU26,
2IFC,72,0,72,0,5,-1,correct answer,0.667972072959,False,True,stimulusJOSU26_2IFC_2019_Jun_12_0915_145,stimulusJOSU26_2IFC_2019_Jun_12_0915_146,True,2019_Jun_12_0915,2IFC,2,JOSU26,
2IFC,73,0,73,0,3,-1,correct answer,0.532220638357,True,False,stimulusJOSU26_2IFC_2019_Jun_12_0915_147,stimulusJOSU26_2IFC_2019_Jun_12_0915_148,True,2019_Jun_12_0915,2IFC,2,JOSU26,
2IFC,74,0,74,0,7.6,-1,correct answer,0.53514291998,True,False,stimulusJOSU26_2IFC_2019_Jun_12_0915_149,stimulusJOSU26_2IFC_2019_Jun_12_0915_150,True,2019_Jun_12_0915,2IFC,2,JOSU26,
2IFC,0,0,0,0,4,-1,correct answer,0.734238236211,True,False,stimulusJOSU26_2IFC_2019_Jun_12_0915_151,stimulusJOSU26_2IFC_2019_Jun_12_0915_152,True,2019_Jun_12_0915,2IFC,2,JOSU26,
2IFC,1,0,1,0,6.7,-1,correct answer,0.567255994771,False,True,stimulusJOSU26_2IFC_2019_Jun_12_0915_153,stimulusJOSU26_2IFC_2019_Jun_12_0915_154,True,2019_Jun_12_0915,2IFC,2,JOSU26,
2IFC,2,0,2,0,7.6,-1,correct answer,0.435360017698,True,False,stimulusJOSU26_2IFC_2019_Jun_12_0915_155,stimulusJOSU26_2IFC_2019_Jun_12_0915_156,True,2019_Jun_12_0915,2IFC,2,JOSU26,
2IFC,3,0,3,0,5,-1,correct answer,0.734436531086,False,True,stimulusJOSU26_2IFC_2019_Jun_12_0915_157,stimulusJOSU26_2IFC_2019_Jun_12_0915_158,True,2019_Jun_12_0915,2IFC,2,JOSU26,
2IFC,4,0,4,0,7.6,-1,correct answer,0.83437544154,False,True,stimulusJOSU26_2IFC_2019_Jun_12_0915_159,stimulusJOSU26_2IFC_2019_Jun_12_0915_160,True,2019_Jun_12_0915,2IFC,2,JOSU26,
2IFC,5,0,5,0,6.7,-1,correct answer,0.604475877713,False,True,stimulusJOSU26_2IFC_2019_Jun_12_0915_161,stimulusJOSU26_2IFC_2019_Jun_12_0915_162,True,2019_Jun_12_0915,2IFC,2,JOSU26,
2IFC,6,0,6,0,5.8,-1,correct answer,0.76970384689,True,False,stimulusJOSU26_2IFC_2019_Jun_12_0915_163,stimulusJOSU26_2IFC_2019_Jun_12_0915_164,True,2019_Jun_12_0915,2IFC,2,JOSU26,
2IFC,7,0,7,0,5.8,-1,correct answer,0.801863724366,True,False,stimulusJOSU26_2IFC_2019_Jun_12_0915_165,stimulusJOSU26_2IFC_2019_Jun_12_0915_166,True,2019_Jun_12_0915,2IFC,2,JOSU26,
2IFC,8,0,8,0,4,-1,correct answer,0.801474524662,False,True,stimulusJOSU26_2IFC_2019_Jun_12_0915_167,stimulusJOSU26_2IFC_2019_Jun_12_0915_168,True,2019_Jun_12_0915,2IFC,2,JOSU26,
2IFC,9,0,9,0,7.6,-1,correct answer,0.56772607239,True,False,stimulusJOSU26_2IFC_2019_Jun_12_0915_169,stimulusJOSU26_2IFC_2019_Jun_12_0915_170,True,2019_Jun_12_0915,2IFC,2,JOSU26,
2IFC,10,0,10,0,6.7,-1,correct answer,0.167437128723,True,False,stimulusJOSU26_2IFC_2019_Jun_12_0915_171,stimulusJOSU26_2IFC_2019_Jun_12_0915_172,True,2019_Jun_12_0915,2IFC,2,JOSU26,
2IFC,11,0,11,0,6.7,-1,wrong answer,0.534068105277,False,True,stimulusJOSU26_2IFC_2019_Jun_12_0915_173,stimulusJOSU26_2IFC_2019_Jun_12_0915_174,True,2019_Jun_12_0915,2IFC,2,JOSU26,
2IFC,12,0,12,0,7.6,-1,correct answer,0.667687973473,True,False,stimulusJOSU26_2IFC_2019_Jun_12_0915_175,stimulusJOSU26_2IFC_2019_Jun_12_0915_176,True,2019_Jun_12_0915,2IFC,2,JOSU26,
2IFC,13,0,13,0,4,-1,correct answer,0.633897809777,False,True,stimulusJOSU26_2IFC_2019_Jun_12_0915_177,stimulusJOSU26_2IFC_2019_Jun_12_0915_178,True,2019_Jun_12_0915,2IFC,2,JOSU26,
2IFC,14,0,14,0,5,-1,correct answer,0.870176469907,False,True,stimulusJOSU26_2IFC_2019_Jun_12_0915_179,stimulusJOSU26_2IFC_2019_Jun_12_0915_180,True,2019_Jun_12_0915,2IFC,2,JOSU26,
2IFC,15,0,15,0,3,-1,correct answer,0.801002394408,True,False,stimulusJOSU26_2IFC_2019_Jun_12_0915_181,stimulusJOSU26_2IFC_2019_Jun_12_0915_182,True,2019_Jun_12_0915,2IFC,2,JOSU26,
2IFC,16,0,16,0,7.6,-1,correct answer,0.769281392917,False,True,stimulusJOSU26_2IFC_2019_Jun_12_0915_183,stimulusJOSU26_2IFC_2019_Jun_12_0915_184,True,2019_Jun_12_0915,2IFC,2,JOSU26,
2IFC,17,0,17,0,3,-1,no answer,-1,True,False,stimulusJOSU26_2IFC_2019_Jun_12_0915_185,stimulusJOSU26_2IFC_2019_Jun_12_0915_186,True,2019_Jun_12_0915,2IFC,2,JOSU26,
2IFC,18,0,18,0,8.7,-1,correct answer,0.467094977852,False,True,stimulusJOSU26_2IFC_2019_Jun_12_0915_187,stimulusJOSU26_2IFC_2019_Jun_12_0915_188,True,2019_Jun_12_0915,2IFC,2,JOSU26,
2IFC,19,0,19,0,5,-1,correct answer,0.535760794766,True,False,stimulusJOSU26_2IFC_2019_Jun_12_0915_189,stimulusJOSU26_2IFC_2019_Jun_12_0915_190,True,2019_Jun_12_0915,2IFC,2,JOSU26,
2IFC,20,0,20,0,3,-1,correct answer,0.667002768721,False,True,stimulusJOSU26_2IFC_2019_Jun_12_0915_191,stimulusJOSU26_2IFC_2019_Jun_12_0915_192,True,2019_Jun_12_0915,2IFC,2,JOSU26,
2IFC,21,0,21,0,1.5,-1,wrong answer,0.767710635904,True,False,stimulusJOSU26_2IFC_2019_Jun_12_0915_193,stimulusJOSU26_2IFC_2019_Jun_12_0915_194,True,2019_Jun_12_0915,2IFC,2,JOSU26,
2IFC,22,0,22,0,7.6,-1,correct answer,0.635969846044,False,True,stimulusJOSU26_2IFC_2019_Jun_12_0915_195,stimulusJOSU26_2IFC_2019_Jun_12_0915_196,True,2019_Jun_12_0915,2IFC,2,JOSU26,
2IFC,23,0,23,0,5.8,-1,correct answer,0.599758269265,False,True,stimulusJOSU26_2IFC_2019_Jun_12_0915_197,stimulusJOSU26_2IFC_2019_Jun_12_0915_198,True,2019_Jun_12_0915,2IFC,2,JOSU26,
2IFC,24,0,24,0,5,-1,correct answer,0.701130403206,False,True,stimulusJOSU26_2IFC_2019_Jun_12_0915_199,stimulusJOSU26_2IFC_2019_Jun_12_0915_200,True,2019_Jun_12_0915,2IFC,2,JOSU26,
2IFC,25,0,25,0,6.7,-1,correct answer,0.601978513878,False,True,stimulusJOSU26_2IFC_2019_Jun_12_0915_201,stimulusJOSU26_2IFC_2019_Jun_12_0915_202,True,2019_Jun_12_0915,2IFC,2,JOSU26,
2IFC,26,0,26,0,1.5,-1,correct answer,0.633895346429,False,True,stimulusJOSU26_2IFC_2019_Jun_12_0915_203,stimulusJOSU26_2IFC_2019_Jun_12_0915_204,True,2019_Jun_12_0915,2IFC,2,JOSU26,
2IFC,27,0,27,0,4,-1,correct answer,0.669145419262,False,True,stimulusJOSU26_2IFC_2019_Jun_12_0915_205,stimulusJOSU26_2IFC_2019_Jun_12_0915_206,True,2019_Jun_12_0915,2IFC,2,JOSU26,
2IFC,28,0,28,0,7.6,-1,correct answer,0.437049013097,True,False,stimulusJOSU26_2IFC_2019_Jun_12_0915_207,stimulusJOSU26_2IFC_2019_Jun_12_0915_208,True,2019_Jun_12_0915,2IFC,2,JOSU26,
2IFC,29,0,29,0,5.8,-1,correct answer,0.533097979613,True,False,stimulusJOSU26_2IFC_2019_Jun_12_0915_209,stimulusJOSU26_2IFC_2019_Jun_12_0915_210,True,2019_Jun_12_0915,2IFC,2,JOSU26,
2IFC,30,0,30,0,7.6,-1,correct answer,0.265684170183,True,False,stimulusJOSU26_2IFC_2019_Jun_12_0915_211,stimulusJOSU26_2IFC_2019_Jun_12_0915_212,True,2019_Jun_12_0915,2IFC,2,JOSU26,
2IFC,31,0,31,0,3,-1,correct answer,0.704449274112,False,True,stimulusJOSU26_2IFC_2019_Jun_12_0915_213,stimulusJOSU26_2IFC_2019_Jun_12_0915_214,True,2019_Jun_12_0915,2IFC,2,JOSU26,
2IFC,32,0,32,0,8.7,-1,correct answer,0.534245461691,True,False,stimulusJOSU26_2IFC_2019_Jun_12_0915_215,stimulusJOSU26_2IFC_2019_Jun_12_0915_216,True,2019_Jun_12_0915,2IFC,2,JOSU26,
2IFC,33,0,33,0,5,-1,correct answer,0.736013446469,False,True,stimulusJOSU26_2IFC_2019_Jun_12_0915_217,stimulusJOSU26_2IFC_2019_Jun_12_0915_218,True,2019_Jun_12_0915,2IFC,2,JOSU26,
2IFC,34,0,34,0,7.6,-1,correct answer,0.49992117472,True,False,stimulusJOSU26_2IFC_2019_Jun_12_0915_219,stimulusJOSU26_2IFC_2019_Jun_12_0915_220,True,2019_Jun_12_0915,2IFC,2,JOSU26,
2IFC,35,0,35,0,7.6,-1,no answer,-1,True,False,stimulusJOSU26_2IFC_2019_Jun_12_0915_221,stimulusJOSU26_2IFC_2019_Jun_12_0915_222,True,2019_Jun_12_0915,2IFC,2,JOSU26,
2IFC,36,0,36,0,3,-1,no answer,-1,False,True,stimulusJOSU26_2IFC_2019_Jun_12_0915_223,stimulusJOSU26_2IFC_2019_Jun_12_0915_224,True,2019_Jun_12_0915,2IFC,2,JOSU26,
2IFC,37,0,37,0,8.7,-1,wrong answer,0.533860367723,False,True,stimulusJOSU26_2IFC_2019_Jun_12_0915_225,stimulusJOSU26_2IFC_2019_Jun_12_0915_226,True,2019_Jun_12_0915,2IFC,2,JOSU26,
2IFC,38,0,38,0,8.7,-1,correct answer,0.734150789678,False,True,stimulusJOSU26_2IFC_2019_Jun_12_0915_227,stimulusJOSU26_2IFC_2019_Jun_12_0915_228,True,2019_Jun_12_0915,2IFC,2,JOSU26,
2IFC,39,0,39,0,3,-1,correct answer,0.501914796419,True,False,stimulusJOSU26_2IFC_2019_Jun_12_0915_229,stimulusJOSU26_2IFC_2019_Jun_12_0915_230,True,2019_Jun_12_0915,2IFC,2,JOSU26,
2IFC,40,0,40,0,5.8,-1,correct answer,0.464599666186,True,False,stimulusJOSU26_2IFC_2019_Jun_12_0915_231,stimulusJOSU26_2IFC_2019_Jun_12_0915_232,True,2019_Jun_12_0915,2IFC,2,JOSU26,
2IFC,41,0,41,0,6.7,-1,no answer,-1,True,False,stimulusJOSU26_2IFC_2019_Jun_12_0915_233,stimulusJOSU26_2IFC_2019_Jun_12_0915_234,True,2019_Jun_12_0915,2IFC,2,JOSU26,
2IFC,42,0,42,0,5.8,-1,no answer,-1,True,False,stimulusJOSU26_2IFC_2019_Jun_12_0915_235,stimulusJOSU26_2IFC_2019_Jun_12_0915_236,True,2019_Jun_12_0915,2IFC,2,JOSU26,
2IFC,43,0,43,0,4,-1,correct answer,0.80252758041,False,True,stimulusJOSU26_2IFC_2019_Jun_12_0915_237,stimulusJOSU26_2IFC_2019_Jun_12_0915_238,True,2019_Jun_12_0915,2IFC,2,JOSU26,
2IFC,44,0,44,0,5,-1,correct answer,0.863701715134,False,True,stimulusJOSU26_2IFC_2019_Jun_12_0915_239,stimulusJOSU26_2IFC_2019_Jun_12_0915_240,True,2019_Jun_12_0915,2IFC,2,JOSU26,
2IFC,45,0,45,0,5.8,-1,correct answer,0.769137290772,False,True,stimulusJOSU26_2IFC_2019_Jun_12_0915_241,stimulusJOSU26_2IFC_2019_Jun_12_0915_242,True,2019_Jun_12_0915,2IFC,2,JOSU26,
2IFC,46,0,46,0,1.5,-1,no answer,-1,False,True,stimulusJOSU26_2IFC_2019_Jun_12_0915_243,stimulusJOSU26_2IFC_2019_Jun_12_0915_244,True,2019_Jun_12_0915,2IFC,2,JOSU26,
2IFC,47,0,47,0,1.5,-1,wrong answer,0.574251324404,True,False,stimulusJOSU26_2IFC_2019_Jun_12_0915_245,stimulusJOSU26_2IFC_2019_Jun_12_0915_246,True,2019_Jun_12_0915,2IFC,2,JOSU26,
2IFC,48,0,48,0,5.8,-1,correct answer,0.832798115443,True,False,stimulusJOSU26_2IFC_2019_Jun_12_0915_247,stimulusJOSU26_2IFC_2019_Jun_12_0915_248,True,2019_Jun_12_0915,2IFC,2,JOSU26,
2IFC,49,0,49,0,1.5,-1,correct answer,0.700310538523,False,True,stimulusJOSU26_2IFC_2019_Jun_12_0915_249,stimulusJOSU26_2IFC_2019_Jun_12_0915_250,True,2019_Jun_12_0915,2IFC,2,JOSU26,
2IFC,50,0,50,0,5.8,-1,correct answer,0.569198297802,True,False,stimulusJOSU26_2IFC_2019_Jun_12_0915_251,stimulusJOSU26_2IFC_2019_Jun_12_0915_252,True,2019_Jun_12_0915,2IFC,2,JOSU26,
2IFC,51,0,51,0,3,-1,correct answer,0.634149475489,True,False,stimulusJOSU26_2IFC_2019_Jun_12_0915_253,stimulusJOSU26_2IFC_2019_Jun_12_0915_254,True,2019_Jun_12_0915,2IFC,2,JOSU26,
2IFC,52,0,52,0,3,-1,correct answer,0.644301099237,True,False,stimulusJOSU26_2IFC_2019_Jun_12_0915_255,stimulusJOSU26_2IFC_2019_Jun_12_0915_256,True,2019_Jun_12_0915,2IFC,2,JOSU26,
2IFC,53,0,53,0,8.7,-1,correct answer,0.474883075804,False,True,stimulusJOSU26_2IFC_2019_Jun_12_0915_257,stimulusJOSU26_2IFC_2019_Jun_12_0915_258,True,2019_Jun_12_0915,2IFC,2,JOSU26,
2IFC,54,0,54,0,5.8,-1,correct answer,0.501458677463,True,False,stimulusJOSU26_2IFC_2019_Jun_12_0915_259,stimulusJOSU26_2IFC_2019_Jun_12_0915_260,True,2019_Jun_12_0915,2IFC,2,JOSU26,
2IFC,55,0,55,0,5.8,-1,correct answer,0.500294773374,False,True,stimulusJOSU26_2IFC_2019_Jun_12_0915_261,stimulusJOSU26_2IFC_2019_Jun_12_0915_262,True,2019_Jun_12_0915,2IFC,2,JOSU26,
2IFC,56,0,56,0,4,-1,correct answer,0.501238212921,False,True,stimulusJOSU26_2IFC_2019_Jun_12_0915_263,stimulusJOSU26_2IFC_2019_Jun_12_0915_264,True,2019_Jun_12_0915,2IFC,2,JOSU26,
2IFC,57,0,57,0,4,-1,correct answer,0.63808540022,True,False,stimulusJOSU26_2IFC_2019_Jun_12_0915_265,stimulusJOSU26_2IFC_2019_Jun_12_0915_266,True,2019_Jun_12_0915,2IFC,2,JOSU26,
2IFC,58,0,58,0,4,-1,correct answer,0.602669876534,False,True,stimulusJOSU26_2IFC_2019_Jun_12_0915_267,stimulusJOSU26_2IFC_2019_Jun_12_0915_268,True,2019_Jun_12_0915,2IFC,2,JOSU26,
2IFC,59,0,59,0,8.7,-1,correct answer,0.565734093077,False,True,stimulusJOSU26_2IFC_2019_Jun_12_0915_269,stimulusJOSU26_2IFC_2019_Jun_12_0915_270,True,2019_Jun_12_0915,2IFC,2,JOSU26,
2IFC,60,0,60,0,5.8,-1,correct answer,0.437104026321,True,False,stimulusJOSU26_2IFC_2019_Jun_12_0915_271,stimulusJOSU26_2IFC_2019_Jun_12_0915_272,True,2019_Jun_12_0915,2IFC,2,JOSU26,
2IFC,61,0,61,0,5.8,-1,correct answer,0.667010569479,False,True,stimulusJOSU26_2IFC_2019_Jun_12_0915_273,stimulusJOSU26_2IFC_2019_Jun_12_0915_274,True,2019_Jun_12_0915,2IFC,2,JOSU26,
2IFC,62,0,62,0,7.6,-1,correct answer,0.500889247283,True,False,stimulusJOSU26_2IFC_2019_Jun_12_0915_275,stimulusJOSU26_2IFC_2019_Jun_12_0915_276,True,2019_Jun_12_0915,2IFC,2,JOSU26,
2IFC,63,0,63,0,8.7,-1,correct answer,0.36648646323,True,False,stimulusJOSU26_2IFC_2019_Jun_12_0915_277,stimulusJOSU26_2IFC_2019_Jun_12_0915_278,True,2019_Jun_12_0915,2IFC,2,JOSU26,
2IFC,64,0,64,0,5.8,-1,correct answer,0.467157381121,True,False,stimulusJOSU26_2IFC_2019_Jun_12_0915_279,stimulusJOSU26_2IFC_2019_Jun_12_0915_280,True,2019_Jun_12_0915,2IFC,2,JOSU26,
2IFC,65,0,65,0,3,-1,correct answer,0.734744031448,False,True,stimulusJOSU26_2IFC_2019_Jun_12_0915_281,stimulusJOSU26_2IFC_2019_Jun_12_0915_282,True,2019_Jun_12_0915,2IFC,2,JOSU26,
2IFC,66,0,66,0,1.5,-1,wrong answer,0.405363729224,False,True,stimulusJOSU26_2IFC_2019_Jun_12_0915_283,stimulusJOSU26_2IFC_2019_Jun_12_0915_284,True,2019_Jun_12_0915,2IFC,2,JOSU26,
2IFC,67,0,67,0,7.6,-1,correct answer,0.368115107529,True,False,stimulusJOSU26_2IFC_2019_Jun_12_0915_285,stimulusJOSU26_2IFC_2019_Jun_12_0915_286,True,2019_Jun_12_0915,2IFC,2,JOSU26,
2IFC,68,0,68,0,4,-1,correct answer,0.600971438922,True,False,stimulusJOSU26_2IFC_2019_Jun_12_0915_287,stimulusJOSU26_2IFC_2019_Jun_12_0915_288,True,2019_Jun_12_0915,2IFC,2,JOSU26,
2IFC,69,0,69,0,5,-1,wrong answer,0.734191023279,False,True,stimulusJOSU26_2IFC_2019_Jun_12_0915_289,stimulusJOSU26_2IFC_2019_Jun_12_0915_290,True,2019_Jun_12_0915,2IFC,2,JOSU26,
2IFC,70,0,70,0,5,-1,correct answer,0.703880665358,False,True,stimulusJOSU26_2IFC_2019_Jun_12_0915_291,stimulusJOSU26_2IFC_2019_Jun_12_0915_292,True,2019_Jun_12_0915,2IFC,2,JOSU26,
2IFC,71,0,71,0,8.7,-1,correct answer,0.399994991254,True,False,stimulusJOSU26_2IFC_2019_Jun_12_0915_293,stimulusJOSU26_2IFC_2019_Jun_12_0915_294,True,2019_Jun_12_0915,2IFC,2,JOSU26,
2IFC,72,0,72,0,7.6,-1,correct answer,0.56778108608,False,True,stimulusJOSU26_2IFC_2019_Jun_12_0915_295,stimulusJOSU26_2IFC_2019_Jun_12_0915_296,True,2019_Jun_12_0915,2IFC,2,JOSU26,
2IFC,73,0,73,0,1.5,-1,wrong answer,0.697859566193,False,True,stimulusJOSU26_2IFC_2019_Jun_12_0915_297,stimulusJOSU26_2IFC_2019_Jun_12_0915_298,True,2019_Jun_12_0915,2IFC,2,JOSU26,
2IFC,74,0,74,0,1.5,-1,correct answer,0.568964285776,False,True,stimulusJOSU26_2IFC_2019_Jun_12_0915_299,stimulusJOSU26_2IFC_2019_Jun_12_0915_300,True,2019_Jun_12_0915,2IFC,2,JOSU26,
2IFC,0,0,0,0,8.7,-1,correct answer,0.666641486809,True,False,stimulusJOSU26_2IFC_2019_Jun_12_0915_301,stimulusJOSU26_2IFC_2019_Jun_12_0915_302,True,2019_Jun_12_0915,2IFC,2,JOSU26,
2IFC,1,0,1,0,8.7,-1,correct answer,0.468719516881,False,True,stimulusJOSU26_2IFC_2019_Jun_12_0915_303,stimulusJOSU26_2IFC_2019_Jun_12_0915_304,True,2019_Jun_12_0915,2IFC,2,JOSU26,
2IFC,2,0,2,0,7.6,-1,correct answer,0.533901422285,False,True,stimulusJOSU26_2IFC_2019_Jun_12_0915_305,stimulusJOSU26_2IFC_2019_Jun_12_0915_306,True,2019_Jun_12_0915,2IFC,2,JOSU26,
2IFC,3,0,3,0,3,-1,wrong answer,0.56748549128,False,True,stimulusJOSU26_2IFC_2019_Jun_12_0915_307,stimulusJOSU26_2IFC_2019_Jun_12_0915_308,True,2019_Jun_12_0915,2IFC,2,JOSU26,
2IFC,4,0,4,0,3,-1,correct answer,0.499308636878,True,False,stimulusJOSU26_2IFC_2019_Jun_12_0915_309,stimulusJOSU26_2IFC_2019_Jun_12_0915_310,True,2019_Jun_12_0915,2IFC,2,JOSU26,
2IFC,5,0,5,0,6.7,-1,correct answer,0.635780172888,False,True,stimulusJOSU26_2IFC_2019_Jun_12_0915_311,stimulusJOSU26_2IFC_2019_Jun_12_0915_312,True,2019_Jun_12_0915,2IFC,2,JOSU26,
2IFC,6,0,6,0,5,-1,correct answer,0.433136899956,True,False,stimulusJOSU26_2IFC_2019_Jun_12_0915_313,stimulusJOSU26_2IFC_2019_Jun_12_0915_314,True,2019_Jun_12_0915,2IFC,2,JOSU26,
2IFC,7,0,7,0,8.7,-1,correct answer,0.503431771882,False,True,stimulusJOSU26_2IFC_2019_Jun_12_0915_315,stimulusJOSU26_2IFC_2019_Jun_12_0915_316,True,2019_Jun_12_0915,2IFC,2,JOSU26,
2IFC,8,0,8,0,4,-1,correct answer,0.642455685418,False,True,stimulusJOSU26_2IFC_2019_Jun_12_0915_317,stimulusJOSU26_2IFC_2019_Jun_12_0915_318,True,2019_Jun_12_0915,2IFC,2,JOSU26,
2IFC,9,0,9,0,7.6,-1,correct answer,0.567433351651,False,True,stimulusJOSU26_2IFC_2019_Jun_12_0915_319,stimulusJOSU26_2IFC_2019_Jun_12_0915_320,True,2019_Jun_12_0915,2IFC,2,JOSU26,
2IFC,10,0,10,0,6.7,-1,correct answer,0.600672559813,False,True,stimulusJOSU26_2IFC_2019_Jun_12_0915_321,stimulusJOSU26_2IFC_2019_Jun_12_0915_322,True,2019_Jun_12_0915,2IFC,2,JOSU26,
2IFC,11,0,11,0,6.7,-1,correct answer,0.168447077274,True,False,stimulusJOSU26_2IFC_2019_Jun_12_0915_323,stimulusJOSU26_2IFC_2019_Jun_12_0915_324,True,2019_Jun_12_0915,2IFC,2,JOSU26,
2IFC,12,0,12,0,5,-1,correct answer,0.60536430357,False,True,stimulusJOSU26_2IFC_2019_Jun_12_0915_325,stimulusJOSU26_2IFC_2019_Jun_12_0915_326,True,2019_Jun_12_0915,2IFC,2,JOSU26,
2IFC,13,0,13,0,4,-1,correct answer,0.636307316832,True,False,stimulusJOSU26_2IFC_2019_Jun_12_0915_327,stimulusJOSU26_2IFC_2019_Jun_12_0915_328,True,2019_Jun_12_0915,2IFC,2,JOSU26,
2IFC,14,0,14,0,5,-1,correct answer,0.301311947871,True,False,stimulusJOSU26_2IFC_2019_Jun_12_0915_329,stimulusJOSU26_2IFC_2019_Jun_12_0915_330,True,2019_Jun_12_0915,2IFC,2,JOSU26,
2IFC,15,0,15,0,1.5,-1,correct answer,0.636538865976,True,False,stimulusJOSU26_2IFC_2019_Jun_12_0915_331,stimulusJOSU26_2IFC_2019_Jun_12_0915_332,True,2019_Jun_12_0915,2IFC,2,JOSU26,
2IFC,16,0,16,0,5,-1,correct answer,0.434309835546,True,False,stimulusJOSU26_2IFC_2019_Jun_12_0915_333,stimulusJOSU26_2IFC_2019_Jun_12_0915_334,True,2019_Jun_12_0915,2IFC,2,JOSU26,
2IFC,17,0,17,0,5,-1,correct answer,0.568494618405,False,True,stimulusJOSU26_2IFC_2019_Jun_12_0915_335,stimulusJOSU26_2IFC_2019_Jun_12_0915_336,True,2019_Jun_12_0915,2IFC,2,JOSU26,
2IFC,18,0,18,0,4,-1,correct answer,0.601156185847,True,False,stimulusJOSU26_2IFC_2019_Jun_12_0915_337,stimulusJOSU26_2IFC_2019_Jun_12_0915_338,True,2019_Jun_12_0915,2IFC,2,JOSU26,
2IFC,19,0,19,0,8.7,-1,correct answer,0.402376580983,True,False,stimulusJOSU26_2IFC_2019_Jun_12_0915_339,stimulusJOSU26_2IFC_2019_Jun_12_0915_340,True,2019_Jun_12_0915,2IFC,2,JOSU26,
2IFC,20,0,20,0,6.7,-1,correct answer,0.567021161318,True,False,stimulusJOSU26_2IFC_2019_Jun_12_0915_341,stimulusJOSU26_2IFC_2019_Jun_12_0915_342,True,2019_Jun_12_0915,2IFC,2,JOSU26,
2IFC,21,0,21,0,7.6,-1,correct answer,0.702952826396,False,True,stimulusJOSU26_2IFC_2019_Jun_12_0915_343,stimulusJOSU26_2IFC_2019_Jun_12_0915_344,True,2019_Jun_12_0915,2IFC,2,JOSU26,
2IFC,22,0,22,0,1.5,-1,correct answer,0.70132336067,True,False,stimulusJOSU26_2IFC_2019_Jun_12_0915_345,stimulusJOSU26_2IFC_2019_Jun_12_0915_346,True,2019_Jun_12_0915,2IFC,2,JOSU26,
2IFC,23,0,23,0,6.7,-1,correct answer,0.233506639022,True,False,stimulusJOSU26_2IFC_2019_Jun_12_0915_347,stimulusJOSU26_2IFC_2019_Jun_12_0915_348,True,2019_Jun_12_0915,2IFC,2,JOSU26,
2IFC,24,0,24,0,4,-1,wrong answer,0.700983426999,False,True,stimulusJOSU26_2IFC_2019_Jun_12_0915_349,stimulusJOSU26_2IFC_2019_Jun_12_0915_350,True,2019_Jun_12_0915,2IFC,2,JOSU26,
2IFC,25,0,25,0,1.5,-1,correct answer,0.801250776276,True,False,stimulusJOSU26_2IFC_2019_Jun_12_0915_351,stimulusJOSU26_2IFC_2019_Jun_12_0915_352,True,2019_Jun_12_0915,2IFC,2,JOSU26,
2IFC,26,0,26,0,6.7,-1,correct answer,0.502320007421,False,True,stimulusJOSU26_2IFC_2019_Jun_12_0915_353,stimulusJOSU26_2IFC_2019_Jun_12_0915_354,True,2019_Jun_12_0915,2IFC,2,JOSU26,
2IFC,27,0,27,0,5.8,-1,correct answer,0.401700818446,True,False,stimulusJOSU26_2IFC_2019_Jun_12_0915_355,stimulusJOSU26_2IFC_2019_Jun_12_0915_356,True,2019_Jun_12_0915,2IFC,2,JOSU26,
2IFC,28,0,28,0,4,-1,wrong answer,0.636412827298,False,True,stimulusJOSU26_2IFC_2019_Jun_12_0915_357,stimulusJOSU26_2IFC_2019_Jun_12_0915_358,True,2019_Jun_12_0915,2IFC,2,JOSU26,
2IFC,29,0,29,0,6.7,-1,correct answer,0.499787746463,False,True,stimulusJOSU26_2IFC_2019_Jun_12_0915_359,stimulusJOSU26_2IFC_2019_Jun_12_0915_360,True,2019_Jun_12_0915,2IFC,2,JOSU26,
2IFC,30,0,30,0,4,-1,correct answer,0.46957345726,True,False,stimulusJOSU26_2IFC_2019_Jun_12_0915_361,stimulusJOSU26_2IFC_2019_Jun_12_0915_362,True,2019_Jun_12_0915,2IFC,2,JOSU26,
2IFC,31,0,31,0,7.6,-1,correct answer,0.434531121049,True,False,stimulusJOSU26_2IFC_2019_Jun_12_0915_363,stimulusJOSU26_2IFC_2019_Jun_12_0915_364,True,2019_Jun_12_0915,2IFC,2,JOSU26,
2IFC,32,0,32,0,3,-1,correct answer,0.466508714948,True,False,stimulusJOSU26_2IFC_2019_Jun_12_0915_365,stimulusJOSU26_2IFC_2019_Jun_12_0915_366,True,2019_Jun_12_0915,2IFC,2,JOSU26,
2IFC,33,0,33,0,8.7,-1,correct answer,0.47020611167,False,True,stimulusJOSU26_2IFC_2019_Jun_12_0915_367,stimulusJOSU26_2IFC_2019_Jun_12_0915_368,True,2019_Jun_12_0915,2IFC,2,JOSU26,
2IFC,34,0,34,0,8.7,-1,correct answer,0.167901458684,True,False,stimulusJOSU26_2IFC_2019_Jun_12_0915_369,stimulusJOSU26_2IFC_2019_Jun_12_0915_370,True,2019_Jun_12_0915,2IFC,2,JOSU26,
2IFC,35,0,35,0,4,-1,correct answer,0.569691776764,True,False,stimulusJOSU26_2IFC_2019_Jun_12_0915_371,stimulusJOSU26_2IFC_2019_Jun_12_0915_372,True,2019_Jun_12_0915,2IFC,2,JOSU26,
2IFC,36,0,36,0,6.7,-1,correct answer,0.533139034174,False,True,stimulusJOSU26_2IFC_2019_Jun_12_0915_373,stimulusJOSU26_2IFC_2019_Jun_12_0915_374,True,2019_Jun_12_0915,2IFC,2,JOSU26,
2IFC,37,0,37,0,7.6,-1,correct answer,0.500690131448,False,True,stimulusJOSU26_2IFC_2019_Jun_12_0915_375,stimulusJOSU26_2IFC_2019_Jun_12_0915_376,True,2019_Jun_12_0915,2IFC,2,JOSU26,
2IFC,38,0,38,0,5,-1,correct answer,0.502610675525,True,False,stimulusJOSU26_2IFC_2019_Jun_12_0915_377,stimulusJOSU26_2IFC_2019_Jun_12_0915_378,True,2019_Jun_12_0915,2IFC,2,JOSU26,
2IFC,39,0,39,0,1.5,-1,correct answer,0.600547342561,True,False,stimulusJOSU26_2IFC_2019_Jun_12_0915_379,stimulusJOSU26_2IFC_2019_Jun_12_0915_380,True,2019_Jun_12_0915,2IFC,2,JOSU26,
2IFC,40,0,40,0,5,-1,correct answer,0.534104233142,False,True,stimulusJOSU26_2IFC_2019_Jun_12_0915_381,stimulusJOSU26_2IFC_2019_Jun_12_0915_382,True,2019_Jun_12_0915,2IFC,2,JOSU26,
2IFC,41,0,41,0,4,-1,correct answer,0.503722439986,False,True,stimulusJOSU26_2IFC_2019_Jun_12_0915_383,stimulusJOSU26_2IFC_2019_Jun_12_0915_384,True,2019_Jun_12_0915,2IFC,2,JOSU26,
2IFC,42,0,42,0,4,-1,correct answer,0.534753720276,False,True,stimulusJOSU26_2IFC_2019_Jun_12_0915_385,stimulusJOSU26_2IFC_2019_Jun_12_0915_386,True,2019_Jun_12_0915,2IFC,2,JOSU26,
2IFC,43,0,43,0,6.7,-1,correct answer,0.60660292767,True,False,stimulusJOSU26_2IFC_2019_Jun_12_0915_387,stimulusJOSU26_2IFC_2019_Jun_12_0915_388,True,2019_Jun_12_0915,2IFC,2,JOSU26,
2IFC,44,0,44,0,4,-1,correct answer,0.335627202876,True,False,stimulusJOSU26_2IFC_2019_Jun_12_0915_389,stimulusJOSU26_2IFC_2019_Jun_12_0915_390,True,2019_Jun_12_0915,2IFC,2,JOSU26,
2IFC,45,0,45,0,3,-1,correct answer,0.834799126722,True,False,stimulusJOSU26_2IFC_2019_Jun_12_0915_391,stimulusJOSU26_2IFC_2019_Jun_12_0915_392,True,2019_Jun_12_0915,2IFC,2,JOSU26,
2IFC,46,0,46,0,4,-1,correct answer,0.63380379416,True,False,stimulusJOSU26_2IFC_2019_Jun_12_0915_393,stimulusJOSU26_2IFC_2019_Jun_12_0915_394,True,2019_Jun_12_0915,2IFC,2,JOSU26,
2IFC,47,0,47,0,3,-1,correct answer,0.668653582688,True,False,stimulusJOSU26_2IFC_2019_Jun_12_0915_395,stimulusJOSU26_2IFC_2019_Jun_12_0915_396,True,2019_Jun_12_0915,2IFC,2,JOSU26,
2IFC,48,0,48,0,4,-1,correct answer,0.467257965356,False,True,stimulusJOSU26_2IFC_2019_Jun_12_0915_397,stimulusJOSU26_2IFC_2019_Jun_12_0915_398,True,2019_Jun_12_0915,2IFC,2,JOSU26,
2IFC,49,0,49,0,5.8,-1,correct answer,0.569268912543,False,True,stimulusJOSU26_2IFC_2019_Jun_12_0915_399,stimulusJOSU26_2IFC_2019_Jun_12_0915_400,True,2019_Jun_12_0915,2IFC,2,JOSU26,
2IFC,50,0,50,0,4,-1,wrong answer,0.734291607048,False,True,stimulusJOSU26_2IFC_2019_Jun_12_0915_401,stimulusJOSU26_2IFC_2019_Jun_12_0915_402,True,2019_Jun_12_0915,2IFC,2,JOSU26,
2IFC,51,0,51,0,8.7,-1,correct answer,0.596741151065,False,True,stimulusJOSU26_2IFC_2019_Jun_12_0915_403,stimulusJOSU26_2IFC_2019_Jun_12_0915_404,True,2019_Jun_12_0915,2IFC,2,JOSU26,
2IFC,52,0,52,0,1.5,-1,correct answer,0.738023489714,True,False,stimulusJOSU26_2IFC_2019_Jun_12_0915_405,stimulusJOSU26_2IFC_2019_Jun_12_0915_406,True,2019_Jun_12_0915,2IFC,2,JOSU26,
2IFC,53,0,53,0,6.7,-1,no answer,-1,True,False,stimulusJOSU26_2IFC_2019_Jun_12_0915_407,stimulusJOSU26_2IFC_2019_Jun_12_0915_408,True,2019_Jun_12_0915,2IFC,2,JOSU26,
2IFC,54,0,54,0,1.5,-1,correct answer,0.467068292201,True,False,stimulusJOSU26_2IFC_2019_Jun_12_0915_409,stimulusJOSU26_2IFC_2019_Jun_12_0915_410,True,2019_Jun_12_0915,2IFC,2,JOSU26,
2IFC,55,0,55,0,6.7,-1,correct answer,0.502739177085,False,True,stimulusJOSU26_2IFC_2019_Jun_12_0915_411,stimulusJOSU26_2IFC_2019_Jun_12_0915_412,True,2019_Jun_12_0915,2IFC,2,JOSU26,
2IFC,56,0,56,0,8.7,-1,correct answer,0.434666602407,True,False,stimulusJOSU26_2IFC_2019_Jun_12_0915_413,stimulusJOSU26_2IFC_2019_Jun_12_0915_414,True,2019_Jun_12_0915,2IFC,2,JOSU26,
2IFC,57,0,57,0,4,-1,correct answer,0.702256536577,False,True,stimulusJOSU26_2IFC_2019_Jun_12_0915_415,stimulusJOSU26_2IFC_2019_Jun_12_0915_416,True,2019_Jun_12_0915,2IFC,2,JOSU26,
2IFC,58,0,58,0,8.7,-1,correct answer,0.234862679616,True,False,stimulusJOSU26_2IFC_2019_Jun_12_0915_417,stimulusJOSU26_2IFC_2019_Jun_12_0915_418,True,2019_Jun_12_0915,2IFC,2,JOSU26,
2IFC,59,0,59,0,7.6,-1,correct answer,0.169644645881,True,False,stimulusJOSU26_2IFC_2019_Jun_12_0915_419,stimulusJOSU26_2IFC_2019_Jun_12_0915_420,True,2019_Jun_12_0915,2IFC,2,JOSU26,
2IFC,60,0,60,0,3,-1,wrong answer,0.801037291065,False,True,stimulusJOSU26_2IFC_2019_Jun_12_0915_421,stimulusJOSU26_2IFC_2019_Jun_12_0915_422,True,2019_Jun_12_0915,2IFC,2,JOSU26,
2IFC,61,0,61,0,6.7,-1,correct answer,0.466713578906,True,False,stimulusJOSU26_2IFC_2019_Jun_12_0915_423,stimulusJOSU26_2IFC_2019_Jun_12_0915_424,True,2019_Jun_12_0915,2IFC,2,JOSU26,
2IFC,62,0,62,0,5.8,-1,correct answer,0.538185081445,False,True,stimulusJOSU26_2IFC_2019_Jun_12_0915_425,stimulusJOSU26_2IFC_2019_Jun_12_0915_426,True,2019_Jun_12_0915,2IFC,2,JOSU26,
2IFC,63,0,63,0,8.7,-1,correct answer,0.333582672756,True,False,stimulusJOSU26_2IFC_2019_Jun_12_0915_427,stimulusJOSU26_2IFC_2019_Jun_12_0915_428,True,2019_Jun_12_0915,2IFC,2,JOSU26,
2IFC,64,0,64,0,1.5,-1,correct answer,0.700649651233,True,False,stimulusJOSU26_2IFC_2019_Jun_12_0915_429,stimulusJOSU26_2IFC_2019_Jun_12_0915_430,True,2019_Jun_12_0915,2IFC,2,JOSU26,
2IFC,65,0,65,0,5,-1,correct answer,0.536311340053,False,True,stimulusJOSU26_2IFC_2019_Jun_12_0915_431,stimulusJOSU26_2IFC_2019_Jun_12_0915_432,True,2019_Jun_12_0915,2IFC,2,JOSU26,
2IFC,66,0,66,0,5.8,-1,correct answer,0.735116398893,False,True,stimulusJOSU26_2IFC_2019_Jun_12_0915_433,stimulusJOSU26_2IFC_2019_Jun_12_0915_434,True,2019_Jun_12_0915,2IFC,2,JOSU26,
2IFC,67,0,67,0,5,-1,correct answer,0.46659657266,True,False,stimulusJOSU26_2IFC_2019_Jun_12_0915_435,stimulusJOSU26_2IFC_2019_Jun_12_0915_436,True,2019_Jun_12_0915,2IFC,2,JOSU26,
2IFC,68,0,68,0,8.7,-1,correct answer,0.435259844176,False,True,stimulusJOSU26_2IFC_2019_Jun_12_0915_437,stimulusJOSU26_2IFC_2019_Jun_12_0915_438,True,2019_Jun_12_0915,2IFC,2,JOSU26,
2IFC,69,0,69,0,3,-1,no answer,-1,False,True,stimulusJOSU26_2IFC_2019_Jun_12_0915_439,stimulusJOSU26_2IFC_2019_Jun_12_0915_440,True,2019_Jun_12_0915,2IFC,2,JOSU26,
2IFC,70,0,70,0,8.7,-1,correct answer,0.732321387157,True,False,stimulusJOSU26_2IFC_2019_Jun_12_0915_441,stimulusJOSU26_2IFC_2019_Jun_12_0915_442,True,2019_Jun_12_0915,2IFC,2,JOSU26,
2IFC,71,0,71,0,6.7,-1,correct answer,0.536066242959,False,True,stimulusJOSU26_2IFC_2019_Jun_12_0915_443,stimulusJOSU26_2IFC_2019_Jun_12_0915_444,True,2019_Jun_12_0915,2IFC,2,JOSU26,
2IFC,72,0,72,0,4,-1,correct answer,0.801134180278,False,True,stimulusJOSU26_2IFC_2019_Jun_12_0915_445,stimulusJOSU26_2IFC_2019_Jun_12_0915_446,True,2019_Jun_12_0915,2IFC,2,JOSU26,
2IFC,73,0,73,0,7.6,-1,correct answer,0.733459836803,False,True,stimulusJOSU26_2IFC_2019_Jun_12_0915_447,stimulusJOSU26_2IFC_2019_Jun_12_0915_448,True,2019_Jun_12_0915,2IFC,2,JOSU26,
2IFC,74,0,74,0,3,-1,correct answer,0.66882354999,False,True,stimulusJOSU26_2IFC_2019_Jun_12_0915_449,stimulusJOSU26_2IFC_2019_Jun_12_0915_450,True,2019_Jun_12_0915,2IFC,2,JOSU26,
2IFC,0,0,0,0,1.5,-1,wrong answer,0.766804556362,False,True,stimulusJOSU26_2IFC_2019_Jun_12_0915_451,stimulusJOSU26_2IFC_2019_Jun_12_0915_452,True,2019_Jun_12_0915,2IFC,2,JOSU26,
2IFC,1,0,1,0,5,-1,correct answer,0.800533958711,True,False,stimulusJOSU26_2IFC_2019_Jun_12_0915_453,stimulusJOSU26_2IFC_2019_Jun_12_0915_454,True,2019_Jun_12_0915,2IFC,2,JOSU26,
2IFC,2,0,2,0,7.6,-1,correct answer,0.534229450393,False,True,stimulusJOSU26_2IFC_2019_Jun_12_0915_455,stimulusJOSU26_2IFC_2019_Jun_12_0915_456,True,2019_Jun_12_0915,2IFC,2,JOSU26,
2IFC,3,0,3,0,3,-1,no answer,-1,True,False,stimulusJOSU26_2IFC_2019_Jun_12_0915_457,stimulusJOSU26_2IFC_2019_Jun_12_0915_458,True,2019_Jun_12_0915,2IFC,2,JOSU26,
2IFC,4,0,4,0,1.5,-1,correct answer,0.701060609892,False,True,stimulusJOSU26_2IFC_2019_Jun_12_0915_459,stimulusJOSU26_2IFC_2019_Jun_12_0915_460,True,2019_Jun_12_0915,2IFC,2,JOSU26,
2IFC,5,0,5,0,4,-1,wrong answer,0.867981679738,True,False,stimulusJOSU26_2IFC_2019_Jun_12_0915_461,stimulusJOSU26_2IFC_2019_Jun_12_0915_462,True,2019_Jun_12_0915,2IFC,2,JOSU26,
2IFC,6,0,6,0,5.8,-1,wrong answer,0.738031290472,True,False,stimulusJOSU26_2IFC_2019_Jun_12_0915_463,stimulusJOSU26_2IFC_2019_Jun_12_0915_464,True,2019_Jun_12_0915,2IFC,2,JOSU26,
2IFC,7,0,7,0,4,-1,no answer,-1,True,False,stimulusJOSU26_2IFC_2019_Jun_12_0915_465,stimulusJOSU26_2IFC_2019_Jun_12_0915_466,True,2019_Jun_12_0915,2IFC,2,JOSU26,
2IFC,8,0,8,0,5.8,-1,no answer,-1,False,True,stimulusJOSU26_2IFC_2019_Jun_12_0915_467,stimulusJOSU26_2IFC_2019_Jun_12_0915_468,True,2019_Jun_12_0915,2IFC,2,JOSU26,
2IFC,9,0,9,0,4,-1,wrong answer,0.767752101179,False,True,stimulusJOSU26_2IFC_2019_Jun_12_0915_469,stimulusJOSU26_2IFC_2019_Jun_12_0915_470,True,2019_Jun_12_0915,2IFC,2,JOSU26,
2IFC,10,0,10,0,5.8,-1,correct answer,0.469291821122,True,False,stimulusJOSU26_2IFC_2019_Jun_12_0915_471,stimulusJOSU26_2IFC_2019_Jun_12_0915_472,True,2019_Jun_12_0915,2IFC,2,JOSU26,
2IFC,11,0,11,0,4,-1,no answer,-1,True,False,stimulusJOSU26_2IFC_2019_Jun_12_0915_473,stimulusJOSU26_2IFC_2019_Jun_12_0915_474,True,2019_Jun_12_0915,2IFC,2,JOSU26,
2IFC,12,0,12,0,8.7,-1,no answer,-1,True,False,stimulusJOSU26_2IFC_2019_Jun_12_0915_475,stimulusJOSU26_2IFC_2019_Jun_12_0915_476,True,2019_Jun_12_0915,2IFC,2,JOSU26,
2IFC,13,0,13,0,6.7,-1,correct answer,0.434535226785,False,True,stimulusJOSU26_2IFC_2019_Jun_12_0915_477,stimulusJOSU26_2IFC_2019_Jun_12_0915_478,True,2019_Jun_12_0915,2IFC,2,JOSU26,
2IFC,14,0,14,0,3,-1,correct answer,0.668505374808,True,False,stimulusJOSU26_2IFC_2019_Jun_12_0915_479,stimulusJOSU26_2IFC_2019_Jun_12_0915_480,True,2019_Jun_12_0915,2IFC,2,JOSU26,
2IFC,15,0,15,0,7.6,-1,correct answer,0.16652899608,True,False,stimulusJOSU26_2IFC_2019_Jun_12_0915_481,stimulusJOSU26_2IFC_2019_Jun_12_0915_482,True,2019_Jun_12_0915,2IFC,2,JOSU26,
2IFC,16,0,16,0,5,-1,correct answer,0.568583296612,False,True,stimulusJOSU26_2IFC_2019_Jun_12_0915_483,stimulusJOSU26_2IFC_2019_Jun_12_0915_484,True,2019_Jun_12_0915,2IFC,2,JOSU26,
2IFC,17,0,17,0,3,-1,wrong answer,0.667142354883,False,True,stimulusJOSU26_2IFC_2019_Jun_12_0915_485,stimulusJOSU26_2IFC_2019_Jun_12_0915_486,True,2019_Jun_12_0915,2IFC,2,JOSU26,
2IFC,18,0,18,0,5.8,-1,correct answer,0.598837409634,False,True,stimulusJOSU26_2IFC_2019_Jun_12_0915_487,stimulusJOSU26_2IFC_2019_Jun_12_0915_488,True,2019_Jun_12_0915,2IFC,2,JOSU26,
2IFC,19,0,19,0,5,-1,correct answer,0.602128773928,False,True,stimulusJOSU26_2IFC_2019_Jun_12_0915_489,stimulusJOSU26_2IFC_2019_Jun_12_0915_490,True,2019_Jun_12_0915,2IFC,2,JOSU26,
2IFC,20,0,20,0,5.8,-1,correct answer,0.435553796589,True,False,stimulusJOSU26_2IFC_2019_Jun_12_0915_491,stimulusJOSU26_2IFC_2019_Jun_12_0915_492,True,2019_Jun_12_0915,2IFC,2,JOSU26,
2IFC,21,0,21,0,8.7,-1,correct answer,0.632852143608,True,False,stimulusJOSU26_2IFC_2019_Jun_12_0915_493,stimulusJOSU26_2IFC_2019_Jun_12_0915_494,True,2019_Jun_12_0915,2IFC,2,JOSU26,
2IFC,22,0,22,0,1.5,-1,correct answer,0.503693290986,False,True,stimulusJOSU26_2IFC_2019_Jun_12_0915_495,stimulusJOSU26_2IFC_2019_Jun_12_0915_496,True,2019_Jun_12_0915,2IFC,2,JOSU26,
2IFC,23,0,23,0,5,-1,correct answer,0.46619834099,False,True,stimulusJOSU26_2IFC_2019_Jun_12_0915_497,stimulusJOSU26_2IFC_2019_Jun_12_0915_498,True,2019_Jun_12_0915,2IFC,2,JOSU26,
2IFC,24,0,24,0,5,-1,correct answer,0.538223673124,False,True,stimulusJOSU26_2IFC_2019_Jun_12_0915_499,stimulusJOSU26_2IFC_2019_Jun_12_0915_500,True,2019_Jun_12_0915,2IFC,2,JOSU26,
2IFC,25,0,25,0,4,-1,correct answer,0.399643972516,False,True,stimulusJOSU26_2IFC_2019_Jun_12_0915_501,stimulusJOSU26_2IFC_2019_Jun_12_0915_502,True,2019_Jun_12_0915,2IFC,2,JOSU26,
2IFC,26,0,26,0,3,-1,wrong answer,0.670889427885,False,True,stimulusJOSU26_2IFC_2019_Jun_12_0915_503,stimulusJOSU26_2IFC_2019_Jun_12_0915_504,True,2019_Jun_12_0915,2IFC,2,JOSU26,
2IFC,27,0,27,0,1.5,-1,wrong answer,0.532658693381,True,False,stimulusJOSU26_2IFC_2019_Jun_12_0915_505,stimulusJOSU26_2IFC_2019_Jun_12_0915_506,True,2019_Jun_12_0915,2IFC,2,JOSU26,
2IFC,28,0,28,0,8.7,-1,correct answer,0.471257936209,True,False,stimulusJOSU26_2IFC_2019_Jun_12_0915_507,stimulusJOSU26_2IFC_2019_Jun_12_0915_508,True,2019_Jun_12_0915,2IFC,2,JOSU26,
2IFC,29,0,29,0,5.8,-1,correct answer,0.506553580053,False,True,stimulusJOSU26_2IFC_2019_Jun_12_0915_509,stimulusJOSU26_2IFC_2019_Jun_12_0915_510,True,2019_Jun_12_0915,2IFC,2,JOSU26,
2IFC,30,0,30,0,1.5,-1,wrong answer,0.56840019254,True,False,stimulusJOSU26_2IFC_2019_Jun_12_0915_511,stimulusJOSU26_2IFC_2019_Jun_12_0915_512,True,2019_Jun_12_0915,2IFC,2,JOSU26,
2IFC,31,0,31,0,1.5,-1,correct answer,0.766617756337,True,False,stimulusJOSU26_2IFC_2019_Jun_12_0915_513,stimulusJOSU26_2IFC_2019_Jun_12_0915_514,True,2019_Jun_12_0915,2IFC,2,JOSU26,
2IFC,32,0,32,0,6.7,-1,correct answer,0.701105359942,False,True,stimulusJOSU26_2IFC_2019_Jun_12_0915_515,stimulusJOSU26_2IFC_2019_Jun_12_0915_516,True,2019_Jun_12_0915,2IFC,2,JOSU26,
2IFC,33,0,33,0,5.8,-1,correct answer,0.435781650711,False,True,stimulusJOSU26_2IFC_2019_Jun_12_0915_517,stimulusJOSU26_2IFC_2019_Jun_12_0915_518,True,2019_Jun_12_0915,2IFC,2,JOSU26,
2IFC,34,0,34,0,6.7,-1,correct answer,0.402780560311,True,False,stimulusJOSU26_2IFC_2019_Jun_12_0915_519,stimulusJOSU26_2IFC_2019_Jun_12_0915_520,True,2019_Jun_12_0915,2IFC,2,JOSU26,
2IFC,35,0,35,0,7.6,-1,correct answer,0.432774385437,True,False,stimulusJOSU26_2IFC_2019_Jun_12_0915_521,stimulusJOSU26_2IFC_2019_Jun_12_0915_522,True,2019_Jun_12_0915,2IFC,2,JOSU26,
2IFC,36,0,36,0,3,-1,correct answer,0.669310870115,False,True,stimulusJOSU26_2IFC_2019_Jun_12_0915_523,stimulusJOSU26_2IFC_2019_Jun_12_0915_524,True,2019_Jun_12_0915,2IFC,2,JOSU26,
2IFC,37,0,37,0,8.7,-1,correct answer,0.429130360484,True,False,stimulusJOSU26_2IFC_2019_Jun_12_0915_525,stimulusJOSU26_2IFC_2019_Jun_12_0915_526,True,2019_Jun_12_0915,2IFC,2,JOSU26,
2IFC,38,0,38,0,8.7,-1,correct answer,0.702130909078,False,True,stimulusJOSU26_2IFC_2019_Jun_12_0915_527,stimulusJOSU26_2IFC_2019_Jun_12_0915_528,True,2019_Jun_12_0915,2IFC,2,JOSU26,
2IFC,39,0,39,0,7.6,-1,correct answer,0.563424349297,False,True,stimulusJOSU26_2IFC_2019_Jun_12_0915_529,stimulusJOSU26_2IFC_2019_Jun_12_0915_530,True,2019_Jun_12_0915,2IFC,2,JOSU26,
2IFC,40,0,40,0,3,-1,correct answer,0.800574192777,False,True,stimulusJOSU26_2IFC_2019_Jun_12_0915_531,stimulusJOSU26_2IFC_2019_Jun_12_0915_532,True,2019_Jun_12_0915,2IFC,2,JOSU26,
2IFC,41,0,41,0,5.8,-1,correct answer,0.602050770074,False,True,stimulusJOSU26_2IFC_2019_Jun_12_0915_533,stimulusJOSU26_2IFC_2019_Jun_12_0915_534,True,2019_Jun_12_0915,2IFC,2,JOSU26,
2IFC,42,0,42,0,6.7,-1,correct answer,0.567121335305,True,False,stimulusJOSU26_2IFC_2019_Jun_12_0915_535,stimulusJOSU26_2IFC_2019_Jun_12_0915_536,True,2019_Jun_12_0915,2IFC,2,JOSU26,
2IFC,43,0,43,0,7.6,-1,correct answer,0.50211268058,True,False,stimulusJOSU26_2IFC_2019_Jun_12_0915_537,stimulusJOSU26_2IFC_2019_Jun_12_0915_538,True,2019_Jun_12_0915,2IFC,2,JOSU26,
2IFC,44,0,44,0,3,-1,correct answer,0.468090557028,True,False,stimulusJOSU26_2IFC_2019_Jun_12_0915_539,stimulusJOSU26_2IFC_2019_Jun_12_0915_540,True,2019_Jun_12_0915,2IFC,2,JOSU26,
2IFC,45,0,45,0,5,-1,correct answer,0.672360011376,False,True,stimulusJOSU26_2IFC_2019_Jun_12_0915_541,stimulusJOSU26_2IFC_2019_Jun_12_0915_542,True,2019_Jun_12_0915,2IFC,2,JOSU26,
2IFC,46,0,46,0,1.5,-1,wrong answer,0.799547001254,False,True,stimulusJOSU26_2IFC_2019_Jun_12_0915_543,stimulusJOSU26_2IFC_2019_Jun_12_0915_544,True,2019_Jun_12_0915,2IFC,2,JOSU26,
2IFC,47,0,47,0,3,-1,correct answer,0.502288805787,False,True,stimulusJOSU26_2IFC_2019_Jun_12_0915_545,stimulusJOSU26_2IFC_2019_Jun_12_0915_546,True,2019_Jun_12_0915,2IFC,2,JOSU26,
2IFC,48,0,48,0,5.8,-1,correct answer,0.475533794612,False,True,stimulusJOSU26_2IFC_2019_Jun_12_0915_547,stimulusJOSU26_2IFC_2019_Jun_12_0915_548,True,2019_Jun_12_0915,2IFC,2,JOSU26,
2IFC,49,0,49,0,1.5,-1,wrong answer,0.599975038785,True,False,stimulusJOSU26_2IFC_2019_Jun_12_0915_549,stimulusJOSU26_2IFC_2019_Jun_12_0915_550,True,2019_Jun_12_0915,2IFC,2,JOSU26,
2IFC,50,0,50,0,6.7,-1,correct answer,0.830037179403,False,True,stimulusJOSU26_2IFC_2019_Jun_12_0915_551,stimulusJOSU26_2IFC_2019_Jun_12_0915_552,True,2019_Jun_12_0915,2IFC,2,JOSU26,
2IFC,51,0,51,0,3,-1,correct answer,0.667152208276,False,True,stimulusJOSU26_2IFC_2019_Jun_12_0915_553,stimulusJOSU26_2IFC_2019_Jun_12_0915_554,True,2019_Jun_12_0915,2IFC,2,JOSU26,
2IFC,52,0,52,0,1.5,-1,correct answer,0.701079905499,True,False,stimulusJOSU26_2IFC_2019_Jun_12_0915_555,stimulusJOSU26_2IFC_2019_Jun_12_0915_556,True,2019_Jun_12_0915,2IFC,2,JOSU26,
2IFC,53,0,53,0,6.7,-1,wrong answer,0.766681391746,False,True,stimulusJOSU26_2IFC_2019_Jun_12_0915_557,stimulusJOSU26_2IFC_2019_Jun_12_0915_558,True,2019_Jun_12_0915,2IFC,2,JOSU26,
2IFC,54,0,54,0,5.8,-1,correct answer,0.466418394819,True,False,stimulusJOSU26_2IFC_2019_Jun_12_0915_559,stimulusJOSU26_2IFC_2019_Jun_12_0915_560,True,2019_Jun_12_0915,2IFC,2,JOSU26,
2IFC,55,0,55,0,4,-1,no answer,-1,True,False,stimulusJOSU26_2IFC_2019_Jun_12_0915_561,stimulusJOSU26_2IFC_2019_Jun_12_0915_562,True,2019_Jun_12_0915,2IFC,2,JOSU26,
2IFC,56,0,56,0,3,-1,wrong answer,0.734229614493,True,False,stimulusJOSU26_2IFC_2019_Jun_12_0915_563,stimulusJOSU26_2IFC_2019_Jun_12_0915_564,True,2019_Jun_12_0915,2IFC,2,JOSU26,
2IFC,57,0,57,0,6.7,-1,correct answer,0.268157722428,True,False,stimulusJOSU26_2IFC_2019_Jun_12_0915_565,stimulusJOSU26_2IFC_2019_Jun_12_0915_566,True,2019_Jun_12_0915,2IFC,2,JOSU26,
2IFC,58,0,58,0,3,-1,correct answer,0.735202613752,True,False,stimulusJOSU26_2IFC_2019_Jun_12_0915_567,stimulusJOSU26_2IFC_2019_Jun_12_0915_568,True,2019_Jun_12_0915,2IFC,2,JOSU26,
2IFC,59,0,59,0,3,-1,wrong answer,0.766798808705,False,True,stimulusJOSU26_2IFC_2019_Jun_12_0915_569,stimulusJOSU26_2IFC_2019_Jun_12_0915_570,True,2019_Jun_12_0915,2IFC,2,JOSU26,
2IFC,60,0,60,0,1.5,-1,correct answer,0.535518981982,False,True,stimulusJOSU26_2IFC_2019_Jun_12_0915_571,stimulusJOSU26_2IFC_2019_Jun_12_0915_572,True,2019_Jun_12_0915,2IFC,2,JOSU26,
2IFC,61,0,61,0,7.6,-1,correct answer,0.603254907764,False,True,stimulusJOSU26_2IFC_2019_Jun_12_0915_573,stimulusJOSU26_2IFC_2019_Jun_12_0915_574,True,2019_Jun_12_0915,2IFC,2,JOSU26,
2IFC,62,0,62,0,7.6,-1,no answer,-1,False,True,stimulusJOSU26_2IFC_2019_Jun_12_0915_575,stimulusJOSU26_2IFC_2019_Jun_12_0915_576,True,2019_Jun_12_0915,2IFC,2,JOSU26,
2IFC,63,0,63,0,4,-1,wrong answer,0.734536704607,True,False,stimulusJOSU26_2IFC_2019_Jun_12_0915_577,stimulusJOSU26_2IFC_2019_Jun_12_0915_578,True,2019_Jun_12_0915,2IFC,2,JOSU26,
2IFC,64,0,64,0,1.5,-1,correct answer,0.700726013165,True,False,stimulusJOSU26_2IFC_2019_Jun_12_0915_579,stimulusJOSU26_2IFC_2019_Jun_12_0915_580,True,2019_Jun_12_0915,2IFC,2,JOSU26,
2IFC,65,0,65,0,5.8,-1,correct answer,0.602271644864,True,False,stimulusJOSU26_2IFC_2019_Jun_12_0915_581,stimulusJOSU26_2IFC_2019_Jun_12_0915_582,True,2019_Jun_12_0915,2IFC,2,JOSU26,
2IFC,66,0,66,0,5.8,-1,correct answer,0.567749473732,True,False,stimulusJOSU26_2IFC_2019_Jun_12_0915_583,stimulusJOSU26_2IFC_2019_Jun_12_0915_584,True,2019_Jun_12_0915,2IFC,2,JOSU26,
2IFC,67,0,67,0,3,-1,correct answer,0.600966512226,False,True,stimulusJOSU26_2IFC_2019_Jun_12_0915_585,stimulusJOSU26_2IFC_2019_Jun_12_0915_586,True,2019_Jun_12_0915,2IFC,2,JOSU26,
2IFC,68,0,68,0,3,-1,correct answer,0.402535463218,False,True,stimulusJOSU26_2IFC_2019_Jun_12_0915_587,stimulusJOSU26_2IFC_2019_Jun_12_0915_588,True,2019_Jun_12_0915,2IFC,2,JOSU26,
2IFC,69,0,69,0,7.6,-1,correct answer,0.599089896772,True,False,stimulusJOSU26_2IFC_2019_Jun_12_0915_589,stimulusJOSU26_2IFC_2019_Jun_12_0915_590,True,2019_Jun_12_0915,2IFC,2,JOSU26,
2IFC,70,0,70,0,4,-1,correct answer,0.601777344942,True,False,stimulusJOSU26_2IFC_2019_Jun_12_0915_591,stimulusJOSU26_2IFC_2019_Jun_12_0915_592,True,2019_Jun_12_0915,2IFC,2,JOSU26,
2IFC,71,0,71,0,6.7,-1,correct answer,0.532860272564,True,False,stimulusJOSU26_2IFC_2019_Jun_12_0915_593,stimulusJOSU26_2IFC_2019_Jun_12_0915_594,True,2019_Jun_12_0915,2IFC,2,JOSU26,
2IFC,72,0,72,0,5,-1,correct answer,0.601597935427,True,False,stimulusJOSU26_2IFC_2019_Jun_12_0915_595,stimulusJOSU26_2IFC_2019_Jun_12_0915_596,True,2019_Jun_12_0915,2IFC,2,JOSU26,
2IFC,73,0,73,0,5.8,-1,correct answer,0.533595975023,False,True,stimulusJOSU26_2IFC_2019_Jun_12_0915_597,stimulusJOSU26_2IFC_2019_Jun_12_0915_598,True,2019_Jun_12_0915,2IFC,2,JOSU26,
2IFC,74,0,74,0,4,-1,wrong answer,0.768025937025,False,True,stimulusJOSU26_2IFC_2019_Jun_12_0915_599,stimulusJOSU26_2IFC_2019_Jun_12_0915_600,True,2019_Jun_12_0915,2IFC,2,JOSU26,
2IFC,0,0,0,0,6.7,-1,wrong answer,0.634674566798,False,True,stimulusJOSU26_2IFC_2019_Jun_12_0915_601,stimulusJOSU26_2IFC_2019_Jun_12_0915_602,True,2019_Jun_12_0915,2IFC,2,JOSU26,
2IFC,1,0,1,0,7.6,-1,correct answer,0.768192619551,True,False,stimulusJOSU26_2IFC_2019_Jun_12_0915_603,stimulusJOSU26_2IFC_2019_Jun_12_0915_604,True,2019_Jun_12_0915,2IFC,2,JOSU26,
2IFC,2,0,2,0,1.5,-1,correct answer,0.73335145181,True,False,stimulusJOSU26_2IFC_2019_Jun_12_0915_605,stimulusJOSU26_2IFC_2019_Jun_12_0915_606,True,2019_Jun_12_0915,2IFC,2,JOSU26,
2IFC,3,0,3,0,4,-1,correct answer,0.633607962634,True,False,stimulusJOSU26_2IFC_2019_Jun_12_0915_607,stimulusJOSU26_2IFC_2019_Jun_12_0915_608,True,2019_Jun_12_0915,2IFC,2,JOSU26,
2IFC,4,0,4,0,5.8,-1,correct answer,0.568205592688,True,False,stimulusJOSU26_2IFC_2019_Jun_12_0915_609,stimulusJOSU26_2IFC_2019_Jun_12_0915_610,True,2019_Jun_12_0915,2IFC,2,JOSU26,
2IFC,5,0,5,0,5.8,-1,correct answer,0.667792663444,True,False,stimulusJOSU26_2IFC_2019_Jun_12_0915_611,stimulusJOSU26_2IFC_2019_Jun_12_0915_612,True,2019_Jun_12_0915,2IFC,2,JOSU26,
2IFC,6,0,6,0,1.5,-1,wrong answer,0.596692706458,False,True,stimulusJOSU26_2IFC_2019_Jun_12_0915_613,stimulusJOSU26_2IFC_2019_Jun_12_0915_614,True,2019_Jun_12_0915,2IFC,2,JOSU26,
2IFC,7,0,7,0,4,-1,correct answer,0.499645696953,False,True,stimulusJOSU26_2IFC_2019_Jun_12_0915_615,stimulusJOSU26_2IFC_2019_Jun_12_0915_616,True,2019_Jun_12_0915,2IFC,2,JOSU26,
2IFC,8,0,8,0,6.7,-1,correct answer,0.471212365199,True,False,stimulusJOSU26_2IFC_2019_Jun_12_0915_617,stimulusJOSU26_2IFC_2019_Jun_12_0915_618,True,2019_Jun_12_0915,2IFC,2,JOSU26,
2IFC,9,0,9,0,6.7,-1,correct answer,0.466543200891,True,False,stimulusJOSU26_2IFC_2019_Jun_12_0915_619,stimulusJOSU26_2IFC_2019_Jun_12_0915_620,True,2019_Jun_12_0915,2IFC,2,JOSU26,
2IFC,10,0,10,0,4,-1,correct answer,0.568178086076,False,True,stimulusJOSU26_2IFC_2019_Jun_12_0915_621,stimulusJOSU26_2IFC_2019_Jun_12_0915_622,True,2019_Jun_12_0915,2IFC,2,JOSU26,
2IFC,11,0,11,0,3,-1,correct answer,0.701103717554,False,True,stimulusJOSU26_2IFC_2019_Jun_12_0915_623,stimulusJOSU26_2IFC_2019_Jun_12_0915_624,True,2019_Jun_12_0915,2IFC,2,JOSU26,
2IFC,12,0,12,0,5.8,-1,correct answer,0.534271737095,False,True,stimulusJOSU26_2IFC_2019_Jun_12_0915_625,stimulusJOSU26_2IFC_2019_Jun_12_0915_626,True,2019_Jun_12_0915,2IFC,2,JOSU26,
2IFC,13,0,13,0,8.7,-1,correct answer,0.301539801527,True,False,stimulusJOSU26_2IFC_2019_Jun_12_0915_627,stimulusJOSU26_2IFC_2019_Jun_12_0915_628,True,2019_Jun_12_0915,2IFC,2,JOSU26,
2IFC,14,0,14,0,6.7,-1,correct answer,0.533279442228,False,True,stimulusJOSU26_2IFC_2019_Jun_12_0915_629,stimulusJOSU26_2IFC_2019_Jun_12_0915_630,True,2019_Jun_12_0915,2IFC,2,JOSU26,
2IFC,15,0,15,0,6.7,-1,correct answer,0.336835445836,True,False,stimulusJOSU26_2IFC_2019_Jun_12_0915_631,stimulusJOSU26_2IFC_2019_Jun_12_0915_632,True,2019_Jun_12_0915,2IFC,2,JOSU26,
2IFC,16,0,16,0,4,-1,wrong answer,0.4662127099,False,True,stimulusJOSU26_2IFC_2019_Jun_12_0915_633,stimulusJOSU26_2IFC_2019_Jun_12_0915_634,True,2019_Jun_12_0915,2IFC,2,JOSU26,
2IFC,17,0,17,0,5,-1,wrong answer,0.10047180159,False,True,stimulusJOSU26_2IFC_2019_Jun_12_0915_635,stimulusJOSU26_2IFC_2019_Jun_12_0915_636,True,2019_Jun_12_0915,2IFC,2,JOSU26,
2IFC,18,0,18,0,1.5,-1,correct answer,0.610473985784,True,False,stimulusJOSU26_2IFC_2019_Jun_12_0915_637,stimulusJOSU26_2IFC_2019_Jun_12_0915_638,True,2019_Jun_12_0915,2IFC,2,JOSU26,
2IFC,19,0,19,0,8.7,-1,correct answer,0.542989726644,False,True,stimulusJOSU26_2IFC_2019_Jun_12_0915_639,stimulusJOSU26_2IFC_2019_Jun_12_0915_640,True,2019_Jun_12_0915,2IFC,2,JOSU26,
2IFC,20,0,20,0,1.5,-1,correct answer,0.536107297521,True,False,stimulusJOSU26_2IFC_2019_Jun_12_0915_641,stimulusJOSU26_2IFC_2019_Jun_12_0915_642,True,2019_Jun_12_0915,2IFC,2,JOSU26,
2IFC,21,0,21,0,8.7,-1,correct answer,0.667253202759,True,False,stimulusJOSU26_2IFC_2019_Jun_12_0915_643,stimulusJOSU26_2IFC_2019_Jun_12_0915_644,True,2019_Jun_12_0915,2IFC,2,JOSU26,
2IFC,22,0,22,0,6.7,-1,correct answer,0.567201802507,False,True,stimulusJOSU26_2IFC_2019_Jun_12_0915_645,stimulusJOSU26_2IFC_2019_Jun_12_0915_646,True,2019_Jun_12_0915,2IFC,2,JOSU26,
2IFC,23,0,23,0,6.7,-1,correct answer,0.400274574757,True,False,stimulusJOSU26_2IFC_2019_Jun_12_0915_647,stimulusJOSU26_2IFC_2019_Jun_12_0915_648,True,2019_Jun_12_0915,2IFC,2,JOSU26,
2IFC,24,0,24,0,8.7,-1,correct answer,0.469052881934,True,False,stimulusJOSU26_2IFC_2019_Jun_12_0915_649,stimulusJOSU26_2IFC_2019_Jun_12_0915_650,True,2019_Jun_12_0915,2IFC,2,JOSU26,
2IFC,25,0,25,0,3,-1,wrong answer,0.833991168067,False,True,stimulusJOSU26_2IFC_2019_Jun_12_0915_651,stimulusJOSU26_2IFC_2019_Jun_12_0915_652,True,2019_Jun_12_0915,2IFC,2,JOSU26,
2IFC,26,0,26,0,3,-1,correct answer,0.502517891582,False,True,stimulusJOSU26_2IFC_2019_Jun_12_0915_653,stimulusJOSU26_2IFC_2019_Jun_12_0915_654,True,2019_Jun_12_0915,2IFC,2,JOSU26,
2IFC,27,0,27,0,1.5,-1,wrong answer,0.600022251252,False,True,stimulusJOSU26_2IFC_2019_Jun_12_0915_655,stimulusJOSU26_2IFC_2019_Jun_12_0915_656,True,2019_Jun_12_0915,2IFC,2,JOSU26,
2IFC,28,0,28,0,4,-1,correct answer,0.467643470038,False,True,stimulusJOSU26_2IFC_2019_Jun_12_0915_657,stimulusJOSU26_2IFC_2019_Jun_12_0915_658,True,2019_Jun_12_0915,2IFC,2,JOSU26,
2IFC,29,0,29,0,3,-1,correct answer,0.631883660797,False,True,stimulusJOSU26_2IFC_2019_Jun_12_0915_659,stimulusJOSU26_2IFC_2019_Jun_12_0915_660,True,2019_Jun_12_0915,2IFC,2,JOSU26,
2IFC,30,0,30,0,3,-1,correct answer,0.475007061381,True,False,stimulusJOSU26_2IFC_2019_Jun_12_0915_661,stimulusJOSU26_2IFC_2019_Jun_12_0915_662,True,2019_Jun_12_0915,2IFC,2,JOSU26,
2IFC,31,0,31,0,4,-1,wrong answer,0.568245005328,True,False,stimulusJOSU26_2IFC_2019_Jun_12_0915_663,stimulusJOSU26_2IFC_2019_Jun_12_0915_664,True,2019_Jun_12_0915,2IFC,2,JOSU26,
2IFC,32,0,32,0,5,-1,correct answer,0.701668631751,False,True,stimulusJOSU26_2IFC_2019_Jun_12_0915_665,stimulusJOSU26_2IFC_2019_Jun_12_0915_666,True,2019_Jun_12_0915,2IFC,2,JOSU26,
2IFC,33,0,33,0,5.8,-1,correct answer,0.567511766683,False,True,stimulusJOSU26_2IFC_2019_Jun_12_0915_667,stimulusJOSU26_2IFC_2019_Jun_12_0915_668,True,2019_Jun_12_0915,2IFC,2,JOSU26,
2IFC,34,0,34,0,8.7,-1,no answer,-1,False,True,stimulusJOSU26_2IFC_2019_Jun_12_0915_669,stimulusJOSU26_2IFC_2019_Jun_12_0915_670,True,2019_Jun_12_0915,2IFC,2,JOSU26,
2IFC,35,0,35,0,4,-1,correct answer,0.732959378511,True,False,stimulusJOSU26_2IFC_2019_Jun_12_0915_671,stimulusJOSU26_2IFC_2019_Jun_12_0915_672,True,2019_Jun_12_0915,2IFC,2,JOSU26,
2IFC,36,0,36,0,3,-1,correct answer,0.634343665093,False,True,stimulusJOSU26_2IFC_2019_Jun_12_0915_673,stimulusJOSU26_2IFC_2019_Jun_12_0915_674,True,2019_Jun_12_0915,2IFC,2,JOSU26,
2IFC,37,0,37,0,1.5,-1,wrong answer,0.833801494911,False,True,stimulusJOSU26_2IFC_2019_Jun_12_0915_675,stimulusJOSU26_2IFC_2019_Jun_12_0915_676,True,2019_Jun_12_0915,2IFC,2,JOSU26,
2IFC,38,0,38,0,8.7,-1,correct answer,0.470265640877,True,False,stimulusJOSU26_2IFC_2019_Jun_12_0915_677,stimulusJOSU26_2IFC_2019_Jun_12_0915_678,True,2019_Jun_12_0915,2IFC,2,JOSU26,
2IFC,39,0,39,0,5,-1,correct answer,0.668954514898,False,True,stimulusJOSU26_2IFC_2019_Jun_12_0915_679,stimulusJOSU26_2IFC_2019_Jun_12_0915_680,True,2019_Jun_12_0915,2IFC,2,JOSU26,
2IFC,40,0,40,0,7.6,-1,correct answer,0.634194636252,False,True,stimulusJOSU26_2IFC_2019_Jun_12_0915_681,stimulusJOSU26_2IFC_2019_Jun_12_0915_682,True,2019_Jun_12_0915,2IFC,2,JOSU26,
2IFC,41,0,41,0,4,-1,correct answer,0.700895569287,False,True,stimulusJOSU26_2IFC_2019_Jun_12_0915_683,stimulusJOSU26_2IFC_2019_Jun_12_0915_684,True,2019_Jun_12_0915,2IFC,2,JOSU26,
2IFC,42,0,42,0,3,-1,correct answer,0.502250624821,True,False,stimulusJOSU26_2IFC_2019_Jun_12_0915_685,stimulusJOSU26_2IFC_2019_Jun_12_0915_686,True,2019_Jun_12_0915,2IFC,2,JOSU26,
2IFC,43,0,43,0,3,-1,correct answer,0.608871616889,True,False,stimulusJOSU26_2IFC_2019_Jun_12_0915_687,stimulusJOSU26_2IFC_2019_Jun_12_0915_688,True,2019_Jun_12_0915,2IFC,2,JOSU26,
2IFC,44,0,44,0,7.6,-1,correct answer,0.50254006125,False,True,stimulusJOSU26_2IFC_2019_Jun_12_0915_689,stimulusJOSU26_2IFC_2019_Jun_12_0915_690,True,2019_Jun_12_0915,2IFC,2,JOSU26,
2IFC,45,0,45,0,8.7,-1,correct answer,0.700558509678,False,True,stimulusJOSU26_2IFC_2019_Jun_12_0915_691,stimulusJOSU26_2IFC_2019_Jun_12_0915_692,True,2019_Jun_12_0915,2IFC,2,JOSU26,
2IFC,46,0,46,0,3,-1,correct answer,0.602022852749,False,True,stimulusJOSU26_2IFC_2019_Jun_12_0915_693,stimulusJOSU26_2IFC_2019_Jun_12_0915_694,True,2019_Jun_12_0915,2IFC,2,JOSU26,
2IFC,47,0,47,0,8.7,-1,correct answer,0.366404764354,True,False,stimulusJOSU26_2IFC_2019_Jun_12_0915_695,stimulusJOSU26_2IFC_2019_Jun_12_0915_696,True,2019_Jun_12_0915,2IFC,2,JOSU26,
2IFC,48,0,48,0,3,-1,correct answer,0.669525176752,True,False,stimulusJOSU26_2IFC_2019_Jun_12_0915_697,stimulusJOSU26_2IFC_2019_Jun_12_0915_698,True,2019_Jun_12_0915,2IFC,2,JOSU26,
2IFC,49,0,49,0,4,-1,correct answer,0.601471486501,True,False,stimulusJOSU26_2IFC_2019_Jun_12_0915_699,stimulusJOSU26_2IFC_2019_Jun_12_0915_700,True,2019_Jun_12_0915,2IFC,2,JOSU26,
2IFC,50,0,50,0,3,-1,correct answer,0.734569137916,False,True,stimulusJOSU26_2IFC_2019_Jun_12_0915_701,stimulusJOSU26_2IFC_2019_Jun_12_0915_702,True,2019_Jun_12_0915,2IFC,2,JOSU26,
2IFC,51,0,51,0,6.7,-1,correct answer,0.599186375737,False,True,stimulusJOSU26_2IFC_2019_Jun_12_0915_703,stimulusJOSU26_2IFC_2019_Jun_12_0915_704,True,2019_Jun_12_0915,2IFC,2,JOSU26,
2IFC,52,0,52,0,6.7,-1,correct answer,0.367426207755,True,False,stimulusJOSU26_2IFC_2019_Jun_12_0915_705,stimulusJOSU26_2IFC_2019_Jun_12_0915_706,True,2019_Jun_12_0915,2IFC,2,JOSU26,
2IFC,53,0,53,0,5,-1,correct answer,0.567978559528,False,True,stimulusJOSU26_2IFC_2019_Jun_12_0915_707,stimulusJOSU26_2IFC_2019_Jun_12_0915_708,True,2019_Jun_12_0915,2IFC,2,JOSU26,
2IFC,54,0,54,0,3,-1,correct answer,0.8011087263,True,False,stimulusJOSU26_2IFC_2019_Jun_12_0915_709,stimulusJOSU26_2IFC_2019_Jun_12_0915_710,True,2019_Jun_12_0915,2IFC,2,JOSU26,
2IFC,55,0,55,0,3,-1,no answer,-1,False,True,stimulusJOSU26_2IFC_2019_Jun_12_0915_711,stimulusJOSU26_2IFC_2019_Jun_12_0915_712,True,2019_Jun_12_0915,2IFC,2,JOSU26,
2IFC,56,0,56,0,5.8,-1,correct answer,0.534713897388,False,True,stimulusJOSU26_2IFC_2019_Jun_12_0915_713,stimulusJOSU26_2IFC_2019_Jun_12_0915_714,True,2019_Jun_12_0915,2IFC,2,JOSU26,
2IFC,57,0,57,0,7.6,-1,correct answer,0.566214844584,False,True,stimulusJOSU26_2IFC_2019_Jun_12_0915_715,stimulusJOSU26_2IFC_2019_Jun_12_0915_716,True,2019_Jun_12_0915,2IFC,2,JOSU26,
2IFC,58,0,58,0,4,-1,correct answer,0.635627038311,False,True,stimulusJOSU26_2IFC_2019_Jun_12_0915_717,stimulusJOSU26_2IFC_2019_Jun_12_0915_718,True,2019_Jun_12_0915,2IFC,2,JOSU26,
2IFC,59,0,59,0,6.7,-1,correct answer,0.598884623032,False,True,stimulusJOSU26_2IFC_2019_Jun_12_0915_719,stimulusJOSU26_2IFC_2019_Jun_12_0915_720,True,2019_Jun_12_0915,2IFC,2,JOSU26,
2IFC,60,0,60,0,8.7,-1,correct answer,0.402315820102,True,False,stimulusJOSU26_2IFC_2019_Jun_12_0915_721,stimulusJOSU26_2IFC_2019_Jun_12_0915_722,True,2019_Jun_12_0915,2IFC,2,JOSU26,
2IFC,61,0,61,0,1.5,-1,correct answer,0.633156770375,True,False,stimulusJOSU26_2IFC_2019_Jun_12_0915_723,stimulusJOSU26_2IFC_2019_Jun_12_0915_724,True,2019_Jun_12_0915,2IFC,2,JOSU26,
2IFC,62,0,62,0,8.7,-1,correct answer,0.33473836584,True,False,stimulusJOSU26_2IFC_2019_Jun_12_0915_725,stimulusJOSU26_2IFC_2019_Jun_12_0915_726,True,2019_Jun_12_0915,2IFC,2,JOSU26,
2IFC,63,0,63,0,8.7,-1,correct answer,0.235235047061,True,False,stimulusJOSU26_2IFC_2019_Jun_12_0915_727,stimulusJOSU26_2IFC_2019_Jun_12_0915_728,True,2019_Jun_12_0915,2IFC,2,JOSU26,
2IFC,64,0,64,0,7.6,-1,correct answer,0.466571118217,False,True,stimulusJOSU26_2IFC_2019_Jun_12_0915_729,stimulusJOSU26_2IFC_2019_Jun_12_0915_730,True,2019_Jun_12_0915,2IFC,2,JOSU26,
2IFC,65,0,65,0,8.7,-1,wrong answer,0.801245849114,False,True,stimulusJOSU26_2IFC_2019_Jun_12_0915_731,stimulusJOSU26_2IFC_2019_Jun_12_0915_732,True,2019_Jun_12_0915,2IFC,2,JOSU26,
2IFC,66,0,66,0,6.7,-1,correct answer,0.767263959162,False,True,stimulusJOSU26_2IFC_2019_Jun_12_0915_733,stimulusJOSU26_2IFC_2019_Jun_12_0915_734,True,2019_Jun_12_0915,2IFC,2,JOSU26,
2IFC,67,0,67,0,5.8,-1,correct answer,0.668411359657,True,False,stimulusJOSU26_2IFC_2019_Jun_12_0915_735,stimulusJOSU26_2IFC_2019_Jun_12_0915_736,True,2019_Jun_12_0915,2IFC,2,JOSU26,
2IFC,68,0,68,0,5.8,-1,correct answer,0.464777844492,True,False,stimulusJOSU26_2IFC_2019_Jun_12_0915_737,stimulusJOSU26_2IFC_2019_Jun_12_0915_738,True,2019_Jun_12_0915,2IFC,2,JOSU26,
2IFC,69,0,69,0,6.7,-1,correct answer,0.502010864671,True,False,stimulusJOSU26_2IFC_2019_Jun_12_0915_739,stimulusJOSU26_2IFC_2019_Jun_12_0915_740,True,2019_Jun_12_0915,2IFC,2,JOSU26,
2IFC,70,0,70,0,4,-1,correct answer,0.501780957449,True,False,stimulusJOSU26_2IFC_2019_Jun_12_0915_741,stimulusJOSU26_2IFC_2019_Jun_12_0915_742,True,2019_Jun_12_0915,2IFC,2,JOSU26,
2IFC,71,0,71,0,8.7,-1,correct answer,0.534770553,False,True,stimulusJOSU26_2IFC_2019_Jun_12_0915_743,stimulusJOSU26_2IFC_2019_Jun_12_0915_744,True,2019_Jun_12_0915,2IFC,2,JOSU26,
2IFC,72,0,72,0,6.7,-1,correct answer,0.501922186464,False,True,stimulusJOSU26_2IFC_2019_Jun_12_0915_745,stimulusJOSU26_2IFC_2019_Jun_12_0915_746,True,2019_Jun_12_0915,2IFC,2,JOSU26,
2IFC,73,0,73,0,5.8,-1,correct answer,0.733039024752,True,False,stimulusJOSU26_2IFC_2019_Jun_12_0915_747,stimulusJOSU26_2IFC_2019_Jun_12_0915_748,True,2019_Jun_12_0915,2IFC,2,JOSU26,
2IFC,74,0,74,0,4,-1,correct answer,0.767887582071,True,False,stimulusJOSU26_2IFC_2019_Jun_12_0915_749,stimulusJOSU26_2IFC_2019_Jun_12_0915_750,True,2019_Jun_12_0915,2IFC,2,JOSU26,
2IFC,0,0,0,0,8.7,-1,correct answer,0.535382269882,False,True,stimulusJOSU26_2IFC_2019_Jun_12_0915_751,stimulusJOSU26_2IFC_2019_Jun_12_0915_752,True,2019_Jun_12_0915,2IFC,2,JOSU26,
2IFC,1,0,1,0,7.6,-1,correct answer,0.532854114193,True,False,stimulusJOSU26_2IFC_2019_Jun_12_0915_753,stimulusJOSU26_2IFC_2019_Jun_12_0915_754,True,2019_Jun_12_0915,2IFC,2,JOSU26,
2IFC,2,0,2,0,7.6,-1,correct answer,0.500343629159,False,True,stimulusJOSU26_2IFC_2019_Jun_12_0915_755,stimulusJOSU26_2IFC_2019_Jun_12_0915_756,True,2019_Jun_12_0915,2IFC,2,JOSU26,
2IFC,3,0,3,0,5.8,-1,correct answer,0.401774717495,True,False,stimulusJOSU26_2IFC_2019_Jun_12_0915_757,stimulusJOSU26_2IFC_2019_Jun_12_0915_758,True,2019_Jun_12_0915,2IFC,2,JOSU26,
2IFC,4,0,4,0,3,-1,correct answer,0.566748146899,True,False,stimulusJOSU26_2IFC_2019_Jun_12_0915_759,stimulusJOSU26_2IFC_2019_Jun_12_0915_760,True,2019_Jun_12_0915,2IFC,2,JOSU26,
2IFC,5,0,5,0,7.6,-1,correct answer,0.801399394404,True,False,stimulusJOSU26_2IFC_2019_Jun_12_0915_761,stimulusJOSU26_2IFC_2019_Jun_12_0915_762,True,2019_Jun_12_0915,2IFC,2,JOSU26,
2IFC,6,0,6,0,3,-1,wrong answer,0.567181685474,False,True,stimulusJOSU26_2IFC_2019_Jun_12_0915_763,stimulusJOSU26_2IFC_2019_Jun_12_0915_764,True,2019_Jun_12_0915,2IFC,2,JOSU26,
2IFC,7,0,7,0,4,-1,correct answer,0.568032341078,False,True,stimulusJOSU26_2IFC_2019_Jun_12_0915_765,stimulusJOSU26_2IFC_2019_Jun_12_0915_766,True,2019_Jun_12_0915,2IFC,2,JOSU26,
2IFC,8,0,8,0,5.8,-1,correct answer,0.501154050697,True,False,stimulusJOSU26_2IFC_2019_Jun_12_0915_767,stimulusJOSU26_2IFC_2019_Jun_12_0915_768,True,2019_Jun_12_0915,2IFC,2,JOSU26,
2IFC,9,0,9,0,8.7,-1,correct answer,0.634368297644,False,True,stimulusJOSU26_2IFC_2019_Jun_12_0915_769,stimulusJOSU26_2IFC_2019_Jun_12_0915_770,True,2019_Jun_12_0915,2IFC,2,JOSU26,
2IFC,10,0,10,0,6.7,-1,correct answer,0.332907320932,True,False,stimulusJOSU26_2IFC_2019_Jun_12_0915_771,stimulusJOSU26_2IFC_2019_Jun_12_0915_772,True,2019_Jun_12_0915,2IFC,2,JOSU26,
2IFC,11,0,11,0,7.6,-1,correct answer,0.601660749409,False,True,stimulusJOSU26_2IFC_2019_Jun_12_0915_773,stimulusJOSU26_2IFC_2019_Jun_12_0915_774,True,2019_Jun_12_0915,2IFC,2,JOSU26,
2IFC,12,0,12,0,4,-1,wrong answer,0.668496342842,False,True,stimulusJOSU26_2IFC_2019_Jun_12_0915_775,stimulusJOSU26_2IFC_2019_Jun_12_0915_776,True,2019_Jun_12_0915,2IFC,2,JOSU26,
2IFC,13,0,13,0,1.5,-1,correct answer,0.667078309692,False,True,stimulusJOSU26_2IFC_2019_Jun_12_0915_777,stimulusJOSU26_2IFC_2019_Jun_12_0915_778,True,2019_Jun_12_0915,2IFC,2,JOSU26,
2IFC,14,0,14,0,1.5,-1,correct answer,0.670844267588,False,True,stimulusJOSU26_2IFC_2019_Jun_12_0915_779,stimulusJOSU26_2IFC_2019_Jun_12_0915_780,True,2019_Jun_12_0915,2IFC,2,JOSU26,
2IFC,15,0,15,0,8.7,-1,correct answer,0.530434343498,True,False,stimulusJOSU26_2IFC_2019_Jun_12_0915_781,stimulusJOSU26_2IFC_2019_Jun_12_0915_782,True,2019_Jun_12_0915,2IFC,2,JOSU26,
2IFC,16,0,16,0,5.8,-1,correct answer,0.737746370025,False,True,stimulusJOSU26_2IFC_2019_Jun_12_0915_783,stimulusJOSU26_2IFC_2019_Jun_12_0915_784,True,2019_Jun_12_0915,2IFC,2,JOSU26,
2IFC,17,0,17,0,3,-1,correct answer,0.635744454805,True,False,stimulusJOSU26_2IFC_2019_Jun_12_0915_785,stimulusJOSU26_2IFC_2019_Jun_12_0915_786,True,2019_Jun_12_0915,2IFC,2,JOSU26,
2IFC,18,0,18,0,6.7,-1,correct answer,0.80345706176,True,False,stimulusJOSU26_2IFC_2019_Jun_12_0915_787,stimulusJOSU26_2IFC_2019_Jun_12_0915_788,True,2019_Jun_12_0915,2IFC,2,JOSU26,
2IFC,19,0,19,0,8.7,-1,correct answer,0.337709502783,True,False,stimulusJOSU26_2IFC_2019_Jun_12_0915_789,stimulusJOSU26_2IFC_2019_Jun_12_0915_790,True,2019_Jun_12_0915,2IFC,2,JOSU26,
2IFC,20,0,20,0,7.6,-1,correct answer,0.365249892231,True,False,stimulusJOSU26_2IFC_2019_Jun_12_0915_791,stimulusJOSU26_2IFC_2019_Jun_12_0915_792,True,2019_Jun_12_0915,2IFC,2,JOSU26,
2IFC,21,0,21,0,6.7,-1,correct answer,0.532886547036,True,False,stimulusJOSU26_2IFC_2019_Jun_12_0915_793,stimulusJOSU26_2IFC_2019_Jun_12_0915_794,True,2019_Jun_12_0915,2IFC,2,JOSU26,
2IFC,22,0,22,0,6.7,-1,correct answer,0.702224924695,True,False,stimulusJOSU26_2IFC_2019_Jun_12_0915_795,stimulusJOSU26_2IFC_2019_Jun_12_0915_796,True,2019_Jun_12_0915,2IFC,2,JOSU26,
2IFC,23,0,23,0,5,-1,correct answer,0.467492388561,True,False,stimulusJOSU26_2IFC_2019_Jun_12_0915_797,stimulusJOSU26_2IFC_2019_Jun_12_0915_798,True,2019_Jun_12_0915,2IFC,2,JOSU26,
2IFC,24,0,24,0,5,-1,correct answer,0.7004345241,True,False,stimulusJOSU26_2IFC_2019_Jun_12_0915_799,stimulusJOSU26_2IFC_2019_Jun_12_0915_800,True,2019_Jun_12_0915,2IFC,2,JOSU26,
2IFC,25,0,25,0,4,-1,correct answer,0.567097112536,True,False,stimulusJOSU26_2IFC_2019_Jun_12_0915_801,stimulusJOSU26_2IFC_2019_Jun_12_0915_802,True,2019_Jun_12_0915,2IFC,2,JOSU26,
2IFC,26,0,26,0,5,-1,correct answer,0.701922350563,True,False,stimulusJOSU26_2IFC_2019_Jun_12_0915_803,stimulusJOSU26_2IFC_2019_Jun_12_0915_804,True,2019_Jun_12_0915,2IFC,2,JOSU26,
2IFC,27,0,27,0,4,-1,wrong answer,0.70287523279,False,True,stimulusJOSU26_2IFC_2019_Jun_12_0915_805,stimulusJOSU26_2IFC_2019_Jun_12_0915_806,True,2019_Jun_12_0915,2IFC,2,JOSU26,
2IFC,28,0,28,0,7.6,-1,correct answer,0.400275395717,True,False,stimulusJOSU26_2IFC_2019_Jun_12_0915_807,stimulusJOSU26_2IFC_2019_Jun_12_0915_808,True,2019_Jun_12_0915,2IFC,2,JOSU26,
2IFC,29,0,29,0,3,-1,no answer,-1,False,True,stimulusJOSU26_2IFC_2019_Jun_12_0915_809,stimulusJOSU26_2IFC_2019_Jun_12_0915_810,True,2019_Jun_12_0915,2IFC,2,JOSU26,
2IFC,30,0,30,0,4,-1,correct answer,0.502690732479,False,True,stimulusJOSU26_2IFC_2019_Jun_12_0915_811,stimulusJOSU26_2IFC_2019_Jun_12_0915_812,True,2019_Jun_12_0915,2IFC,2,JOSU26,
2IFC,31,0,31,0,5,-1,correct answer,0.434963839129,True,False,stimulusJOSU26_2IFC_2019_Jun_12_0915_813,stimulusJOSU26_2IFC_2019_Jun_12_0915_814,True,2019_Jun_12_0915,2IFC,2,JOSU26,
2IFC,32,0,32,0,8.7,-1,correct answer,0.634655681439,False,True,stimulusJOSU26_2IFC_2019_Jun_12_0915_815,stimulusJOSU26_2IFC_2019_Jun_12_0915_816,True,2019_Jun_12_0915,2IFC,2,JOSU26,
2IFC,33,0,33,0,1.5,-1,wrong answer,0.701873495243,False,True,stimulusJOSU26_2IFC_2019_Jun_12_0915_817,stimulusJOSU26_2IFC_2019_Jun_12_0915_818,True,2019_Jun_12_0915,2IFC,2,JOSU26,
2IFC,34,0,34,0,4,-1,correct answer,0.600001723971,True,False,stimulusJOSU26_2IFC_2019_Jun_12_0915_819,stimulusJOSU26_2IFC_2019_Jun_12_0915_820,True,2019_Jun_12_0915,2IFC,2,JOSU26,
2IFC,35,0,35,0,3,-1,wrong answer,0.801125969272,False,True,stimulusJOSU26_2IFC_2019_Jun_12_0915_821,stimulusJOSU26_2IFC_2019_Jun_12_0915_822,True,2019_Jun_12_0915,2IFC,2,JOSU26,
2IFC,36,0,36,0,5,-1,correct answer,0.59920443967,False,True,stimulusJOSU26_2IFC_2019_Jun_12_0915_823,stimulusJOSU26_2IFC_2019_Jun_12_0915_824,True,2019_Jun_12_0915,2IFC,2,JOSU26,
2IFC,37,0,37,0,3,-1,wrong answer,0.670293312054,False,True,stimulusJOSU26_2IFC_2019_Jun_12_0915_825,stimulusJOSU26_2IFC_2019_Jun_12_0915_826,True,2019_Jun_12_0915,2IFC,2,JOSU26,
2IFC,38,0,38,0,8.7,-1,correct answer,0.534444577992,False,True,stimulusJOSU26_2IFC_2019_Jun_12_0915_827,stimulusJOSU26_2IFC_2019_Jun_12_0915_828,True,2019_Jun_12_0915,2IFC,2,JOSU26,
2IFC,39,0,39,0,1.5,-1,wrong answer,0.734466501046,False,True,stimulusJOSU26_2IFC_2019_Jun_12_0915_829,stimulusJOSU26_2IFC_2019_Jun_12_0915_830,True,2019_Jun_12_0915,2IFC,2,JOSU26,
2IFC,40,0,40,0,1.5,-1,correct answer,0.668488542084,True,False,stimulusJOSU26_2IFC_2019_Jun_12_0915_831,stimulusJOSU26_2IFC_2019_Jun_12_0915_832,True,2019_Jun_12_0915,2IFC,2,JOSU26,
2IFC,41,0,41,0,3,-1,wrong answer,0.600090813357,True,False,stimulusJOSU26_2IFC_2019_Jun_12_0915_833,stimulusJOSU26_2IFC_2019_Jun_12_0915_834,True,2019_Jun_12_0915,2IFC,2,JOSU26,
2IFC,42,0,42,0,7.6,-1,correct answer,0.702771774959,False,True,stimulusJOSU26_2IFC_2019_Jun_12_0915_835,stimulusJOSU26_2IFC_2019_Jun_12_0915_836,True,2019_Jun_12_0915,2IFC,2,JOSU26,
2IFC,43,0,43,0,8.7,-1,correct answer,0.83348126756,False,True,stimulusJOSU26_2IFC_2019_Jun_12_0915_837,stimulusJOSU26_2IFC_2019_Jun_12_0915_838,True,2019_Jun_12_0915,2IFC,2,JOSU26,
2IFC,44,0,44,0,1.5,-1,wrong answer,0.741879357956,True,False,stimulusJOSU26_2IFC_2019_Jun_12_0915_839,stimulusJOSU26_2IFC_2019_Jun_12_0915_840,True,2019_Jun_12_0915,2IFC,2,JOSU26,
2IFC,45,0,45,0,5.8,-1,correct answer,0.634120326489,False,True,stimulusJOSU26_2IFC_2019_Jun_12_0915_841,stimulusJOSU26_2IFC_2019_Jun_12_0915_842,True,2019_Jun_12_0915,2IFC,2,JOSU26,
2IFC,46,0,46,0,8.7,-1,correct answer,0.600009934977,False,True,stimulusJOSU26_2IFC_2019_Jun_12_0915_843,stimulusJOSU26_2IFC_2019_Jun_12_0915_844,True,2019_Jun_12_0915,2IFC,2,JOSU26,
2IFC,47,0,47,0,6.7,-1,correct answer,0.603489330504,False,True,stimulusJOSU26_2IFC_2019_Jun_12_0915_845,stimulusJOSU26_2IFC_2019_Jun_12_0915_846,True,2019_Jun_12_0915,2IFC,2,JOSU26,
2IFC,48,0,48,0,4,-1,correct answer,0.636065914296,False,True,stimulusJOSU26_2IFC_2019_Jun_12_0915_847,stimulusJOSU26_2IFC_2019_Jun_12_0915_848,True,2019_Jun_12_0915,2IFC,2,JOSU26,
2IFC,49,0,49,0,1.5,-1,correct answer,0.834431686439,True,False,stimulusJOSU26_2IFC_2019_Jun_12_0915_849,stimulusJOSU26_2IFC_2019_Jun_12_0915_850,True,2019_Jun_12_0915,2IFC,2,JOSU26,
2IFC,50,0,50,0,5.8,-1,wrong answer,0.774765905458,False,True,stimulusJOSU26_2IFC_2019_Jun_12_0915_851,stimulusJOSU26_2IFC_2019_Jun_12_0915_852,True,2019_Jun_12_0915,2IFC,2,JOSU26,
2IFC,51,0,51,0,1.5,-1,correct answer,0.601921036839,False,True,stimulusJOSU26_2IFC_2019_Jun_12_0915_853,stimulusJOSU26_2IFC_2019_Jun_12_0915_854,True,2019_Jun_12_0915,2IFC,2,JOSU26,
2IFC,52,0,52,0,8.7,-1,correct answer,0.701544646639,False,True,stimulusJOSU26_2IFC_2019_Jun_12_0915_855,stimulusJOSU26_2IFC_2019_Jun_12_0915_856,True,2019_Jun_12_0915,2IFC,2,JOSU26,
2IFC,53,0,53,0,4,-1,correct answer,0.566575716715,False,True,stimulusJOSU26_2IFC_2019_Jun_12_0915_857,stimulusJOSU26_2IFC_2019_Jun_12_0915_858,True,2019_Jun_12_0915,2IFC,2,JOSU26,
2IFC,54,0,54,0,4,-1,wrong answer,0.698585005011,True,False,stimulusJOSU26_2IFC_2019_Jun_12_0915_859,stimulusJOSU26_2IFC_2019_Jun_12_0915_860,True,2019_Jun_12_0915,2IFC,2,JOSU26,
2IFC,55,0,55,0,5,-1,correct answer,0.600464412011,False,True,stimulusJOSU26_2IFC_2019_Jun_12_0915_861,stimulusJOSU26_2IFC_2019_Jun_12_0915_862,True,2019_Jun_12_0915,2IFC,2,JOSU26,
2IFC,56,0,56,0,6.7,-1,correct answer,0.53581088176,False,True,stimulusJOSU26_2IFC_2019_Jun_12_0915_863,stimulusJOSU26_2IFC_2019_Jun_12_0915_864,True,2019_Jun_12_0915,2IFC,2,JOSU26,
2IFC,57,0,57,0,7.6,-1,correct answer,0.533921949565,False,True,stimulusJOSU26_2IFC_2019_Jun_12_0915_865,stimulusJOSU26_2IFC_2019_Jun_12_0915_866,True,2019_Jun_12_0915,2IFC,2,JOSU26,
2IFC,58,0,58,0,6.7,-1,correct answer,0.502609443851,True,False,stimulusJOSU26_2IFC_2019_Jun_12_0915_867,stimulusJOSU26_2IFC_2019_Jun_12_0915_868,True,2019_Jun_12_0915,2IFC,2,JOSU26,
2IFC,59,0,59,0,1.5,-1,wrong answer,0.499753260985,True,False,stimulusJOSU26_2IFC_2019_Jun_12_0915_869,stimulusJOSU26_2IFC_2019_Jun_12_0915_870,True,2019_Jun_12_0915,2IFC,2,JOSU26,
2IFC,60,0,60,0,5,-1,correct answer,0.501913154032,False,True,stimulusJOSU26_2IFC_2019_Jun_12_0915_871,stimulusJOSU26_2IFC_2019_Jun_12_0915_872,True,2019_Jun_12_0915,2IFC,2,JOSU26,
2IFC,61,0,61,0,1.5,-1,wrong answer,0.736022067722,False,True,stimulusJOSU26_2IFC_2019_Jun_12_0915_873,stimulusJOSU26_2IFC_2019_Jun_12_0915_874,True,2019_Jun_12_0915,2IFC,2,JOSU26,
2IFC,62,0,62,0,1.5,-1,correct answer,0.443073806819,False,True,stimulusJOSU26_2IFC_2019_Jun_12_0915_875,stimulusJOSU26_2IFC_2019_Jun_12_0915_876,True,2019_Jun_12_0915,2IFC,2,JOSU26,
2IFC,63,0,63,0,5,-1,wrong answer,0.600057969335,True,False,stimulusJOSU26_2IFC_2019_Jun_12_0915_877,stimulusJOSU26_2IFC_2019_Jun_12_0915_878,True,2019_Jun_12_0915,2IFC,2,JOSU26,
2IFC,64,0,64,0,5,-1,correct answer,0.502619296778,True,False,stimulusJOSU26_2IFC_2019_Jun_12_0915_879,stimulusJOSU26_2IFC_2019_Jun_12_0915_880,True,2019_Jun_12_0915,2IFC,2,JOSU26,
2IFC,65,0,65,0,8.7,-1,correct answer,0.601153722033,False,True,stimulusJOSU26_2IFC_2019_Jun_12_0915_881,stimulusJOSU26_2IFC_2019_Jun_12_0915_882,True,2019_Jun_12_0915,2IFC,2,JOSU26,
2IFC,66,0,66,0,4,-1,correct answer,0.668914691545,True,False,stimulusJOSU26_2IFC_2019_Jun_12_0915_883,stimulusJOSU26_2IFC_2019_Jun_12_0915_884,True,2019_Jun_12_0915,2IFC,2,JOSU26,
2IFC,67,0,67,0,1.5,-1,correct answer,0.768295256421,True,False,stimulusJOSU26_2IFC_2019_Jun_12_0915_885,stimulusJOSU26_2IFC_2019_Jun_12_0915_886,True,2019_Jun_12_0915,2IFC,2,JOSU26,
2IFC,68,0,68,0,4,-1,correct answer,0.534252030309,True,False,stimulusJOSU26_2IFC_2019_Jun_12_0915_887,stimulusJOSU26_2IFC_2019_Jun_12_0915_888,True,2019_Jun_12_0915,2IFC,2,JOSU26,
2IFC,69,0,69,0,4,-1,correct answer,0.604219696019,False,True,stimulusJOSU26_2IFC_2019_Jun_12_0915_889,stimulusJOSU26_2IFC_2019_Jun_12_0915_890,True,2019_Jun_12_0915,2IFC,2,JOSU26,
2IFC,70,0,70,0,7.6,-1,correct answer,0.701315149665,False,True,stimulusJOSU26_2IFC_2019_Jun_12_0915_891,stimulusJOSU26_2IFC_2019_Jun_12_0915_892,True,2019_Jun_12_0915,2IFC,2,JOSU26,
2IFC,71,0,71,0,8.7,-1,correct answer,0.567945715506,True,False,stimulusJOSU26_2IFC_2019_Jun_12_0915_893,stimulusJOSU26_2IFC_2019_Jun_12_0915_894,True,2019_Jun_12_0915,2IFC,2,JOSU26,
2IFC,72,0,72,0,4,-1,correct answer,0.84052093653,False,True,stimulusJOSU26_2IFC_2019_Jun_12_0915_895,stimulusJOSU26_2IFC_2019_Jun_12_0915_896,True,2019_Jun_12_0915,2IFC,2,JOSU26,
2IFC,73,0,73,0,4,-1,wrong answer,0.501089184545,False,True,stimulusJOSU26_2IFC_2019_Jun_12_0915_897,stimulusJOSU26_2IFC_2019_Jun_12_0915_898,True,2019_Jun_12_0915,2IFC,2,JOSU26,
2IFC,74,0,74,0,5,-1,correct answer,0.468838986475,False,True,stimulusJOSU26_2IFC_2019_Jun_12_0915_899,stimulusJOSU26_2IFC_2019_Jun_12_0915_900,True,2019_Jun_12_0915,2IFC,2,JOSU26,
2IFC,0,0,0,0,1.5,-1,wrong answer,0.666629170068,False,True,stimulusJOSU26_2IFC_2019_Jun_12_0915_901,stimulusJOSU26_2IFC_2019_Jun_12_0915_902,True,2019_Jun_12_0915,2IFC,2,JOSU26,
2IFC,1,0,1,0,3,-1,correct answer,0.835963030811,True,False,stimulusJOSU26_2IFC_2019_Jun_12_0915_903,stimulusJOSU26_2IFC_2019_Jun_12_0915_904,True,2019_Jun_12_0915,2IFC,2,JOSU26,
2IFC,2,0,2,0,5,-1,correct answer,0.507297082338,False,True,stimulusJOSU26_2IFC_2019_Jun_12_0915_905,stimulusJOSU26_2IFC_2019_Jun_12_0915_906,True,2019_Jun_12_0915,2IFC,2,JOSU26,
2IFC,3,0,3,0,6.7,-1,correct answer,0.575067904778,False,True,stimulusJOSU26_2IFC_2019_Jun_12_0915_907,stimulusJOSU26_2IFC_2019_Jun_12_0915_908,True,2019_Jun_12_0915,2IFC,2,JOSU26,
2IFC,4,0,4,0,5.8,-1,correct answer,0.50024591852,True,False,stimulusJOSU26_2IFC_2019_Jun_12_0915_909,stimulusJOSU26_2IFC_2019_Jun_12_0915_910,True,2019_Jun_12_0915,2IFC,2,JOSU26,
2IFC,5,0,5,0,5.8,-1,correct answer,0.503217055462,False,True,stimulusJOSU26_2IFC_2019_Jun_12_0915_911,stimulusJOSU26_2IFC_2019_Jun_12_0915_912,True,2019_Jun_12_0915,2IFC,2,JOSU26,
2IFC,6,0,6,0,5,-1,correct answer,0.501158156432,True,False,stimulusJOSU26_2IFC_2019_Jun_12_0915_913,stimulusJOSU26_2IFC_2019_Jun_12_0915_914,True,2019_Jun_12_0915,2IFC,2,JOSU26,
2IFC,7,0,7,0,7.6,-1,correct answer,0.432827346493,True,False,stimulusJOSU26_2IFC_2019_Jun_12_0915_915,stimulusJOSU26_2IFC_2019_Jun_12_0915_916,True,2019_Jun_12_0915,2IFC,2,JOSU26,
2IFC,8,0,8,0,6.7,-1,correct answer,0.645212105941,False,True,stimulusJOSU26_2IFC_2019_Jun_12_0915_917,stimulusJOSU26_2IFC_2019_Jun_12_0915_918,True,2019_Jun_12_0915,2IFC,2,JOSU26,
2IFC,9,0,9,0,1.5,-1,correct answer,0.602635801304,True,False,stimulusJOSU26_2IFC_2019_Jun_12_0915_919,stimulusJOSU26_2IFC_2019_Jun_12_0915_920,True,2019_Jun_12_0915,2IFC,2,JOSU26,
2IFC,10,0,10,0,7.6,-1,correct answer,0.562991220504,False,True,stimulusJOSU26_2IFC_2019_Jun_12_0915_921,stimulusJOSU26_2IFC_2019_Jun_12_0915_922,True,2019_Jun_12_0915,2IFC,2,JOSU26,
2IFC,11,0,11,0,5.8,-1,correct answer,0.401480354369,True,False,stimulusJOSU26_2IFC_2019_Jun_12_0915_923,stimulusJOSU26_2IFC_2019_Jun_12_0915_924,True,2019_Jun_12_0915,2IFC,2,JOSU26,
2IFC,12,0,12,0,4,-1,correct answer,0.471018586308,True,False,stimulusJOSU26_2IFC_2019_Jun_12_0915_925,stimulusJOSU26_2IFC_2019_Jun_12_0915_926,True,2019_Jun_12_0915,2IFC,2,JOSU26,
2IFC,13,0,13,0,7.6,-1,correct answer,0.366511917207,True,False,stimulusJOSU26_2IFC_2019_Jun_12_0915_927,stimulusJOSU26_2IFC_2019_Jun_12_0915_928,True,2019_Jun_12_0915,2IFC,2,JOSU26,
2IFC,14,0,14,0,4,-1,correct answer,0.267556269653,True,False,stimulusJOSU26_2IFC_2019_Jun_12_0915_929,stimulusJOSU26_2IFC_2019_Jun_12_0915_930,True,2019_Jun_12_0915,2IFC,2,JOSU26,
2IFC,15,0,15,0,6.7,-1,correct answer,0.508534064051,False,True,stimulusJOSU26_2IFC_2019_Jun_12_0915_931,stimulusJOSU26_2IFC_2019_Jun_12_0915_932,True,2019_Jun_12_0915,2IFC,2,JOSU26,
2IFC,16,0,16,0,4,-1,wrong answer,0.401379770134,False,True,stimulusJOSU26_2IFC_2019_Jun_12_0915_933,stimulusJOSU26_2IFC_2019_Jun_12_0915_934,True,2019_Jun_12_0915,2IFC,2,JOSU26,
2IFC,17,0,17,0,7.6,-1,correct answer,0.337178663816,True,False,stimulusJOSU26_2IFC_2019_Jun_12_0915_935,stimulusJOSU26_2IFC_2019_Jun_12_0915_936,True,2019_Jun_12_0915,2IFC,2,JOSU26,
2IFC,18,0,18,0,3,-1,wrong answer,0.7330033076,True,False,stimulusJOSU26_2IFC_2019_Jun_12_0915_937,stimulusJOSU26_2IFC_2019_Jun_12_0915_938,True,2019_Jun_12_0915,2IFC,2,JOSU26,
2IFC,19,0,19,0,5,-1,correct answer,0.702345625497,False,True,stimulusJOSU26_2IFC_2019_Jun_12_0915_939,stimulusJOSU26_2IFC_2019_Jun_12_0915_940,True,2019_Jun_12_0915,2IFC,2,JOSU26,
2IFC,20,0,20,0,7.6,-1,correct answer,0.23273768276,True,False,stimulusJOSU26_2IFC_2019_Jun_12_0915_941,stimulusJOSU26_2IFC_2019_Jun_12_0915_942,True,2019_Jun_12_0915,2IFC,2,JOSU26,
2IFC,21,0,21,0,1.5,-1,wrong answer,0.670955525711,False,True,stimulusJOSU26_2IFC_2019_Jun_12_0915_943,stimulusJOSU26_2IFC_2019_Jun_12_0915_944,True,2019_Jun_12_0915,2IFC,2,JOSU26,
2IFC,22,0,22,0,7.6,-1,correct answer,0.134053407237,True,False,stimulusJOSU26_2IFC_2019_Jun_12_0915_945,stimulusJOSU26_2IFC_2019_Jun_12_0915_946,True,2019_Jun_12_0915,2IFC,2,JOSU26,
2IFC,23,0,23,0,7.6,-1,correct answer,0.769219399896,True,False,stimulusJOSU26_2IFC_2019_Jun_12_0915_947,stimulusJOSU26_2IFC_2019_Jun_12_0915_948,True,2019_Jun_12_0915,2IFC,2,JOSU26,
2IFC,24,0,24,0,5,-1,correct answer,0.535121161025,True,False,stimulusJOSU26_2IFC_2019_Jun_12_0915_949,stimulusJOSU26_2IFC_2019_Jun_12_0915_950,True,2019_Jun_12_0915,2IFC,2,JOSU26,
2IFC,25,0,25,0,1.5,-1,correct answer,0.567585254088,True,False,stimulusJOSU26_2IFC_2019_Jun_12_0915_951,stimulusJOSU26_2IFC_2019_Jun_12_0915_952,True,2019_Jun_12_0915,2IFC,2,JOSU26,
2IFC,26,0,26,0,8.7,-1,correct answer,0.0319903208874,True,False,stimulusJOSU26_2IFC_2019_Jun_12_0915_953,stimulusJOSU26_2IFC_2019_Jun_12_0915_954,True,2019_Jun_12_0915,2IFC,2,JOSU26,
2IFC,27,0,27,0,6.7,-1,correct answer,0.497150796,False,True,stimulusJOSU26_2IFC_2019_Jun_12_0915_955,stimulusJOSU26_2IFC_2019_Jun_12_0915_956,True,2019_Jun_12_0915,2IFC,2,JOSU26,
2IFC,28,0,28,0,5.8,-1,correct answer,0.342059259769,True,False,stimulusJOSU26_2IFC_2019_Jun_12_0915_957,stimulusJOSU26_2IFC_2019_Jun_12_0915_958,True,2019_Jun_12_0915,2IFC,2,JOSU26,
2IFC,29,0,29,0,4,-1,wrong answer,0.70056630997,False,True,stimulusJOSU26_2IFC_2019_Jun_12_0915_959,stimulusJOSU26_2IFC_2019_Jun_12_0915_960,True,2019_Jun_12_0915,2IFC,2,JOSU26,
2IFC,30,0,30,0,3,-1,correct answer,0.572137001436,False,True,stimulusJOSU26_2IFC_2019_Jun_12_0915_961,stimulusJOSU26_2IFC_2019_Jun_12_0915_962,True,2019_Jun_12_0915,2IFC,2,JOSU26,
2IFC,31,0,31,0,1.5,-1,wrong answer,0.500144512858,False,True,stimulusJOSU26_2IFC_2019_Jun_12_0915_963,stimulusJOSU26_2IFC_2019_Jun_12_0915_964,True,2019_Jun_12_0915,2IFC,2,JOSU26,
2IFC,32,0,32,0,8.7,-1,correct answer,0.570955033414,False,True,stimulusJOSU26_2IFC_2019_Jun_12_0915_965,stimulusJOSU26_2IFC_2019_Jun_12_0915_966,True,2019_Jun_12_0915,2IFC,2,JOSU26,
2IFC,33,0,33,0,1.5,-1,correct answer,0.868051473051,False,True,stimulusJOSU26_2IFC_2019_Jun_12_0915_967,stimulusJOSU26_2IFC_2019_Jun_12_0915_968,True,2019_Jun_12_0915,2IFC,2,JOSU26,
2IFC,34,0,34,0,5,-1,correct answer,0.240916622337,True,False,stimulusJOSU26_2IFC_2019_Jun_12_0915_969,stimulusJOSU26_2IFC_2019_Jun_12_0915_970,True,2019_Jun_12_0915,2IFC,2,JOSU26,
2IFC,35,0,35,0,8.7,-1,correct answer,0.702821861487,False,True,stimulusJOSU26_2IFC_2019_Jun_12_0915_971,stimulusJOSU26_2IFC_2019_Jun_12_0915_972,True,2019_Jun_12_0915,2IFC,2,JOSU26,
2IFC,36,0,36,0,6.7,-1,correct answer,0.531292799395,False,True,stimulusJOSU26_2IFC_2019_Jun_12_0915_973,stimulusJOSU26_2IFC_2019_Jun_12_0915_974,True,2019_Jun_12_0915,2IFC,2,JOSU26,
2IFC,37,0,37,0,6.7,-1,correct answer,0.734375769738,True,False,stimulusJOSU26_2IFC_2019_Jun_12_0915_975,stimulusJOSU26_2IFC_2019_Jun_12_0915_976,True,2019_Jun_12_0915,2IFC,2,JOSU26,
2IFC,38,0,38,0,5.8,-1,correct answer,0.300680934917,True,False,stimulusJOSU26_2IFC_2019_Jun_12_0915_977,stimulusJOSU26_2IFC_2019_Jun_12_0915_978,True,2019_Jun_12_0915,2IFC,2,JOSU26,
2IFC,39,0,39,0,5.8,-1,correct answer,0.634692630731,True,False,stimulusJOSU26_2IFC_2019_Jun_12_0915_979,stimulusJOSU26_2IFC_2019_Jun_12_0915_980,True,2019_Jun_12_0915,2IFC,2,JOSU26,
2IFC,40,0,40,0,5.8,-1,correct answer,0.234252605587,True,False,stimulusJOSU26_2IFC_2019_Jun_12_0915_981,stimulusJOSU26_2IFC_2019_Jun_12_0915_982,True,2019_Jun_12_0915,2IFC,2,JOSU26,
2IFC,41,0,41,0,3,-1,correct answer,0.468425975181,True,False,stimulusJOSU26_2IFC_2019_Jun_12_0915_983,stimulusJOSU26_2IFC_2019_Jun_12_0915_984,True,2019_Jun_12_0915,2IFC,2,JOSU26,
2IFC,42,0,42,0,8.7,-1,correct answer,0.467543296516,True,False,stimulusJOSU26_2IFC_2019_Jun_12_0915_985,stimulusJOSU26_2IFC_2019_Jun_12_0915_986,True,2019_Jun_12_0915,2IFC,2,JOSU26,
2IFC,43,0,43,0,6.7,-1,correct answer,0.468872650992,True,False,stimulusJOSU26_2IFC_2019_Jun_12_0915_987,stimulusJOSU26_2IFC_2019_Jun_12_0915_988,True,2019_Jun_12_0915,2IFC,2,JOSU26,
2IFC,44,0,44,0,1.5,-1,correct answer,0.634353928734,True,False,stimulusJOSU26_2IFC_2019_Jun_12_0915_989,stimulusJOSU26_2IFC_2019_Jun_12_0915_990,True,2019_Jun_12_0915,2IFC,2,JOSU26,
2IFC,45,0,45,0,8.7,-1,correct answer,0.300959697459,True,False,stimulusJOSU26_2IFC_2019_Jun_12_0915_991,stimulusJOSU26_2IFC_2019_Jun_12_0915_992,True,2019_Jun_12_0915,2IFC,2,JOSU26,
2IFC,46,0,46,0,1.5,-1,wrong answer,0.734489080962,False,True,stimulusJOSU26_2IFC_2019_Jun_12_0915_993,stimulusJOSU26_2IFC_2019_Jun_12_0915_994,True,2019_Jun_12_0915,2IFC,2,JOSU26,
2IFC,47,0,47,0,1.5,-1,correct answer,0.569689313415,True,False,stimulusJOSU26_2IFC_2019_Jun_12_0915_995,stimulusJOSU26_2IFC_2019_Jun_12_0915_996,True,2019_Jun_12_0915,2IFC,2,JOSU26,
2IFC,48,0,48,0,4,-1,correct answer,0.500738986768,True,False,stimulusJOSU26_2IFC_2019_Jun_12_0915_997,stimulusJOSU26_2IFC_2019_Jun_12_0915_998,True,2019_Jun_12_0915,2IFC,2,JOSU26,
2IFC,49,0,49,0,6.7,-1,wrong answer,0.736249921843,False,True,stimulusJOSU26_2IFC_2019_Jun_12_0915_999,stimulusJOSU26_2IFC_2019_Jun_12_0915_1000,True,2019_Jun_12_0915,2IFC,2,JOSU26,
2IFC,50,0,50,0,3,-1,correct answer,0.667671141215,False,True,stimulusJOSU26_2IFC_2019_Jun_12_0915_1001,stimulusJOSU26_2IFC_2019_Jun_12_0915_1002,True,2019_Jun_12_0915,2IFC,2,JOSU26,
2IFC,51,0,51,0,6.7,-1,correct answer,0.401643342339,True,False,stimulusJOSU26_2IFC_2019_Jun_12_0915_1003,stimulusJOSU26_2IFC_2019_Jun_12_0915_1004,True,2019_Jun_12_0915,2IFC,2,JOSU26,
2IFC,52,0,52,0,5,-1,correct answer,0.567057289649,True,False,stimulusJOSU26_2IFC_2019_Jun_12_0915_1005,stimulusJOSU26_2IFC_2019_Jun_12_0915_1006,True,2019_Jun_12_0915,2IFC,2,JOSU26,
2IFC,53,0,53,0,4,-1,correct answer,0.770224421751,False,True,stimulusJOSU26_2IFC_2019_Jun_12_0915_1007,stimulusJOSU26_2IFC_2019_Jun_12_0915_1008,True,2019_Jun_12_0915,2IFC,2,JOSU26,
2IFC,54,0,54,0,5,-1,correct answer,0.500303805806,True,False,stimulusJOSU26_2IFC_2019_Jun_12_0915_1009,stimulusJOSU26_2IFC_2019_Jun_12_0915_1010,True,2019_Jun_12_0915,2IFC,2,JOSU26,
2IFC,55,0,55,0,5.8,-1,correct answer,0.501218506601,True,False,stimulusJOSU26_2IFC_2019_Jun_12_0915_1011,stimulusJOSU26_2IFC_2019_Jun_12_0915_1012,True,2019_Jun_12_0915,2IFC,2,JOSU26,
2IFC,56,0,56,0,5,-1,correct answer,0.533474862576,False,True,stimulusJOSU26_2IFC_2019_Jun_12_0915_1013,stimulusJOSU26_2IFC_2019_Jun_12_0915_1014,True,2019_Jun_12_0915,2IFC,2,JOSU26,
2IFC,57,0,57,0,5,-1,correct answer,0.667622696143,False,True,stimulusJOSU26_2IFC_2019_Jun_12_0915_1015,stimulusJOSU26_2IFC_2019_Jun_12_0915_1016,True,2019_Jun_12_0915,2IFC,2,JOSU26,
2IFC,58,0,58,0,3,-1,wrong answer,0.834559777752,False,True,stimulusJOSU26_2IFC_2019_Jun_12_0915_1017,stimulusJOSU26_2IFC_2019_Jun_12_0915_1018,True,2019_Jun_12_0915,2IFC,2,JOSU26,
2IFC,59,0,59,0,5.8,-1,correct answer,0.565868342295,False,True,stimulusJOSU26_2IFC_2019_Jun_12_0915_1019,stimulusJOSU26_2IFC_2019_Jun_12_0915_1020,True,2019_Jun_12_0915,2IFC,2,JOSU26,
2IFC,60,0,60,0,5.8,-1,correct answer,0.773138492368,False,True,stimulusJOSU26_2IFC_2019_Jun_12_0915_1021,stimulusJOSU26_2IFC_2019_Jun_12_0915_1022,True,2019_Jun_12_0915,2IFC,2,JOSU26,
2IFC,61,0,61,0,8.7,-1,correct answer,0.303379057441,True,False,stimulusJOSU26_2IFC_2019_Jun_12_0915_1023,stimulusJOSU26_2IFC_2019_Jun_12_0915_1024,True,2019_Jun_12_0915,2IFC,2,JOSU26,
2IFC,62,0,62,0,5.8,-1,correct answer,0.637583710719,False,True,stimulusJOSU26_2IFC_2019_Jun_12_0915_1025,stimulusJOSU26_2IFC_2019_Jun_12_0915_1026,True,2019_Jun_12_0915,2IFC,2,JOSU26,
2IFC,63,0,63,0,5,-1,wrong answer,0.867795290891,True,False,stimulusJOSU26_2IFC_2019_Jun_12_0915_1027,stimulusJOSU26_2IFC_2019_Jun_12_0915_1028,True,2019_Jun_12_0915,2IFC,2,JOSU26,
2IFC,64,0,64,0,6.7,-1,correct answer,0.703468885273,False,True,stimulusJOSU26_2IFC_2019_Jun_12_0915_1029,stimulusJOSU26_2IFC_2019_Jun_12_0915_1030,True,2019_Jun_12_0915,2IFC,2,JOSU26,
2IFC,65,0,65,0,5.8,-1,correct answer,0.736100482754,True,False,stimulusJOSU26_2IFC_2019_Jun_12_0915_1031,stimulusJOSU26_2IFC_2019_Jun_12_0915_1032,True,2019_Jun_12_0915,2IFC,2,JOSU26,
2IFC,66,0,66,0,5.8,-1,correct answer,0.601237063296,False,True,stimulusJOSU26_2IFC_2019_Jun_12_0915_1033,stimulusJOSU26_2IFC_2019_Jun_12_0915_1034,True,2019_Jun_12_0915,2IFC,2,JOSU26,
2IFC,67,0,67,0,8.7,-1,correct answer,0.668712701648,False,True,stimulusJOSU26_2IFC_2019_Jun_12_0915_1035,stimulusJOSU26_2IFC_2019_Jun_12_0915_1036,True,2019_Jun_12_0915,2IFC,2,JOSU26,
2IFC,68,0,68,0,5,-1,correct answer,0.502251035534,True,False,stimulusJOSU26_2IFC_2019_Jun_12_0915_1037,stimulusJOSU26_2IFC_2019_Jun_12_0915_1038,True,2019_Jun_12_0915,2IFC,2,JOSU26,
2IFC,69,0,69,0,5.8,-1,correct answer,0.465270912275,True,False,stimulusJOSU26_2IFC_2019_Jun_12_0915_1039,stimulusJOSU26_2IFC_2019_Jun_12_0915_1040,True,2019_Jun_12_0915,2IFC,2,JOSU26,
2IFC,70,0,70,0,5.8,-1,correct answer,0.770302015822,False,True,stimulusJOSU26_2IFC_2019_Jun_12_0915_1041,stimulusJOSU26_2IFC_2019_Jun_12_0915_1042,True,2019_Jun_12_0915,2IFC,2,JOSU26,
2IFC,71,0,71,0,5.8,-1,wrong answer,0.668788652867,False,True,stimulusJOSU26_2IFC_2019_Jun_12_0915_1043,stimulusJOSU26_2IFC_2019_Jun_12_0915_1044,True,2019_Jun_12_0915,2IFC,2,JOSU26,
2IFC,72,0,72,0,8.7,-1,correct answer,0.603015558328,False,True,stimulusJOSU26_2IFC_2019_Jun_12_0915_1045,stimulusJOSU26_2IFC_2019_Jun_12_0915_1046,True,2019_Jun_12_0915,2IFC,2,JOSU26,
2IFC,73,0,73,0,7.6,-1,correct answer,0.570601551328,False,True,stimulusJOSU26_2IFC_2019_Jun_12_0915_1047,stimulusJOSU26_2IFC_2019_Jun_12_0915_1048,True,2019_Jun_12_0915,2IFC,2,JOSU26,
2IFC,74,0,74,0,4,-1,correct answer,0.566736240871,False,True,stimulusJOSU26_2IFC_2019_Jun_12_0915_1049,stimulusJOSU26_2IFC_2019_Jun_12_0915_1050,True,2019_Jun_12_0915,2IFC,2,JOSU26,
2IFC,0,0,0,0,4,-1,wrong answer,0.733033688273,False,True,stimulusJOSU26_2IFC_2019_Jun_12_0915_1051,stimulusJOSU26_2IFC_2019_Jun_12_0915_1052,True,2019_Jun_12_0915,2IFC,2,JOSU26,
2IFC,1,0,1,0,3,-1,correct answer,0.637285241857,True,False,stimulusJOSU26_2IFC_2019_Jun_12_0915_1053,stimulusJOSU26_2IFC_2019_Jun_12_0915_1054,True,2019_Jun_12_0915,2IFC,2,JOSU26,
2IFC,2,0,2,0,7.6,-1,correct answer,0.532832355238,False,True,stimulusJOSU26_2IFC_2019_Jun_12_0915_1055,stimulusJOSU26_2IFC_2019_Jun_12_0915_1056,True,2019_Jun_12_0915,2IFC,2,JOSU26,
2IFC,3,0,3,0,4,-1,correct answer,0.468231374864,False,True,stimulusJOSU26_2IFC_2019_Jun_12_0915_1057,stimulusJOSU26_2IFC_2019_Jun_12_0915_1058,True,2019_Jun_12_0915,2IFC,2,JOSU26,
2IFC,4,0,4,0,5,-1,correct answer,0.465746738017,False,True,stimulusJOSU26_2IFC_2019_Jun_12_0915_1059,stimulusJOSU26_2IFC_2019_Jun_12_0915_1060,True,2019_Jun_12_0915,2IFC,2,JOSU26,
2IFC,5,0,5,0,4,-1,correct answer,0.568371864501,False,True,stimulusJOSU26_2IFC_2019_Jun_12_0915_1061,stimulusJOSU26_2IFC_2019_Jun_12_0915_1062,True,2019_Jun_12_0915,2IFC,2,JOSU26,
2IFC,6,0,6,0,6.7,-1,correct answer,0.500405621715,False,True,stimulusJOSU26_2IFC_2019_Jun_12_0915_1063,stimulusJOSU26_2IFC_2019_Jun_12_0915_1064,True,2019_Jun_12_0915,2IFC,2,JOSU26,
2IFC,7,0,7,0,5,-1,correct answer,0.500046802685,False,True,stimulusJOSU26_2IFC_2019_Jun_12_0915_1065,stimulusJOSU26_2IFC_2019_Jun_12_0915_1066,True,2019_Jun_12_0915,2IFC,2,JOSU26,
2IFC,8,0,8,0,8.7,-1,correct answer,0.501615096349,False,True,stimulusJOSU26_2IFC_2019_Jun_12_0915_1067,stimulusJOSU26_2IFC_2019_Jun_12_0915_1068,True,2019_Jun_12_0915,2IFC,2,JOSU26,
2IFC,9,0,9,0,3,-1,correct answer,0.803613069467,False,True,stimulusJOSU26_2IFC_2019_Jun_12_0915_1069,stimulusJOSU26_2IFC_2019_Jun_12_0915_1070,True,2019_Jun_12_0915,2IFC,2,JOSU26,
2IFC,10,0,10,0,6.7,-1,correct answer,0.599062800407,False,True,stimulusJOSU26_2IFC_2019_Jun_12_0915_1071,stimulusJOSU26_2IFC_2019_Jun_12_0915_1072,True,2019_Jun_12_0915,2IFC,2,JOSU26,
2IFC,11,0,11,0,5.8,-1,correct answer,0.543765662704,True,False,stimulusJOSU26_2IFC_2019_Jun_12_0915_1073,stimulusJOSU26_2IFC_2019_Jun_12_0915_1074,True,2019_Jun_12_0915,2IFC,2,JOSU26,
2IFC,12,0,12,0,4,-1,correct answer,0.633156769909,False,True,stimulusJOSU26_2IFC_2019_Jun_12_0915_1075,stimulusJOSU26_2IFC_2019_Jun_12_0915_1076,True,2019_Jun_12_0915,2IFC,2,JOSU26,
2IFC,13,0,13,0,4,-1,correct answer,0.835560693406,False,True,stimulusJOSU26_2IFC_2019_Jun_12_0915_1077,stimulusJOSU26_2IFC_2019_Jun_12_0915_1078,True,2019_Jun_12_0915,2IFC,2,JOSU26,
2IFC,14,0,14,0,5.8,-1,correct answer,0.799484597519,False,True,stimulusJOSU26_2IFC_2019_Jun_12_0915_1079,stimulusJOSU26_2IFC_2019_Jun_12_0915_1080,True,2019_Jun_12_0915,2IFC,2,JOSU26,
2IFC,15,0,15,0,3,-1,correct answer,0.569142052904,True,False,stimulusJOSU26_2IFC_2019_Jun_12_0915_1081,stimulusJOSU26_2IFC_2019_Jun_12_0915_1082,True,2019_Jun_12_0915,2IFC,2,JOSU26,
2IFC,16,0,16,0,8.7,-1,correct answer,0.50122302305,False,True,stimulusJOSU26_2IFC_2019_Jun_12_0915_1083,stimulusJOSU26_2IFC_2019_Jun_12_0915_1084,True,2019_Jun_12_0915,2IFC,2,JOSU26,
2IFC,17,0,17,0,1.5,-1,correct answer,0.569561222568,True,False,stimulusJOSU26_2IFC_2019_Jun_12_0915_1085,stimulusJOSU26_2IFC_2019_Jun_12_0915_1086,True,2019_Jun_12_0915,2IFC,2,JOSU26,
2IFC,18,0,18,0,3,-1,correct answer,0.767647821922,False,True,stimulusJOSU26_2IFC_2019_Jun_12_0915_1087,stimulusJOSU26_2IFC_2019_Jun_12_0915_1088,True,2019_Jun_12_0915,2IFC,2,JOSU26,
2IFC,19,0,19,0,5.8,-1,correct answer,0.635422585066,False,True,stimulusJOSU26_2IFC_2019_Jun_12_0915_1089,stimulusJOSU26_2IFC_2019_Jun_12_0915_1090,True,2019_Jun_12_0915,2IFC,2,JOSU26,
2IFC,20,0,20,0,8.7,-1,correct answer,0.567729767412,False,True,stimulusJOSU26_2IFC_2019_Jun_12_0915_1091,stimulusJOSU26_2IFC_2019_Jun_12_0915_1092,True,2019_Jun_12_0915,2IFC,2,JOSU26,
2IFC,21,0,21,0,7.6,-1,correct answer,0.535549362656,True,False,stimulusJOSU26_2IFC_2019_Jun_12_0915_1093,stimulusJOSU26_2IFC_2019_Jun_12_0915_1094,True,2019_Jun_12_0915,2IFC,2,JOSU26,
2IFC,22,0,22,0,3,-1,correct answer,0.666942418087,True,False,stimulusJOSU26_2IFC_2019_Jun_12_0915_1095,stimulusJOSU26_2IFC_2019_Jun_12_0915_1096,True,2019_Jun_12_0915,2IFC,2,JOSU26,
2IFC,23,0,23,0,8.7,-1,correct answer,0.534517655149,False,True,stimulusJOSU26_2IFC_2019_Jun_12_0915_1097,stimulusJOSU26_2IFC_2019_Jun_12_0915_1098,True,2019_Jun_12_0915,2IFC,2,JOSU26,
2IFC,24,0,24,0,1.5,-1,wrong answer,0.667993831914,True,False,stimulusJOSU26_2IFC_2019_Jun_12_0915_1099,stimulusJOSU26_2IFC_2019_Jun_12_0915_1100,True,2019_Jun_12_0915,2IFC,2,JOSU26,
2IFC,25,0,25,0,7.6,-1,correct answer,0.866442535073,True,False,stimulusJOSU26_2IFC_2019_Jun_12_0915_1101,stimulusJOSU26_2IFC_2019_Jun_12_0915_1102,True,2019_Jun_12_0915,2IFC,2,JOSU26,
2IFC,26,0,26,0,1.5,-1,correct answer,0.670488732867,True,False,stimulusJOSU26_2IFC_2019_Jun_12_0915_1103,stimulusJOSU26_2IFC_2019_Jun_12_0915_1104,True,2019_Jun_12_0915,2IFC,2,JOSU26,
2IFC,27,0,27,0,1.5,-1,wrong answer,0.767935205717,False,True,stimulusJOSU26_2IFC_2019_Jun_12_0915_1105,stimulusJOSU26_2IFC_2019_Jun_12_0915_1106,True,2019_Jun_12_0915,2IFC,2,JOSU26,
2IFC,28,0,28,0,8.7,-1,correct answer,0.533445303328,False,True,stimulusJOSU26_2IFC_2019_Jun_12_0915_1107,stimulusJOSU26_2IFC_2019_Jun_12_0915_1108,True,2019_Jun_12_0915,2IFC,2,JOSU26,
