Task,trials.thisRepN,trials.thisTrialN,trials.thisN,trials.thisIndex,time_response_second,response_2IFCnew,response_key2Interval_2IFCnew,signal_intensity,constant Value,response,time_response,signal_on_stimuluspos1,signal_on_stimuluspos2,stimulus_name_pos1,stimulus_name_pos2,random_intensity,date,expName,session,participant,
2IFCnew,0,0,0,0,0.565301374998,8,No,3,-1,Correct Rejection,0.400664594956,False,True,stimulusJOSU26_2IFCnew_2019_Jun_12_0837_1,stimulusJOSU26_2IFCnew_2019_Jun_12_0837_2,True,2019_Jun_12_0837,2IFCnew,2,JOSU26,
2IFCnew,1,0,1,0,0.466553464532,6,No,1.5,-1,Miss,0.832973419689,True,False,stimulusJOSU26_2IFCnew_2019_Jun_12_0837_3,stimulusJOSU26_2IFCnew_2019_Jun_12_0837_4,True,2019_Jun_12_0837,2IFCnew,2,JOSU26,
2IFCnew,2,0,2,0,0.496900361497,1,No,8.7,-1,Hit,0.640629567206,True,False,stimulusJOSU26_2IFCnew_2019_Jun_12_0837_5,stimulusJOSU26_2IFCnew_2019_Jun_12_0837_6,True,2019_Jun_12_0837,2IFCnew,2,JOSU26,
2IFCnew,3,0,3,0,0.600670917891,5,Yes,7.6,-1,False Alarm,0.801075882278,False,True,stimulusJOSU26_2IFCnew_2019_Jun_12_0837_7,stimulusJOSU26_2IFCnew_2019_Jun_12_0837_8,True,2019_Jun_12_0837,2IFCnew,2,JOSU26,
2IFCnew,4,0,4,0,0.700014123227,2,Yes,1.5,-1,Correct Rejection,0.533826292027,False,True,stimulusJOSU26_2IFCnew_2019_Jun_12_0837_9,stimulusJOSU26_2IFCnew_2019_Jun_12_0837_10,True,2019_Jun_12_0837,2IFCnew,2,JOSU26,
2IFCnew,5,0,5,0,-1,3,Yes,5.8,-1,Correct Rejection,0.701821766328,False,True,stimulusJOSU26_2IFCnew_2019_Jun_12_0837_11,stimulusJOSU26_2IFCnew_2019_Jun_12_0837_12,True,2019_Jun_12_0837,2IFCnew,2,JOSU26,
2IFCnew,6,0,6,0,-1,2,Yes,5,-1,False Alarm,0.634041912388,False,True,stimulusJOSU26_2IFCnew_2019_Jun_12_0837_13,stimulusJOSU26_2IFCnew_2019_Jun_12_0837_14,True,2019_Jun_12_0837,2IFCnew,2,JOSU26,
2IFCnew,7,0,7,0,0.468321695458,8,No,6.7,-1,Correct Rejection,0.809281097259,False,True,stimulusJOSU26_2IFCnew_2019_Jun_12_0837_15,stimulusJOSU26_2IFCnew_2019_Jun_12_0837_16,True,2019_Jun_12_0837,2IFCnew,2,JOSU26,
2IFCnew,8,0,8,0,0.4340963508,2,Yes,6.7,-1,Correct Rejection,0.601517057046,False,True,stimulusJOSU26_2IFCnew_2019_Jun_12_0837_17,stimulusJOSU26_2IFCnew_2019_Jun_12_0837_18,True,2019_Jun_12_0837,2IFCnew,2,JOSU26,
2IFCnew,9,0,9,0,-1,0,Yes,7.6,-1,No Answer,-1,False,True,stimulusJOSU26_2IFCnew_2019_Jun_12_0837_19,stimulusJOSU26_2IFCnew_2019_Jun_12_0837_20,True,2019_Jun_12_0837,2IFCnew,2,JOSU26,
2IFCnew,10,0,10,0,0.434767186642,6,No,6.7,-1,Miss,0.634743128438,True,False,stimulusJOSU26_2IFCnew_2019_Jun_12_0837_21,stimulusJOSU26_2IFCnew_2019_Jun_12_0837_22,True,2019_Jun_12_0837,2IFCnew,2,JOSU26,
2IFCnew,11,0,11,0,-1,2,No,1.5,-1,False Alarm,0.76718349196,False,True,stimulusJOSU26_2IFCnew_2019_Jun_12_0837_23,stimulusJOSU26_2IFCnew_2019_Jun_12_0837_24,True,2019_Jun_12_0837,2IFCnew,2,JOSU26,
2IFCnew,12,0,12,0,-1,2,No,5.8,-1,False Alarm,0.801610005554,False,True,stimulusJOSU26_2IFCnew_2019_Jun_12_0837_25,stimulusJOSU26_2IFCnew_2019_Jun_12_0837_26,True,2019_Jun_12_0837,2IFCnew,2,JOSU26,
2IFCnew,13,0,13,0,0.600657780189,1,No,5,-1,Hit,0.801250365097,True,False,stimulusJOSU26_2IFCnew_2019_Jun_12_0837_27,stimulusJOSU26_2IFCnew_2019_Jun_12_0837_28,True,2019_Jun_12_0837,2IFCnew,2,JOSU26,
2IFCnew,14,0,14,0,-1,3,No,5.8,-1,Correct Rejection,0.566468153149,False,True,stimulusJOSU26_2IFCnew_2019_Jun_12_0837_29,stimulusJOSU26_2IFCnew_2019_Jun_12_0837_30,True,2019_Jun_12_0837,2IFCnew,2,JOSU26,
2IFCnew,15,0,15,0,-1,3,No,7.6,-1,Correct Rejection,0.569686850067,False,True,stimulusJOSU26_2IFCnew_2019_Jun_12_0837_31,stimulusJOSU26_2IFCnew_2019_Jun_12_0837_32,True,2019_Jun_12_0837,2IFCnew,2,JOSU26,
2IFCnew,16,0,16,0,-1,2,No,3,-1,False Alarm,0.735049479641,False,True,stimulusJOSU26_2IFCnew_2019_Jun_12_0837_33,stimulusJOSU26_2IFCnew_2019_Jun_12_0837_34,True,2019_Jun_12_0837,2IFCnew,2,JOSU26,
2IFCnew,17,0,17,0,-1,1,No,7.6,-1,Hit,0.632761002053,True,False,stimulusJOSU26_2IFCnew_2019_Jun_12_0837_35,stimulusJOSU26_2IFCnew_2019_Jun_12_0837_36,True,2019_Jun_12_0837,2IFCnew,2,JOSU26,
2IFCnew,18,0,18,0,-1,1,No,5,-1,Hit,0.700289600529,True,False,stimulusJOSU26_2IFCnew_2019_Jun_12_0837_37,stimulusJOSU26_2IFCnew_2019_Jun_12_0837_38,True,2019_Jun_12_0837,2IFCnew,2,JOSU26,
2IFCnew,19,0,19,0,-1,3,No,5,-1,Correct Rejection,0.674636911135,False,True,stimulusJOSU26_2IFCnew_2019_Jun_12_0837_39,stimulusJOSU26_2IFCnew_2019_Jun_12_0837_40,True,2019_Jun_12_0837,2IFCnew,2,JOSU26,
2IFCnew,20,0,20,0,-1,2,No,4,-1,False Alarm,0.767229883932,False,True,stimulusJOSU26_2IFCnew_2019_Jun_12_0837_41,stimulusJOSU26_2IFCnew_2019_Jun_12_0837_42,True,2019_Jun_12_0837,2IFCnew,2,JOSU26,
2IFCnew,21,0,21,0,-1,1,No,4,-1,Hit,0.798623267561,True,False,stimulusJOSU26_2IFCnew_2019_Jun_12_0837_43,stimulusJOSU26_2IFCnew_2019_Jun_12_0837_44,True,2019_Jun_12_0837,2IFCnew,2,JOSU26,
2IFCnew,22,0,22,0,-1,3,No,5.8,-1,Correct Rejection,0.770520837512,False,True,stimulusJOSU26_2IFCnew_2019_Jun_12_0837_45,stimulusJOSU26_2IFCnew_2019_Jun_12_0837_46,True,2019_Jun_12_0837,2IFCnew,2,JOSU26,
2IFCnew,23,0,23,0,-1,1,No,3,-1,Hit,0.603290625382,True,False,stimulusJOSU26_2IFCnew_2019_Jun_12_0837_47,stimulusJOSU26_2IFCnew_2019_Jun_12_0837_48,True,2019_Jun_12_0837,2IFCnew,2,JOSU26,
2IFCnew,24,0,24,0,-1,2,No,7.6,-1,False Alarm,0.70970305847,False,True,stimulusJOSU26_2IFCnew_2019_Jun_12_0837_49,stimulusJOSU26_2IFCnew_2019_Jun_12_0837_50,True,2019_Jun_12_0837,2IFCnew,2,JOSU26,
2IFCnew,25,0,25,0,0.633950770367,8,No,5.8,-1,Correct Rejection,0.531710327137,False,True,stimulusJOSU26_2IFCnew_2019_Jun_12_0837_51,stimulusJOSU26_2IFCnew_2019_Jun_12_0837_52,True,2019_Jun_12_0837,2IFCnew,2,JOSU26,
2IFCnew,26,0,26,0,0.565391285345,6,No,7.6,-1,Miss,0.732776273973,True,False,stimulusJOSU26_2IFCnew_2019_Jun_12_0837_53,stimulusJOSU26_2IFCnew_2019_Jun_12_0837_54,True,2019_Jun_12_0837,2IFCnew,2,JOSU26,
2IFCnew,27,0,27,0,-1,0,No,3,-1,No Answer,-1,True,False,stimulusJOSU26_2IFCnew_2019_Jun_12_0837_55,stimulusJOSU26_2IFCnew_2019_Jun_12_0837_56,True,2019_Jun_12_0837,2IFCnew,2,JOSU26,
2IFCnew,28,0,28,0,-1,1,No,5,-1,Hit,0.567540915217,True,False,stimulusJOSU26_2IFCnew_2019_Jun_12_0837_57,stimulusJOSU26_2IFCnew_2019_Jun_12_0837_58,True,2019_Jun_12_0837,2IFCnew,2,JOSU26,
2IFCnew,29,0,29,0,-1,2,No,4,-1,False Alarm,0.672533262521,False,True,stimulusJOSU26_2IFCnew_2019_Jun_12_0837_59,stimulusJOSU26_2IFCnew_2019_Jun_12_0837_60,True,2019_Jun_12_0837,2IFCnew,2,JOSU26,
2IFCnew,30,0,30,0,-1,1,No,3,-1,Hit,0.66684840247,True,False,stimulusJOSU26_2IFCnew_2019_Jun_12_0837_61,stimulusJOSU26_2IFCnew_2019_Jun_12_0837_62,True,2019_Jun_12_0837,2IFCnew,2,JOSU26,
2IFCnew,31,0,31,0,-1,3,No,4,-1,Correct Rejection,0.767197861336,False,True,stimulusJOSU26_2IFCnew_2019_Jun_12_0837_63,stimulusJOSU26_2IFCnew_2019_Jun_12_0837_64,True,2019_Jun_12_0837,2IFCnew,2,JOSU26,
2IFCnew,32,0,32,0,-1,1,No,5,-1,Hit,0.600464822724,True,False,stimulusJOSU26_2IFCnew_2019_Jun_12_0837_65,stimulusJOSU26_2IFCnew_2019_Jun_12_0837_66,True,2019_Jun_12_0837,2IFCnew,2,JOSU26,
2IFCnew,33,0,33,0,0.670953062829,7,Yes,7.6,-1,Hit,0.537179239094,True,False,stimulusJOSU26_2IFCnew_2019_Jun_12_0837_67,stimulusJOSU26_2IFCnew_2019_Jun_12_0837_68,True,2019_Jun_12_0837,2IFCnew,2,JOSU26,
2IFCnew,34,0,34,0,-1,2,Yes,5.8,-1,False Alarm,0.601527321152,False,True,stimulusJOSU26_2IFCnew_2019_Jun_12_0837_69,stimulusJOSU26_2IFCnew_2019_Jun_12_0837_70,True,2019_Jun_12_0837,2IFCnew,2,JOSU26,
2IFCnew,35,0,35,0,-1,2,Yes,5,-1,False Alarm,0.732210949529,False,True,stimulusJOSU26_2IFCnew_2019_Jun_12_0837_71,stimulusJOSU26_2IFCnew_2019_Jun_12_0837_72,True,2019_Jun_12_0837,2IFCnew,2,JOSU26,
2IFCnew,36,0,36,0,-1,4,Yes,4,-1,Miss,0.8026117431,True,False,stimulusJOSU26_2IFCnew_2019_Jun_12_0837_73,stimulusJOSU26_2IFCnew_2019_Jun_12_0837_74,True,2019_Jun_12_0837,2IFCnew,2,JOSU26,
2IFCnew,37,0,37,0,-1,1,Yes,3,-1,Hit,0.699350266717,True,False,stimulusJOSU26_2IFCnew_2019_Jun_12_0837_75,stimulusJOSU26_2IFCnew_2019_Jun_12_0837_76,True,2019_Jun_12_0837,2IFCnew,2,JOSU26,
2IFCnew,38,0,38,0,-1,4,Yes,1.5,-1,Miss,0.569165043999,True,False,stimulusJOSU26_2IFCnew_2019_Jun_12_0837_77,stimulusJOSU26_2IFCnew_2019_Jun_12_0837_78,True,2019_Jun_12_0837,2IFCnew,2,JOSU26,
2IFCnew,39,0,39,0,-1,1,Yes,3,-1,Hit,0.569898692891,True,False,stimulusJOSU26_2IFCnew_2019_Jun_12_0837_79,stimulusJOSU26_2IFCnew_2019_Jun_12_0837_80,True,2019_Jun_12_0837,2IFCnew,2,JOSU26,
2IFCnew,40,0,40,0,-1,1,Yes,4,-1,Hit,0.572827132884,True,False,stimulusJOSU26_2IFCnew_2019_Jun_12_0837_81,stimulusJOSU26_2IFCnew_2019_Jun_12_0837_82,True,2019_Jun_12_0837,2IFCnew,2,JOSU26,
2IFCnew,41,0,41,0,-1,3,Yes,7.6,-1,Correct Rejection,0.671417803504,False,True,stimulusJOSU26_2IFCnew_2019_Jun_12_0837_83,stimulusJOSU26_2IFCnew_2019_Jun_12_0837_84,True,2019_Jun_12_0837,2IFCnew,2,JOSU26,
2IFCnew,42,0,42,0,-1,1,Yes,8.7,-1,Hit,0.563944513444,True,False,stimulusJOSU26_2IFCnew_2019_Jun_12_0837_85,stimulusJOSU26_2IFCnew_2019_Jun_12_0837_86,True,2019_Jun_12_0837,2IFCnew,2,JOSU26,
2IFCnew,43,0,43,0,-1,1,Yes,8.7,-1,Hit,0.530236459337,True,False,stimulusJOSU26_2IFCnew_2019_Jun_12_0837_87,stimulusJOSU26_2IFCnew_2019_Jun_12_0837_88,True,2019_Jun_12_0837,2IFCnew,2,JOSU26,
2IFCnew,44,0,44,0,-1,3,Yes,1.5,-1,Correct Rejection,0.632700241171,False,True,stimulusJOSU26_2IFCnew_2019_Jun_12_0837_89,stimulusJOSU26_2IFCnew_2019_Jun_12_0837_90,True,2019_Jun_12_0837,2IFCnew,2,JOSU26,
2IFCnew,45,0,45,0,-1,1,Yes,4,-1,Hit,0.869167342782,True,False,stimulusJOSU26_2IFCnew_2019_Jun_12_0837_91,stimulusJOSU26_2IFCnew_2019_Jun_12_0837_92,True,2019_Jun_12_0837,2IFCnew,2,JOSU26,
2IFCnew,46,0,46,0,-1,3,Yes,1.5,-1,Correct Rejection,0.603145701811,False,True,stimulusJOSU26_2IFCnew_2019_Jun_12_0837_93,stimulusJOSU26_2IFCnew_2019_Jun_12_0837_94,True,2019_Jun_12_0837,2IFCnew,2,JOSU26,
2IFCnew,47,0,47,0,-1,1,Yes,7.6,-1,Hit,0.702019650489,True,False,stimulusJOSU26_2IFCnew_2019_Jun_12_0837_95,stimulusJOSU26_2IFCnew_2019_Jun_12_0837_96,True,2019_Jun_12_0837,2IFCnew,2,JOSU26,
2IFCnew,48,0,48,0,-1,3,Yes,3,-1,Correct Rejection,0.534569384065,False,True,stimulusJOSU26_2IFCnew_2019_Jun_12_0837_97,stimulusJOSU26_2IFCnew_2019_Jun_12_0837_98,True,2019_Jun_12_0837,2IFCnew,2,JOSU26,
2IFCnew,49,0,49,0,-1,3,Yes,6.7,-1,Correct Rejection,0.500909774564,False,True,stimulusJOSU26_2IFCnew_2019_Jun_12_0837_99,stimulusJOSU26_2IFCnew_2019_Jun_12_0837_100,True,2019_Jun_12_0837,2IFCnew,2,JOSU26,
2IFCnew,50,0,50,0,-1,3,Yes,6.7,-1,Correct Rejection,0.500244686846,False,True,stimulusJOSU26_2IFCnew_2019_Jun_12_0837_101,stimulusJOSU26_2IFCnew_2019_Jun_12_0837_102,True,2019_Jun_12_0837,2IFCnew,2,JOSU26,
2IFCnew,51,0,51,0,-1,3,Yes,5.8,-1,Correct Rejection,0.599530004431,False,True,stimulusJOSU26_2IFCnew_2019_Jun_12_0837_103,stimulusJOSU26_2IFCnew_2019_Jun_12_0837_104,True,2019_Jun_12_0837,2IFCnew,2,JOSU26,
2IFCnew,52,0,52,0,0.467493209522,8,No,5.8,-1,Correct Rejection,0.603534901515,False,True,stimulusJOSU26_2IFCnew_2019_Jun_12_0837_105,stimulusJOSU26_2IFCnew_2019_Jun_12_0837_106,True,2019_Jun_12_0837,2IFCnew,2,JOSU26,
2IFCnew,53,0,53,0,-1,1,No,5,-1,Hit,0.730524417479,True,False,stimulusJOSU26_2IFCnew_2019_Jun_12_0837_107,stimulusJOSU26_2IFCnew_2019_Jun_12_0837_108,True,2019_Jun_12_0837,2IFCnew,2,JOSU26,
2IFCnew,54,0,54,0,-1,3,No,7.6,-1,Correct Rejection,0.505377359688,False,True,stimulusJOSU26_2IFCnew_2019_Jun_12_0837_109,stimulusJOSU26_2IFCnew_2019_Jun_12_0837_110,True,2019_Jun_12_0837,2IFCnew,2,JOSU26,
2IFCnew,55,0,55,0,-1,3,No,8.7,-1,Correct Rejection,0.467069113627,False,True,stimulusJOSU26_2IFCnew_2019_Jun_12_0837_111,stimulusJOSU26_2IFCnew_2019_Jun_12_0837_112,True,2019_Jun_12_0837,2IFCnew,2,JOSU26,
2IFCnew,56,0,56,0,-1,3,No,5,-1,Correct Rejection,0.5321163591,False,True,stimulusJOSU26_2IFCnew_2019_Jun_12_0837_113,stimulusJOSU26_2IFCnew_2019_Jun_12_0837_114,True,2019_Jun_12_0837,2IFCnew,2,JOSU26,
2IFCnew,57,0,57,0,-1,1,No,6.7,-1,Hit,0.770483477972,True,False,stimulusJOSU26_2IFCnew_2019_Jun_12_0837_115,stimulusJOSU26_2IFCnew_2019_Jun_12_0837_116,True,2019_Jun_12_0837,2IFCnew,2,JOSU26,
2IFCnew,58,0,58,0,-1,3,No,6.7,-1,Correct Rejection,0.601400872227,False,True,stimulusJOSU26_2IFCnew_2019_Jun_12_0837_117,stimulusJOSU26_2IFCnew_2019_Jun_12_0837_118,True,2019_Jun_12_0837,2IFCnew,2,JOSU26,
2IFCnew,59,0,59,0,-1,3,No,6.7,-1,Correct Rejection,0.509673745837,False,True,stimulusJOSU26_2IFCnew_2019_Jun_12_0837_119,stimulusJOSU26_2IFCnew_2019_Jun_12_0837_120,True,2019_Jun_12_0837,2IFCnew,2,JOSU26,
2IFCnew,60,0,60,0,-1,1,No,7.6,-1,Hit,0.499900647439,True,False,stimulusJOSU26_2IFCnew_2019_Jun_12_0837_121,stimulusJOSU26_2IFCnew_2019_Jun_12_0837_122,True,2019_Jun_12_0837,2IFCnew,2,JOSU26,
2IFCnew,61,0,61,0,-1,3,No,6.7,-1,Correct Rejection,0.467764992267,False,True,stimulusJOSU26_2IFCnew_2019_Jun_12_0837_123,stimulusJOSU26_2IFCnew_2019_Jun_12_0837_124,True,2019_Jun_12_0837,2IFCnew,2,JOSU26,
2IFCnew,62,0,62,0,-1,1,No,7.6,-1,Hit,0.531688568182,True,False,stimulusJOSU26_2IFCnew_2019_Jun_12_0837_125,stimulusJOSU26_2IFCnew_2019_Jun_12_0837_126,True,2019_Jun_12_0837,2IFCnew,2,JOSU26,
2IFCnew,63,0,63,0,-1,3,No,7.6,-1,Correct Rejection,0.571484640241,False,True,stimulusJOSU26_2IFCnew_2019_Jun_12_0837_127,stimulusJOSU26_2IFCnew_2019_Jun_12_0837_128,True,2019_Jun_12_0837,2IFCnew,2,JOSU26,
2IFCnew,64,0,64,0,-1,1,No,7.6,-1,Hit,0.765033451375,True,False,stimulusJOSU26_2IFCnew_2019_Jun_12_0837_129,stimulusJOSU26_2IFCnew_2019_Jun_12_0837_130,True,2019_Jun_12_0837,2IFCnew,2,JOSU26,
2IFCnew,65,0,65,0,-1,3,No,6.7,-1,Correct Rejection,0.601951417513,False,True,stimulusJOSU26_2IFCnew_2019_Jun_12_0837_131,stimulusJOSU26_2IFCnew_2019_Jun_12_0837_132,True,2019_Jun_12_0837,2IFCnew,2,JOSU26,
2IFCnew,66,0,66,0,-1,1,No,5.8,-1,Hit,0.567594697233,True,False,stimulusJOSU26_2IFCnew_2019_Jun_12_0837_133,stimulusJOSU26_2IFCnew_2019_Jun_12_0837_134,True,2019_Jun_12_0837,2IFCnew,2,JOSU26,
2IFCnew,67,0,67,0,-1,1,No,7.6,-1,Hit,0.708985831123,True,False,stimulusJOSU26_2IFCnew_2019_Jun_12_0837_135,stimulusJOSU26_2IFCnew_2019_Jun_12_0837_136,True,2019_Jun_12_0837,2IFCnew,2,JOSU26,
2IFCnew,68,0,68,0,-1,1,No,6.7,-1,Hit,0.604654055554,True,False,stimulusJOSU26_2IFCnew_2019_Jun_12_0837_137,stimulusJOSU26_2IFCnew_2019_Jun_12_0837_138,True,2019_Jun_12_0837,2IFCnew,2,JOSU26,
2IFCnew,69,0,69,0,-1,1,No,8.7,-1,Hit,0.675549149048,True,False,stimulusJOSU26_2IFCnew_2019_Jun_12_0837_139,stimulusJOSU26_2IFCnew_2019_Jun_12_0837_140,True,2019_Jun_12_0837,2IFCnew,2,JOSU26,
2IFCnew,70,0,70,0,-1,1,No,5,-1,Hit,0.801274998579,True,False,stimulusJOSU26_2IFCnew_2019_Jun_12_0837_141,stimulusJOSU26_2IFCnew_2019_Jun_12_0837_142,True,2019_Jun_12_0837,2IFCnew,2,JOSU26,
2IFCnew,71,0,71,0,0.700633639935,8,No,5.8,-1,Correct Rejection,0.836116165388,False,True,stimulusJOSU26_2IFCnew_2019_Jun_12_0837_143,stimulusJOSU26_2IFCnew_2019_Jun_12_0837_144,True,2019_Jun_12_0837,2IFCnew,2,JOSU26,
2IFCnew,72,0,72,0,-1,3,No,6.7,-1,Correct Rejection,0.471201690845,False,True,stimulusJOSU26_2IFCnew_2019_Jun_12_0837_145,stimulusJOSU26_2IFCnew_2019_Jun_12_0837_146,True,2019_Jun_12_0837,2IFCnew,2,JOSU26,
2IFCnew,73,0,73,0,-1,3,No,1.5,-1,Correct Rejection,0.699714422692,False,True,stimulusJOSU26_2IFCnew_2019_Jun_12_0837_147,stimulusJOSU26_2IFCnew_2019_Jun_12_0837_148,True,2019_Jun_12_0837,2IFCnew,2,JOSU26,
2IFCnew,74,0,74,0,-1,1,No,4,-1,Hit,0.734671774786,True,False,stimulusJOSU26_2IFCnew_2019_Jun_12_0837_149,stimulusJOSU26_2IFCnew_2019_Jun_12_0837_150,True,2019_Jun_12_0837,2IFCnew,2,JOSU26,
2IFCnew,0,0,0,0,-1,0,No,5.8,-1,No Answer,-1,True,False,stimulusJOSU26_2IFCnew_2019_Jun_12_0837_151,stimulusJOSU26_2IFCnew_2019_Jun_12_0837_152,True,2019_Jun_12_0837,2IFCnew,2,JOSU26,
2IFCnew,1,0,1,0,-1,3,No,8.7,-1,Correct Rejection,0.567062626593,False,True,stimulusJOSU26_2IFCnew_2019_Jun_12_0837_153,stimulusJOSU26_2IFCnew_2019_Jun_12_0837_154,True,2019_Jun_12_0837,2IFCnew,2,JOSU26,
2IFCnew,2,0,2,0,-1,1,No,8.7,-1,Hit,0.567471121904,True,False,stimulusJOSU26_2IFCnew_2019_Jun_12_0837_155,stimulusJOSU26_2IFCnew_2019_Jun_12_0837_156,True,2019_Jun_12_0837,2IFCnew,2,JOSU26,
2IFCnew,3,0,3,0,-1,3,No,5.8,-1,Correct Rejection,0.504048414994,False,True,stimulusJOSU26_2IFCnew_2019_Jun_12_0837_157,stimulusJOSU26_2IFCnew_2019_Jun_12_0837_158,True,2019_Jun_12_0837,2IFCnew,2,JOSU26,
2IFCnew,4,0,4,0,-1,1,No,5.8,-1,Hit,0.736198192928,True,False,stimulusJOSU26_2IFCnew_2019_Jun_12_0837_159,stimulusJOSU26_2IFCnew_2019_Jun_12_0837_160,True,2019_Jun_12_0837,2IFCnew,2,JOSU26,
2IFCnew,5,0,5,0,-1,1,No,1.5,-1,Hit,0.868820019066,True,False,stimulusJOSU26_2IFCnew_2019_Jun_12_0837_161,stimulusJOSU26_2IFCnew_2019_Jun_12_0837_162,True,2019_Jun_12_0837,2IFCnew,2,JOSU26,
2IFCnew,6,0,6,0,-1,4,No,1.5,-1,Miss,0.600906161591,True,False,stimulusJOSU26_2IFCnew_2019_Jun_12_0837_163,stimulusJOSU26_2IFCnew_2019_Jun_12_0837_164,True,2019_Jun_12_0837,2IFCnew,2,JOSU26,
2IFCnew,7,0,7,0,-1,3,No,3,-1,Correct Rejection,0.533146834932,False,True,stimulusJOSU26_2IFCnew_2019_Jun_12_0837_165,stimulusJOSU26_2IFCnew_2019_Jun_12_0837_166,True,2019_Jun_12_0837,2IFCnew,2,JOSU26,
2IFCnew,8,0,8,0,-1,1,No,5,-1,Hit,0.636739624199,True,False,stimulusJOSU26_2IFCnew_2019_Jun_12_0837_167,stimulusJOSU26_2IFCnew_2019_Jun_12_0837_168,True,2019_Jun_12_0837,2IFCnew,2,JOSU26,
2IFCnew,9,0,9,0,-1,4,No,7.6,-1,Miss,0.668424907606,True,False,stimulusJOSU26_2IFCnew_2019_Jun_12_0837_169,stimulusJOSU26_2IFCnew_2019_Jun_12_0837_170,True,2019_Jun_12_0837,2IFCnew,2,JOSU26,
2IFCnew,10,0,10,0,-1,3,No,7.6,-1,Correct Rejection,0.633564855438,False,True,stimulusJOSU26_2IFCnew_2019_Jun_12_0837_171,stimulusJOSU26_2IFCnew_2019_Jun_12_0837_172,True,2019_Jun_12_0837,2IFCnew,2,JOSU26,
2IFCnew,11,0,11,0,-1,3,No,6.7,-1,Correct Rejection,0.538010598626,False,True,stimulusJOSU26_2IFCnew_2019_Jun_12_0837_173,stimulusJOSU26_2IFCnew_2019_Jun_12_0837_174,True,2019_Jun_12_0837,2IFCnew,2,JOSU26,
2IFCnew,12,0,12,0,-1,3,No,6.7,-1,Correct Rejection,0.567336873151,False,True,stimulusJOSU26_2IFCnew_2019_Jun_12_0837_175,stimulusJOSU26_2IFCnew_2019_Jun_12_0837_176,True,2019_Jun_12_0837,2IFCnew,2,JOSU26,
2IFCnew,13,0,13,0,-1,1,No,8.7,-1,Hit,0.571360655129,True,False,stimulusJOSU26_2IFCnew_2019_Jun_12_0837_177,stimulusJOSU26_2IFCnew_2019_Jun_12_0837_178,True,2019_Jun_12_0837,2IFCnew,2,JOSU26,
2IFCnew,14,0,14,0,-1,3,No,6.7,-1,Correct Rejection,0.535156057682,False,True,stimulusJOSU26_2IFCnew_2019_Jun_12_0837_179,stimulusJOSU26_2IFCnew_2019_Jun_12_0837_180,True,2019_Jun_12_0837,2IFCnew,2,JOSU26,
2IFCnew,15,0,15,0,0.635889378376,6,No,6.7,-1,Miss,0.764265315607,True,False,stimulusJOSU26_2IFCnew_2019_Jun_12_0837_181,stimulusJOSU26_2IFCnew_2019_Jun_12_0837_182,True,2019_Jun_12_0837,2IFCnew,2,JOSU26,
2IFCnew,16,0,16,0,-1,3,No,1.5,-1,Correct Rejection,0.632242479362,False,True,stimulusJOSU26_2IFCnew_2019_Jun_12_0837_183,stimulusJOSU26_2IFCnew_2019_Jun_12_0837_184,True,2019_Jun_12_0837,2IFCnew,2,JOSU26,
2IFCnew,17,0,17,0,-1,3,No,1.5,-1,Correct Rejection,0.599875685759,False,True,stimulusJOSU26_2IFCnew_2019_Jun_12_0837_185,stimulusJOSU26_2IFCnew_2019_Jun_12_0837_186,True,2019_Jun_12_0837,2IFCnew,2,JOSU26,
2IFCnew,18,0,18,0,-1,1,No,7.6,-1,Hit,0.769343796652,True,False,stimulusJOSU26_2IFCnew_2019_Jun_12_0837_187,stimulusJOSU26_2IFCnew_2019_Jun_12_0837_188,True,2019_Jun_12_0837,2IFCnew,2,JOSU26,
2IFCnew,19,0,19,0,-1,3,No,7.6,-1,Correct Rejection,0.571510094684,False,True,stimulusJOSU26_2IFCnew_2019_Jun_12_0837_189,stimulusJOSU26_2IFCnew_2019_Jun_12_0837_190,True,2019_Jun_12_0837,2IFCnew,2,JOSU26,
2IFCnew,20,0,20,0,-1,3,No,8.7,-1,Correct Rejection,0.542179714888,False,True,stimulusJOSU26_2IFCnew_2019_Jun_12_0837_191,stimulusJOSU26_2IFCnew_2019_Jun_12_0837_192,True,2019_Jun_12_0837,2IFCnew,2,JOSU26,
2IFCnew,21,0,21,0,-1,4,No,3,-1,Miss,0.634275103454,True,False,stimulusJOSU26_2IFCnew_2019_Jun_12_0837_193,stimulusJOSU26_2IFCnew_2019_Jun_12_0837_194,True,2019_Jun_12_0837,2IFCnew,2,JOSU26,
2IFCnew,22,0,22,0,-1,1,No,3,-1,Hit,0.664967681281,True,False,stimulusJOSU26_2IFCnew_2019_Jun_12_0837_195,stimulusJOSU26_2IFCnew_2019_Jun_12_0837_196,True,2019_Jun_12_0837,2IFCnew,2,JOSU26,
2IFCnew,23,0,23,0,-1,1,No,4,-1,Hit,0.600633968599,True,False,stimulusJOSU26_2IFCnew_2019_Jun_12_0837_197,stimulusJOSU26_2IFCnew_2019_Jun_12_0837_198,True,2019_Jun_12_0837,2IFCnew,2,JOSU26,
2IFCnew,24,0,24,0,0.464999540243,6,No,1.5,-1,Miss,0.834682120942,True,False,stimulusJOSU26_2IFCnew_2019_Jun_12_0837_199,stimulusJOSU26_2IFCnew_2019_Jun_12_0837_200,True,2019_Jun_12_0837,2IFCnew,2,JOSU26,
2IFCnew,25,0,25,0,-1,4,No,1.5,-1,Miss,0.63338996144,True,False,stimulusJOSU26_2IFCnew_2019_Jun_12_0837_201,stimulusJOSU26_2IFCnew_2019_Jun_12_0837_202,True,2019_Jun_12_0837,2IFCnew,2,JOSU26,
2IFCnew,26,0,26,0,-1,1,No,6.7,-1,Hit,0.725393387023,True,False,stimulusJOSU26_2IFCnew_2019_Jun_12_0837_203,stimulusJOSU26_2IFCnew_2019_Jun_12_0837_204,True,2019_Jun_12_0837,2IFCnew,2,JOSU26,
2IFCnew,27,0,27,0,-1,3,No,6.7,-1,Correct Rejection,0.602759375703,False,True,stimulusJOSU26_2IFCnew_2019_Jun_12_0837_205,stimulusJOSU26_2IFCnew_2019_Jun_12_0837_206,True,2019_Jun_12_0837,2IFCnew,2,JOSU26,
2IFCnew,28,0,28,0,-1,3,No,5,-1,Correct Rejection,0.531916011591,False,True,stimulusJOSU26_2IFCnew_2019_Jun_12_0837_207,stimulusJOSU26_2IFCnew_2019_Jun_12_0837_208,True,2019_Jun_12_0837,2IFCnew,2,JOSU26,
2IFCnew,29,0,29,0,-1,3,No,7.6,-1,Correct Rejection,0.5656101075,False,True,stimulusJOSU26_2IFCnew_2019_Jun_12_0837_209,stimulusJOSU26_2IFCnew_2019_Jun_12_0837_210,True,2019_Jun_12_0837,2IFCnew,2,JOSU26,
2IFCnew,30,0,30,0,-1,3,No,5,-1,Correct Rejection,0.537223988213,False,True,stimulusJOSU26_2IFCnew_2019_Jun_12_0837_211,stimulusJOSU26_2IFCnew_2019_Jun_12_0837_212,True,2019_Jun_12_0837,2IFCnew,2,JOSU26,
2IFCnew,31,0,31,0,-1,1,No,4,-1,Hit,0.732251593843,True,False,stimulusJOSU26_2IFCnew_2019_Jun_12_0837_213,stimulusJOSU26_2IFCnew_2019_Jun_12_0837_214,True,2019_Jun_12_0837,2IFCnew,2,JOSU26,
2IFCnew,32,0,32,0,-1,4,No,3,-1,Miss,0.5657759686,True,False,stimulusJOSU26_2IFCnew_2019_Jun_12_0837_215,stimulusJOSU26_2IFCnew_2019_Jun_12_0837_216,True,2019_Jun_12_0837,2IFCnew,2,JOSU26,
2IFCnew,33,0,33,0,0.53266690392,6,No,5,-1,Miss,0.766735994723,True,False,stimulusJOSU26_2IFCnew_2019_Jun_12_0837_217,stimulusJOSU26_2IFCnew_2019_Jun_12_0837_218,True,2019_Jun_12_0837,2IFCnew,2,JOSU26,
2IFCnew,34,0,34,0,-1,1,No,4,-1,Hit,0.767358385492,True,False,stimulusJOSU26_2IFCnew_2019_Jun_12_0837_219,stimulusJOSU26_2IFCnew_2019_Jun_12_0837_220,True,2019_Jun_12_0837,2IFCnew,2,JOSU26,
2IFCnew,35,0,35,0,-1,1,No,6.7,-1,Hit,0.602620200254,True,False,stimulusJOSU26_2IFCnew_2019_Jun_12_0837_221,stimulusJOSU26_2IFCnew_2019_Jun_12_0837_222,True,2019_Jun_12_0837,2IFCnew,2,JOSU26,
2IFCnew,36,0,36,0,-1,4,No,7.6,-1,Miss,0.701766341925,True,False,stimulusJOSU26_2IFCnew_2019_Jun_12_0837_223,stimulusJOSU26_2IFCnew_2019_Jun_12_0837_224,True,2019_Jun_12_0837,2IFCnew,2,JOSU26,
2IFCnew,37,0,37,0,-1,4,No,1.5,-1,Miss,0.60334194405,True,False,stimulusJOSU26_2IFCnew_2019_Jun_12_0837_225,stimulusJOSU26_2IFCnew_2019_Jun_12_0837_226,True,2019_Jun_12_0837,2IFCnew,2,JOSU26,
2IFCnew,38,0,38,0,-1,4,No,5.8,-1,Miss,0.699314548634,True,False,stimulusJOSU26_2IFCnew_2019_Jun_12_0837_227,stimulusJOSU26_2IFCnew_2019_Jun_12_0837_228,True,2019_Jun_12_0837,2IFCnew,2,JOSU26,
2IFCnew,39,0,39,0,-1,1,No,5.8,-1,Hit,0.630999339744,True,False,stimulusJOSU26_2IFCnew_2019_Jun_12_0837_229,stimulusJOSU26_2IFCnew_2019_Jun_12_0837_230,True,2019_Jun_12_0837,2IFCnew,2,JOSU26,
2IFCnew,40,0,40,0,-1,1,No,8.7,-1,Hit,0.677396615501,True,False,stimulusJOSU26_2IFCnew_2019_Jun_12_0837_231,stimulusJOSU26_2IFCnew_2019_Jun_12_0837_232,True,2019_Jun_12_0837,2IFCnew,2,JOSU26,
2IFCnew,41,0,41,0,-1,3,No,5,-1,Correct Rejection,0.493133992888,False,True,stimulusJOSU26_2IFCnew_2019_Jun_12_0837_233,stimulusJOSU26_2IFCnew_2019_Jun_12_0837_234,True,2019_Jun_12_0837,2IFCnew,2,JOSU26,
2IFCnew,42,0,42,0,-1,4,No,4,-1,Miss,0.607922429219,True,False,stimulusJOSU26_2IFCnew_2019_Jun_12_0837_235,stimulusJOSU26_2IFCnew_2019_Jun_12_0837_236,True,2019_Jun_12_0837,2IFCnew,2,JOSU26,
2IFCnew,43,0,43,0,-1,1,No,5.8,-1,Hit,0.812121679541,True,False,stimulusJOSU26_2IFCnew_2019_Jun_12_0837_237,stimulusJOSU26_2IFCnew_2019_Jun_12_0837_238,True,2019_Jun_12_0837,2IFCnew,2,JOSU26,
2IFCnew,44,0,44,0,0.502207106445,6,No,3,-1,Miss,0.701093453914,True,False,stimulusJOSU26_2IFCnew_2019_Jun_12_0837_239,stimulusJOSU26_2IFCnew_2019_Jun_12_0837_240,True,2019_Jun_12_0837,2IFCnew,2,JOSU26,
2IFCnew,45,0,45,0,-1,3,No,4,-1,Correct Rejection,0.632583234459,False,True,stimulusJOSU26_2IFCnew_2019_Jun_12_0837_241,stimulusJOSU26_2IFCnew_2019_Jun_12_0837_242,True,2019_Jun_12_0837,2IFCnew,2,JOSU26,
2IFCnew,46,0,46,0,-1,0,No,1.5,-1,No Answer,-1,False,True,stimulusJOSU26_2IFCnew_2019_Jun_12_0837_243,stimulusJOSU26_2IFCnew_2019_Jun_12_0837_244,True,2019_Jun_12_0837,2IFCnew,2,JOSU26,
2IFCnew,47,0,47,0,-1,3,No,7.6,-1,Correct Rejection,0.533286831807,False,True,stimulusJOSU26_2IFCnew_2019_Jun_12_0837_245,stimulusJOSU26_2IFCnew_2019_Jun_12_0837_246,True,2019_Jun_12_0837,2IFCnew,2,JOSU26,
2IFCnew,48,0,48,0,-1,4,No,1.5,-1,Miss,0.79090988962,True,False,stimulusJOSU26_2IFCnew_2019_Jun_12_0837_247,stimulusJOSU26_2IFCnew_2019_Jun_12_0837_248,True,2019_Jun_12_0837,2IFCnew,2,JOSU26,
2IFCnew,49,0,49,0,0.567021572031,2,Yes,7.6,-1,Correct Rejection,0.733746810351,False,True,stimulusJOSU26_2IFCnew_2019_Jun_12_0837_249,stimulusJOSU26_2IFCnew_2019_Jun_12_0837_250,True,2019_Jun_12_0837,2IFCnew,2,JOSU26,
2IFCnew,50,0,50,0,-1,1,Yes,8.7,-1,Hit,0.625940565486,True,False,stimulusJOSU26_2IFCnew_2019_Jun_12_0837_251,stimulusJOSU26_2IFCnew_2019_Jun_12_0837_252,True,2019_Jun_12_0837,2IFCnew,2,JOSU26,
2IFCnew,51,0,51,0,-1,3,Yes,4,-1,Correct Rejection,0.559446958825,False,True,stimulusJOSU26_2IFCnew_2019_Jun_12_0837_253,stimulusJOSU26_2IFCnew_2019_Jun_12_0837_254,True,2019_Jun_12_0837,2IFCnew,2,JOSU26,
2IFCnew,52,0,52,0,-1,3,Yes,5.8,-1,Correct Rejection,0.466770234052,False,True,stimulusJOSU26_2IFCnew_2019_Jun_12_0837_255,stimulusJOSU26_2IFCnew_2019_Jun_12_0837_256,True,2019_Jun_12_0837,2IFCnew,2,JOSU26,
2IFCnew,53,0,53,0,-1,3,Yes,6.7,-1,Correct Rejection,0.602272055577,False,True,stimulusJOSU26_2IFCnew_2019_Jun_12_0837_257,stimulusJOSU26_2IFCnew_2019_Jun_12_0837_258,True,2019_Jun_12_0837,2IFCnew,2,JOSU26,
2IFCnew,54,0,54,0,-1,1,Yes,6.7,-1,Hit,0.536000965629,True,False,stimulusJOSU26_2IFCnew_2019_Jun_12_0837_259,stimulusJOSU26_2IFCnew_2019_Jun_12_0837_260,True,2019_Jun_12_0837,2IFCnew,2,JOSU26,
2IFCnew,55,0,55,0,-1,1,Yes,6.7,-1,Hit,0.537339352537,True,False,stimulusJOSU26_2IFCnew_2019_Jun_12_0837_261,stimulusJOSU26_2IFCnew_2019_Jun_12_0837_262,True,2019_Jun_12_0837,2IFCnew,2,JOSU26,
2IFCnew,56,0,56,0,0.402413119562,6,No,5,-1,Miss,0.868493222632,True,False,stimulusJOSU26_2IFCnew_2019_Jun_12_0837_263,stimulusJOSU26_2IFCnew_2019_Jun_12_0837_264,True,2019_Jun_12_0837,2IFCnew,2,JOSU26,
2IFCnew,57,0,57,0,-1,3,No,3,-1,Correct Rejection,0.666421842761,False,True,stimulusJOSU26_2IFCnew_2019_Jun_12_0837_265,stimulusJOSU26_2IFCnew_2019_Jun_12_0837_266,True,2019_Jun_12_0837,2IFCnew,2,JOSU26,
2IFCnew,58,0,58,0,-1,1,No,6.7,-1,Hit,0.532457524911,True,False,stimulusJOSU26_2IFCnew_2019_Jun_12_0837_267,stimulusJOSU26_2IFCnew_2019_Jun_12_0837_268,True,2019_Jun_12_0837,2IFCnew,2,JOSU26,
2IFCnew,59,0,59,0,-1,3,No,5.8,-1,Correct Rejection,0.473360763863,False,True,stimulusJOSU26_2IFCnew_2019_Jun_12_0837_269,stimulusJOSU26_2IFCnew_2019_Jun_12_0837_270,True,2019_Jun_12_0837,2IFCnew,2,JOSU26,
2IFCnew,60,0,60,0,-1,3,No,5,-1,Correct Rejection,0.634831395932,False,True,stimulusJOSU26_2IFCnew_2019_Jun_12_0837_271,stimulusJOSU26_2IFCnew_2019_Jun_12_0837_272,True,2019_Jun_12_0837,2IFCnew,2,JOSU26,
2IFCnew,61,0,61,0,-1,3,No,5.8,-1,Correct Rejection,0.565729166381,False,True,stimulusJOSU26_2IFCnew_2019_Jun_12_0837_273,stimulusJOSU26_2IFCnew_2019_Jun_12_0837_274,True,2019_Jun_12_0837,2IFCnew,2,JOSU26,
2IFCnew,62,0,62,0,-1,3,No,5,-1,Correct Rejection,0.568375149276,False,True,stimulusJOSU26_2IFCnew_2019_Jun_12_0837_275,stimulusJOSU26_2IFCnew_2019_Jun_12_0837_276,True,2019_Jun_12_0837,2IFCnew,2,JOSU26,
2IFCnew,63,0,63,0,-1,1,No,3,-1,Hit,0.798842090182,True,False,stimulusJOSU26_2IFCnew_2019_Jun_12_0837_277,stimulusJOSU26_2IFCnew_2019_Jun_12_0837_278,True,2019_Jun_12_0837,2IFCnew,2,JOSU26,
2IFCnew,64,0,64,0,-1,1,No,5.8,-1,Hit,0.734538757708,True,False,stimulusJOSU26_2IFCnew_2019_Jun_12_0837_279,stimulusJOSU26_2IFCnew_2019_Jun_12_0837_280,True,2019_Jun_12_0837,2IFCnew,2,JOSU26,
2IFCnew,65,0,65,0,-1,1,No,7.6,-1,Hit,0.635864745826,True,False,stimulusJOSU26_2IFCnew_2019_Jun_12_0837_281,stimulusJOSU26_2IFCnew_2019_Jun_12_0837_282,True,2019_Jun_12_0837,2IFCnew,2,JOSU26,
2IFCnew,66,0,66,0,-1,3,No,5,-1,Correct Rejection,0.701058146544,False,True,stimulusJOSU26_2IFCnew_2019_Jun_12_0837_283,stimulusJOSU26_2IFCnew_2019_Jun_12_0837_284,True,2019_Jun_12_0837,2IFCnew,2,JOSU26,
2IFCnew,67,0,67,0,-1,3,No,5.8,-1,Correct Rejection,0.495213008951,False,True,stimulusJOSU26_2IFCnew_2019_Jun_12_0837_285,stimulusJOSU26_2IFCnew_2019_Jun_12_0837_286,True,2019_Jun_12_0837,2IFCnew,2,JOSU26,
2IFCnew,68,0,68,0,-1,1,No,5,-1,Hit,0.569812888745,True,False,stimulusJOSU26_2IFCnew_2019_Jun_12_0837_287,stimulusJOSU26_2IFCnew_2019_Jun_12_0837_288,True,2019_Jun_12_0837,2IFCnew,2,JOSU26,
2IFCnew,69,0,69,0,-1,1,No,3,-1,Hit,0.636012542993,True,False,stimulusJOSU26_2IFCnew_2019_Jun_12_0837_289,stimulusJOSU26_2IFCnew_2019_Jun_12_0837_290,True,2019_Jun_12_0837,2IFCnew,2,JOSU26,
2IFCnew,70,0,70,0,-1,0,No,5,-1,No Answer,-1,True,False,stimulusJOSU26_2IFCnew_2019_Jun_12_0837_291,stimulusJOSU26_2IFCnew_2019_Jun_12_0837_292,True,2019_Jun_12_0837,2IFCnew,2,JOSU26,
2IFCnew,71,0,71,0,-1,3,No,6.7,-1,Correct Rejection,0.535557162948,False,True,stimulusJOSU26_2IFCnew_2019_Jun_12_0837_293,stimulusJOSU26_2IFCnew_2019_Jun_12_0837_294,True,2019_Jun_12_0837,2IFCnew,2,JOSU26,
2IFCnew,72,0,72,0,-1,2,No,1.5,-1,False Alarm,0.670717818663,False,True,stimulusJOSU26_2IFCnew_2019_Jun_12_0837_295,stimulusJOSU26_2IFCnew_2019_Jun_12_0837_296,True,2019_Jun_12_0837,2IFCnew,2,JOSU26,
2IFCnew,73,0,73,0,-1,1,No,3,-1,Hit,0.73382358253,True,False,stimulusJOSU26_2IFCnew_2019_Jun_12_0837_297,stimulusJOSU26_2IFCnew_2019_Jun_12_0837_298,True,2019_Jun_12_0837,2IFCnew,2,JOSU26,
2IFCnew,74,0,74,0,-1,3,No,1.5,-1,Correct Rejection,0.532851240132,False,True,stimulusJOSU26_2IFCnew_2019_Jun_12_0837_299,stimulusJOSU26_2IFCnew_2019_Jun_12_0837_300,True,2019_Jun_12_0837,2IFCnew,2,JOSU26,
2IFCnew,0,0,0,0,-1,0,No,7.6,-1,No Answer,-1,True,False,stimulusJOSU26_2IFCnew_2019_Jun_12_0837_301,stimulusJOSU26_2IFCnew_2019_Jun_12_0837_302,True,2019_Jun_12_0837,2IFCnew,2,JOSU26,
2IFCnew,1,0,1,0,-1,1,No,6.7,-1,Hit,0.569741863757,True,False,stimulusJOSU26_2IFCnew_2019_Jun_12_0837_303,stimulusJOSU26_2IFCnew_2019_Jun_12_0837_304,True,2019_Jun_12_0837,2IFCnew,2,JOSU26,
2IFCnew,2,0,2,0,-1,1,No,6.7,-1,Hit,0.706909689587,True,False,stimulusJOSU26_2IFCnew_2019_Jun_12_0837_305,stimulusJOSU26_2IFCnew_2019_Jun_12_0837_306,True,2019_Jun_12_0837,2IFCnew,2,JOSU26,
2IFCnew,3,0,3,0,-1,0,No,5,-1,No Answer,-1,True,False,stimulusJOSU26_2IFCnew_2019_Jun_12_0837_307,stimulusJOSU26_2IFCnew_2019_Jun_12_0837_308,True,2019_Jun_12_0837,2IFCnew,2,JOSU26,
2IFCnew,4,0,4,0,-1,3,No,5,-1,Correct Rejection,0.501382315531,False,True,stimulusJOSU26_2IFCnew_2019_Jun_12_0837_309,stimulusJOSU26_2IFCnew_2019_Jun_12_0837_310,True,2019_Jun_12_0837,2IFCnew,2,JOSU26,
2IFCnew,5,0,5,0,-1,1,No,8.7,-1,Hit,0.533501137979,True,False,stimulusJOSU26_2IFCnew_2019_Jun_12_0837_311,stimulusJOSU26_2IFCnew_2019_Jun_12_0837_312,True,2019_Jun_12_0837,2IFCnew,2,JOSU26,
2IFCnew,6,0,6,0,-1,3,No,4,-1,Correct Rejection,0.704165585339,False,True,stimulusJOSU26_2IFCnew_2019_Jun_12_0837_313,stimulusJOSU26_2IFCnew_2019_Jun_12_0837_314,True,2019_Jun_12_0837,2IFCnew,2,JOSU26,
2IFCnew,7,0,7,0,-1,4,No,3,-1,Miss,0.600801061373,True,False,stimulusJOSU26_2IFCnew_2019_Jun_12_0837_315,stimulusJOSU26_2IFCnew_2019_Jun_12_0837_316,True,2019_Jun_12_0837,2IFCnew,2,JOSU26,
2IFCnew,8,0,8,0,-1,3,No,6.7,-1,Correct Rejection,0.469793921337,False,True,stimulusJOSU26_2IFCnew_2019_Jun_12_0837_317,stimulusJOSU26_2IFCnew_2019_Jun_12_0837_318,True,2019_Jun_12_0837,2IFCnew,2,JOSU26,
2IFCnew,9,0,9,0,-1,4,No,3,-1,Miss,0.868480906356,True,False,stimulusJOSU26_2IFCnew_2019_Jun_12_0837_319,stimulusJOSU26_2IFCnew_2019_Jun_12_0837_320,True,2019_Jun_12_0837,2IFCnew,2,JOSU26,
2IFCnew,10,0,10,0,-1,3,No,5.8,-1,Correct Rejection,0.705590187572,False,True,stimulusJOSU26_2IFCnew_2019_Jun_12_0837_321,stimulusJOSU26_2IFCnew_2019_Jun_12_0837_322,True,2019_Jun_12_0837,2IFCnew,2,JOSU26,
2IFCnew,11,0,11,0,-1,3,No,8.7,-1,Correct Rejection,0.533023670781,False,True,stimulusJOSU26_2IFCnew_2019_Jun_12_0837_323,stimulusJOSU26_2IFCnew_2019_Jun_12_0837_324,True,2019_Jun_12_0837,2IFCnew,2,JOSU26,
2IFCnew,12,0,12,0,-1,3,No,7.6,-1,Correct Rejection,0.533636618871,False,True,stimulusJOSU26_2IFCnew_2019_Jun_12_0837_325,stimulusJOSU26_2IFCnew_2019_Jun_12_0837_326,True,2019_Jun_12_0837,2IFCnew,2,JOSU26,
2IFCnew,13,0,13,0,-1,1,No,8.7,-1,Hit,0.60547843622,True,False,stimulusJOSU26_2IFCnew_2019_Jun_12_0837_327,stimulusJOSU26_2IFCnew_2019_Jun_12_0837_328,True,2019_Jun_12_0837,2IFCnew,2,JOSU26,
2IFCnew,14,0,14,0,-1,3,No,5.8,-1,Correct Rejection,0.70404940052,False,True,stimulusJOSU26_2IFCnew_2019_Jun_12_0837_329,stimulusJOSU26_2IFCnew_2019_Jun_12_0837_330,True,2019_Jun_12_0837,2IFCnew,2,JOSU26,
2IFCnew,15,0,15,0,-1,3,No,4,-1,Correct Rejection,0.499465466477,False,True,stimulusJOSU26_2IFCnew_2019_Jun_12_0837_331,stimulusJOSU26_2IFCnew_2019_Jun_12_0837_332,True,2019_Jun_12_0837,2IFCnew,2,JOSU26,
2IFCnew,16,0,16,0,-1,3,No,5,-1,Correct Rejection,0.591743138153,False,True,stimulusJOSU26_2IFCnew_2019_Jun_12_0837_333,stimulusJOSU26_2IFCnew_2019_Jun_12_0837_334,True,2019_Jun_12_0837,2IFCnew,2,JOSU26,
2IFCnew,17,0,17,0,-1,0,No,6.7,-1,No Answer,-1,False,True,stimulusJOSU26_2IFCnew_2019_Jun_12_0837_335,stimulusJOSU26_2IFCnew_2019_Jun_12_0837_336,True,2019_Jun_12_0837,2IFCnew,2,JOSU26,
2IFCnew,18,0,18,0,-1,3,No,6.7,-1,Correct Rejection,0.568304534536,False,True,stimulusJOSU26_2IFCnew_2019_Jun_12_0837_337,stimulusJOSU26_2IFCnew_2019_Jun_12_0837_338,True,2019_Jun_12_0837,2IFCnew,2,JOSU26,
2IFCnew,19,0,19,0,-1,4,No,3,-1,Miss,0.433551142924,True,False,stimulusJOSU26_2IFCnew_2019_Jun_12_0837_339,stimulusJOSU26_2IFCnew_2019_Jun_12_0837_340,True,2019_Jun_12_0837,2IFCnew,2,JOSU26,
2IFCnew,20,0,20,0,-1,1,No,8.7,-1,Hit,0.70209519146,True,False,stimulusJOSU26_2IFCnew_2019_Jun_12_0837_341,stimulusJOSU26_2IFCnew_2019_Jun_12_0837_342,True,2019_Jun_12_0837,2IFCnew,2,JOSU26,
2IFCnew,21,0,21,0,-1,3,No,7.6,-1,Correct Rejection,0.467786751688,False,True,stimulusJOSU26_2IFCnew_2019_Jun_12_0837_343,stimulusJOSU26_2IFCnew_2019_Jun_12_0837_344,True,2019_Jun_12_0837,2IFCnew,2,JOSU26,
2IFCnew,22,0,22,0,-1,4,No,3,-1,Miss,0.658407122828,True,False,stimulusJOSU26_2IFCnew_2019_Jun_12_0837_345,stimulusJOSU26_2IFCnew_2019_Jun_12_0837_346,True,2019_Jun_12_0837,2IFCnew,2,JOSU26,
2IFCnew,23,0,23,0,-1,4,No,1.5,-1,Miss,0.594504074659,True,False,stimulusJOSU26_2IFCnew_2019_Jun_12_0837_347,stimulusJOSU26_2IFCnew_2019_Jun_12_0837_348,True,2019_Jun_12_0837,2IFCnew,2,JOSU26,
2IFCnew,24,0,24,0,-1,3,No,6.7,-1,Correct Rejection,0.567529419903,False,True,stimulusJOSU26_2IFCnew_2019_Jun_12_0837_349,stimulusJOSU26_2IFCnew_2019_Jun_12_0837_350,True,2019_Jun_12_0837,2IFCnew,2,JOSU26,
2IFCnew,25,0,25,0,-1,3,No,1.5,-1,Correct Rejection,0.471388489939,False,True,stimulusJOSU26_2IFCnew_2019_Jun_12_0837_351,stimulusJOSU26_2IFCnew_2019_Jun_12_0837_352,True,2019_Jun_12_0837,2IFCnew,2,JOSU26,
2IFCnew,26,0,26,0,-1,3,No,5.8,-1,Correct Rejection,0.607008139137,False,True,stimulusJOSU26_2IFCnew_2019_Jun_12_0837_353,stimulusJOSU26_2IFCnew_2019_Jun_12_0837_354,True,2019_Jun_12_0837,2IFCnew,2,JOSU26,
2IFCnew,27,0,27,0,-1,1,No,4,-1,Hit,0.800830374938,True,False,stimulusJOSU26_2IFCnew_2019_Jun_12_0837_355,stimulusJOSU26_2IFCnew_2019_Jun_12_0837_356,True,2019_Jun_12_0837,2IFCnew,2,JOSU26,
2IFCnew,28,0,28,0,-1,1,No,5.8,-1,Hit,0.775351346936,True,False,stimulusJOSU26_2IFCnew_2019_Jun_12_0837_357,stimulusJOSU26_2IFCnew_2019_Jun_12_0837_358,True,2019_Jun_12_0837,2IFCnew,2,JOSU26,
2IFCnew,29,0,29,0,0.571924337652,6,No,5,-1,Miss,0.601582334377,True,False,stimulusJOSU26_2IFCnew_2019_Jun_12_0837_359,stimulusJOSU26_2IFCnew_2019_Jun_12_0837_360,True,2019_Jun_12_0837,2IFCnew,2,JOSU26,
2IFCnew,30,0,30,0,0.666896847077,6,No,4,-1,Miss,0.60258078808,True,False,stimulusJOSU26_2IFCnew_2019_Jun_12_0837_361,stimulusJOSU26_2IFCnew_2019_Jun_12_0837_362,True,2019_Jun_12_0837,2IFCnew,2,JOSU26,
2IFCnew,31,0,31,0,-1,1,No,5,-1,Hit,0.643782577012,True,False,stimulusJOSU26_2IFCnew_2019_Jun_12_0837_363,stimulusJOSU26_2IFCnew_2019_Jun_12_0837_364,True,2019_Jun_12_0837,2IFCnew,2,JOSU26,
2IFCnew,32,0,32,0,-1,0,No,5.8,-1,No Answer,-1,False,True,stimulusJOSU26_2IFCnew_2019_Jun_12_0837_365,stimulusJOSU26_2IFCnew_2019_Jun_12_0837_366,True,2019_Jun_12_0837,2IFCnew,2,JOSU26,
2IFCnew,33,0,33,0,-1,3,No,6.7,-1,Correct Rejection,0.602271234151,False,True,stimulusJOSU26_2IFCnew_2019_Jun_12_0837_367,stimulusJOSU26_2IFCnew_2019_Jun_12_0837_368,True,2019_Jun_12_0837,2IFCnew,2,JOSU26,
2IFCnew,34,0,34,0,0.43411482498,4,Yes,5,-1,Miss,0.626918080729,True,False,stimulusJOSU26_2IFCnew_2019_Jun_12_0837_369,stimulusJOSU26_2IFCnew_2019_Jun_12_0837_370,True,2019_Jun_12_0837,2IFCnew,2,JOSU26,
2IFCnew,35,0,35,0,-1,0,Yes,1.5,-1,No Answer,-1,False,True,stimulusJOSU26_2IFCnew_2019_Jun_12_0837_371,stimulusJOSU26_2IFCnew_2019_Jun_12_0837_372,True,2019_Jun_12_0837,2IFCnew,2,JOSU26,
2IFCnew,36,0,36,0,-1,3,Yes,6.7,-1,Correct Rejection,0.565723418724,False,True,stimulusJOSU26_2IFCnew_2019_Jun_12_0837_373,stimulusJOSU26_2IFCnew_2019_Jun_12_0837_374,True,2019_Jun_12_0837,2IFCnew,2,JOSU26,
2IFCnew,37,0,37,0,0.499394441489,6,No,1.5,-1,Miss,0.535377753433,True,False,stimulusJOSU26_2IFCnew_2019_Jun_12_0837_375,stimulusJOSU26_2IFCnew_2019_Jun_12_0837_376,True,2019_Jun_12_0837,2IFCnew,2,JOSU26,
2IFCnew,38,0,38,0,-1,4,No,3,-1,Miss,0.597078621853,True,False,stimulusJOSU26_2IFCnew_2019_Jun_12_0837_377,stimulusJOSU26_2IFCnew_2019_Jun_12_0837_378,True,2019_Jun_12_0837,2IFCnew,2,JOSU26,
2IFCnew,39,0,39,0,-1,3,No,4,-1,Correct Rejection,0.568794729188,False,True,stimulusJOSU26_2IFCnew_2019_Jun_12_0837_379,stimulusJOSU26_2IFCnew_2019_Jun_12_0837_380,True,2019_Jun_12_0837,2IFCnew,2,JOSU26,
2IFCnew,40,0,40,0,-1,1,No,8.7,-1,Hit,0.568577959668,True,False,stimulusJOSU26_2IFCnew_2019_Jun_12_0837_381,stimulusJOSU26_2IFCnew_2019_Jun_12_0837_382,True,2019_Jun_12_0837,2IFCnew,2,JOSU26,
2IFCnew,41,0,41,0,-1,4,No,1.5,-1,Miss,0.645652623847,True,False,stimulusJOSU26_2IFCnew_2019_Jun_12_0837_383,stimulusJOSU26_2IFCnew_2019_Jun_12_0837_384,True,2019_Jun_12_0837,2IFCnew,2,JOSU26,
2IFCnew,42,0,42,0,-1,3,No,5,-1,Correct Rejection,0.598827146459,False,True,stimulusJOSU26_2IFCnew_2019_Jun_12_0837_385,stimulusJOSU26_2IFCnew_2019_Jun_12_0837_386,True,2019_Jun_12_0837,2IFCnew,2,JOSU26,
2IFCnew,43,0,43,0,-1,1,No,7.6,-1,Hit,0.733265647665,True,False,stimulusJOSU26_2IFCnew_2019_Jun_12_0837_387,stimulusJOSU26_2IFCnew_2019_Jun_12_0837_388,True,2019_Jun_12_0837,2IFCnew,2,JOSU26,
2IFCnew,44,0,44,0,-1,1,No,7.6,-1,Hit,0.676080398262,True,False,stimulusJOSU26_2IFCnew_2019_Jun_12_0837_389,stimulusJOSU26_2IFCnew_2019_Jun_12_0837_390,True,2019_Jun_12_0837,2IFCnew,2,JOSU26,
2IFCnew,45,0,45,0,-1,1,No,5,-1,Hit,0.702043872792,True,False,stimulusJOSU26_2IFCnew_2019_Jun_12_0837_391,stimulusJOSU26_2IFCnew_2019_Jun_12_0837_392,True,2019_Jun_12_0837,2IFCnew,2,JOSU26,
2IFCnew,46,0,46,0,-1,4,No,4,-1,Miss,0.669619602617,True,False,stimulusJOSU26_2IFCnew_2019_Jun_12_0837_393,stimulusJOSU26_2IFCnew_2019_Jun_12_0837_394,True,2019_Jun_12_0837,2IFCnew,2,JOSU26,
2IFCnew,47,0,47,0,-1,3,No,1.5,-1,Correct Rejection,0.537464569788,False,True,stimulusJOSU26_2IFCnew_2019_Jun_12_0837_395,stimulusJOSU26_2IFCnew_2019_Jun_12_0837_396,True,2019_Jun_12_0837,2IFCnew,2,JOSU26,
2IFCnew,48,0,48,0,-1,3,No,7.6,-1,Correct Rejection,0.535540330689,False,True,stimulusJOSU26_2IFCnew_2019_Jun_12_0837_397,stimulusJOSU26_2IFCnew_2019_Jun_12_0837_398,True,2019_Jun_12_0837,2IFCnew,2,JOSU26,
2IFCnew,49,0,49,0,-1,1,No,8.7,-1,Hit,0.633668313269,True,False,stimulusJOSU26_2IFCnew_2019_Jun_12_0837_399,stimulusJOSU26_2IFCnew_2019_Jun_12_0837_400,True,2019_Jun_12_0837,2IFCnew,2,JOSU26,
2IFCnew,50,0,50,0,-1,1,No,5.8,-1,Hit,0.634478325024,True,False,stimulusJOSU26_2IFCnew_2019_Jun_12_0837_401,stimulusJOSU26_2IFCnew_2019_Jun_12_0837_402,True,2019_Jun_12_0837,2IFCnew,2,JOSU26,
2IFCnew,51,0,51,0,-1,1,No,5.8,-1,Hit,0.567223972175,True,False,stimulusJOSU26_2IFCnew_2019_Jun_12_0837_403,stimulusJOSU26_2IFCnew_2019_Jun_12_0837_404,True,2019_Jun_12_0837,2IFCnew,2,JOSU26,
2IFCnew,52,0,52,0,-1,4,No,1.5,-1,Miss,0.570298566949,True,False,stimulusJOSU26_2IFCnew_2019_Jun_12_0837_405,stimulusJOSU26_2IFCnew_2019_Jun_12_0837_406,True,2019_Jun_12_0837,2IFCnew,2,JOSU26,
2IFCnew,53,0,53,0,-1,1,No,7.6,-1,Hit,0.835574652534,True,False,stimulusJOSU26_2IFCnew_2019_Jun_12_0837_407,stimulusJOSU26_2IFCnew_2019_Jun_12_0837_408,True,2019_Jun_12_0837,2IFCnew,2,JOSU26,
2IFCnew,54,0,54,0,-1,1,No,5,-1,Hit,0.534274200443,True,False,stimulusJOSU26_2IFCnew_2019_Jun_12_0837_409,stimulusJOSU26_2IFCnew_2019_Jun_12_0837_410,True,2019_Jun_12_0837,2IFCnew,2,JOSU26,
2IFCnew,55,0,55,0,-1,1,No,1.5,-1,Hit,0.767813683487,True,False,stimulusJOSU26_2IFCnew_2019_Jun_12_0837_411,stimulusJOSU26_2IFCnew_2019_Jun_12_0837_412,True,2019_Jun_12_0837,2IFCnew,2,JOSU26,
2IFCnew,56,0,56,0,-1,1,No,5,-1,Hit,0.697668661363,True,False,stimulusJOSU26_2IFCnew_2019_Jun_12_0837_413,stimulusJOSU26_2IFCnew_2019_Jun_12_0837_414,True,2019_Jun_12_0837,2IFCnew,2,JOSU26,
2IFCnew,57,0,57,0,-1,1,No,8.7,-1,Hit,0.467792909592,True,False,stimulusJOSU26_2IFCnew_2019_Jun_12_0837_415,stimulusJOSU26_2IFCnew_2019_Jun_12_0837_416,True,2019_Jun_12_0837,2IFCnew,2,JOSU26,
2IFCnew,58,0,58,0,-1,1,No,4,-1,Hit,0.500165040605,True,False,stimulusJOSU26_2IFCnew_2019_Jun_12_0837_417,stimulusJOSU26_2IFCnew_2019_Jun_12_0837_418,True,2019_Jun_12_0837,2IFCnew,2,JOSU26,
2IFCnew,59,0,59,0,-1,0,No,5.8,-1,No Answer,-1,True,False,stimulusJOSU26_2IFCnew_2019_Jun_12_0837_419,stimulusJOSU26_2IFCnew_2019_Jun_12_0837_420,True,2019_Jun_12_0837,2IFCnew,2,JOSU26,
2IFCnew,60,0,60,0,-1,3,No,5,-1,Correct Rejection,0.733026708476,False,True,stimulusJOSU26_2IFCnew_2019_Jun_12_0837_421,stimulusJOSU26_2IFCnew_2019_Jun_12_0837_422,True,2019_Jun_12_0837,2IFCnew,2,JOSU26,
2IFCnew,61,0,61,0,-1,3,No,4,-1,Correct Rejection,0.567666132003,False,True,stimulusJOSU26_2IFCnew_2019_Jun_12_0837_423,stimulusJOSU26_2IFCnew_2019_Jun_12_0837_424,True,2019_Jun_12_0837,2IFCnew,2,JOSU26,
2IFCnew,62,0,62,0,-1,1,No,3,-1,Hit,0.667125112377,True,False,stimulusJOSU26_2IFCnew_2019_Jun_12_0837_425,stimulusJOSU26_2IFCnew_2019_Jun_12_0837_426,True,2019_Jun_12_0837,2IFCnew,2,JOSU26,
2IFCnew,63,0,63,0,-1,1,No,3,-1,Hit,0.867187679745,True,False,stimulusJOSU26_2IFCnew_2019_Jun_12_0837_427,stimulusJOSU26_2IFCnew_2019_Jun_12_0837_428,True,2019_Jun_12_0837,2IFCnew,2,JOSU26,
2IFCnew,64,0,64,0,-1,2,No,1.5,-1,False Alarm,0.746570281219,False,True,stimulusJOSU26_2IFCnew_2019_Jun_12_0837_429,stimulusJOSU26_2IFCnew_2019_Jun_12_0837_430,True,2019_Jun_12_0837,2IFCnew,2,JOSU26,
2IFCnew,65,0,65,0,-1,1,No,1.5,-1,Hit,0.569207330234,True,False,stimulusJOSU26_2IFCnew_2019_Jun_12_0837_431,stimulusJOSU26_2IFCnew_2019_Jun_12_0837_432,True,2019_Jun_12_0837,2IFCnew,2,JOSU26,
2IFCnew,66,0,66,0,-1,4,No,3,-1,Miss,0.668388779275,True,False,stimulusJOSU26_2IFCnew_2019_Jun_12_0837_433,stimulusJOSU26_2IFCnew_2019_Jun_12_0837_434,True,2019_Jun_12_0837,2IFCnew,2,JOSU26,
2IFCnew,67,0,67,0,-1,1,No,1.5,-1,Hit,0.637484768871,True,False,stimulusJOSU26_2IFCnew_2019_Jun_12_0837_435,stimulusJOSU26_2IFCnew_2019_Jun_12_0837_436,True,2019_Jun_12_0837,2IFCnew,2,JOSU26,
2IFCnew,68,0,68,0,0.524547083303,8,No,4,-1,Correct Rejection,0.825811407529,False,True,stimulusJOSU26_2IFCnew_2019_Jun_12_0837_437,stimulusJOSU26_2IFCnew_2019_Jun_12_0837_438,True,2019_Jun_12_0837,2IFCnew,2,JOSU26,
2IFCnew,69,0,69,0,-1,3,No,4,-1,Correct Rejection,0.434629242402,False,True,stimulusJOSU26_2IFCnew_2019_Jun_12_0837_439,stimulusJOSU26_2IFCnew_2019_Jun_12_0837_440,True,2019_Jun_12_0837,2IFCnew,2,JOSU26,
2IFCnew,70,0,70,0,-1,1,No,8.7,-1,Hit,0.568951558787,True,False,stimulusJOSU26_2IFCnew_2019_Jun_12_0837_441,stimulusJOSU26_2IFCnew_2019_Jun_12_0837_442,True,2019_Jun_12_0837,2IFCnew,2,JOSU26,
2IFCnew,71,0,71,0,-1,1,No,5.8,-1,Hit,0.540443917736,True,False,stimulusJOSU26_2IFCnew_2019_Jun_12_0837_443,stimulusJOSU26_2IFCnew_2019_Jun_12_0837_444,True,2019_Jun_12_0837,2IFCnew,2,JOSU26,
2IFCnew,72,0,72,0,-1,3,No,3,-1,Correct Rejection,0.59874791,False,True,stimulusJOSU26_2IFCnew_2019_Jun_12_0837_445,stimulusJOSU26_2IFCnew_2019_Jun_12_0837_446,True,2019_Jun_12_0837,2IFCnew,2,JOSU26,
2IFCnew,73,0,73,0,-1,2,No,1.5,-1,False Alarm,0.603285699151,False,True,stimulusJOSU26_2IFCnew_2019_Jun_12_0837_447,stimulusJOSU26_2IFCnew_2019_Jun_12_0837_448,True,2019_Jun_12_0837,2IFCnew,2,JOSU26,
2IFCnew,74,0,74,0,-1,2,No,5,-1,False Alarm,0.867341635283,False,True,stimulusJOSU26_2IFCnew_2019_Jun_12_0837_449,stimulusJOSU26_2IFCnew_2019_Jun_12_0837_450,True,2019_Jun_12_0837,2IFCnew,2,JOSU26,
2IFCnew,0,0,0,0,-1,3,No,5,-1,Correct Rejection,0.766877633519,False,True,stimulusJOSU26_2IFCnew_2019_Jun_12_0837_451,stimulusJOSU26_2IFCnew_2019_Jun_12_0837_452,True,2019_Jun_12_0837,2IFCnew,2,JOSU26,
2IFCnew,1,0,1,0,-1,0,No,3,-1,No Answer,-1,False,True,stimulusJOSU26_2IFCnew_2019_Jun_12_0837_453,stimulusJOSU26_2IFCnew_2019_Jun_12_0837_454,True,2019_Jun_12_0837,2IFCnew,2,JOSU26,
2IFCnew,2,0,2,0,-1,3,No,4,-1,Correct Rejection,0.701369342394,False,True,stimulusJOSU26_2IFCnew_2019_Jun_12_0837_455,stimulusJOSU26_2IFCnew_2019_Jun_12_0837_456,True,2019_Jun_12_0837,2IFCnew,2,JOSU26,
2IFCnew,3,0,3,0,-1,4,No,5,-1,Miss,0.467234974727,True,False,stimulusJOSU26_2IFCnew_2019_Jun_12_0837_457,stimulusJOSU26_2IFCnew_2019_Jun_12_0837_458,True,2019_Jun_12_0837,2IFCnew,2,JOSU26,
2IFCnew,4,0,4,0,-1,3,No,7.6,-1,Correct Rejection,0.669248466846,False,True,stimulusJOSU26_2IFCnew_2019_Jun_12_0837_459,stimulusJOSU26_2IFCnew_2019_Jun_12_0837_460,True,2019_Jun_12_0837,2IFCnew,2,JOSU26,
2IFCnew,5,0,5,0,-1,3,No,4,-1,Correct Rejection,0.602672339883,False,True,stimulusJOSU26_2IFCnew_2019_Jun_12_0837_461,stimulusJOSU26_2IFCnew_2019_Jun_12_0837_462,True,2019_Jun_12_0837,2IFCnew,2,JOSU26,
2IFCnew,6,0,6,0,-1,1,No,5,-1,Hit,0.533337329049,True,False,stimulusJOSU26_2IFCnew_2019_Jun_12_0837_463,stimulusJOSU26_2IFCnew_2019_Jun_12_0837_464,True,2019_Jun_12_0837,2IFCnew,2,JOSU26,
2IFCnew,7,0,7,0,-1,1,No,5,-1,Hit,0.531958709005,True,False,stimulusJOSU26_2IFCnew_2019_Jun_12_0837_465,stimulusJOSU26_2IFCnew_2019_Jun_12_0837_466,True,2019_Jun_12_0837,2IFCnew,2,JOSU26,
2IFCnew,8,0,8,0,-1,3,No,7.6,-1,Correct Rejection,0.811626558658,False,True,stimulusJOSU26_2IFCnew_2019_Jun_12_0837_467,stimulusJOSU26_2IFCnew_2019_Jun_12_0837_468,True,2019_Jun_12_0837,2IFCnew,2,JOSU26,
2IFCnew,9,0,9,0,-1,3,No,7.6,-1,Correct Rejection,0.560640011448,False,True,stimulusJOSU26_2IFCnew_2019_Jun_12_0837_469,stimulusJOSU26_2IFCnew_2019_Jun_12_0837_470,True,2019_Jun_12_0837,2IFCnew,2,JOSU26,
2IFCnew,10,0,10,0,-1,3,No,3,-1,Correct Rejection,0.533918665722,False,True,stimulusJOSU26_2IFCnew_2019_Jun_12_0837_471,stimulusJOSU26_2IFCnew_2019_Jun_12_0837_472,True,2019_Jun_12_0837,2IFCnew,2,JOSU26,
2IFCnew,11,0,11,0,0.734314598143,5,Yes,5,-1,False Alarm,0.671938378364,False,True,stimulusJOSU26_2IFCnew_2019_Jun_12_0837_473,stimulusJOSU26_2IFCnew_2019_Jun_12_0837_474,True,2019_Jun_12_0837,2IFCnew,2,JOSU26,
2IFCnew,12,0,12,0,0.564992642961,8,No,6.7,-1,Correct Rejection,0.497689845972,False,True,stimulusJOSU26_2IFCnew_2019_Jun_12_0837_475,stimulusJOSU26_2IFCnew_2019_Jun_12_0837_476,True,2019_Jun_12_0837,2IFCnew,2,JOSU26,
2IFCnew,13,0,13,0,-1,2,No,3,-1,False Alarm,0.769309720956,False,True,stimulusJOSU26_2IFCnew_2019_Jun_12_0837_477,stimulusJOSU26_2IFCnew_2019_Jun_12_0837_478,True,2019_Jun_12_0837,2IFCnew,2,JOSU26,
2IFCnew,14,0,14,0,-1,1,No,5,-1,Hit,0.534625219181,True,False,stimulusJOSU26_2IFCnew_2019_Jun_12_0837_479,stimulusJOSU26_2IFCnew_2019_Jun_12_0837_480,True,2019_Jun_12_0837,2IFCnew,2,JOSU26,
2IFCnew,15,0,15,0,-1,1,No,5.8,-1,Hit,0.569340758026,True,False,stimulusJOSU26_2IFCnew_2019_Jun_12_0837_481,stimulusJOSU26_2IFCnew_2019_Jun_12_0837_482,True,2019_Jun_12_0837,2IFCnew,2,JOSU26,
2IFCnew,16,0,16,0,-1,2,No,4,-1,False Alarm,0.50211185962,False,True,stimulusJOSU26_2IFCnew_2019_Jun_12_0837_483,stimulusJOSU26_2IFCnew_2019_Jun_12_0837_484,True,2019_Jun_12_0837,2IFCnew,2,JOSU26,
2IFCnew,17,0,17,0,-1,2,No,4,-1,False Alarm,0.665985019878,False,True,stimulusJOSU26_2IFCnew_2019_Jun_12_0837_485,stimulusJOSU26_2IFCnew_2019_Jun_12_0837_486,True,2019_Jun_12_0837,2IFCnew,2,JOSU26,
2IFCnew,18,0,18,0,-1,3,No,3,-1,Correct Rejection,0.65804666141,False,True,stimulusJOSU26_2IFCnew_2019_Jun_12_0837_487,stimulusJOSU26_2IFCnew_2019_Jun_12_0837_488,True,2019_Jun_12_0837,2IFCnew,2,JOSU26,
2IFCnew,19,0,19,0,-1,2,No,4,-1,False Alarm,0.632927684113,False,True,stimulusJOSU26_2IFCnew_2019_Jun_12_0837_489,stimulusJOSU26_2IFCnew_2019_Jun_12_0837_490,True,2019_Jun_12_0837,2IFCnew,2,JOSU26,
2IFCnew,20,0,20,0,-1,3,No,1.5,-1,Correct Rejection,0.666300731245,False,True,stimulusJOSU26_2IFCnew_2019_Jun_12_0837_491,stimulusJOSU26_2IFCnew_2019_Jun_12_0837_492,True,2019_Jun_12_0837,2IFCnew,2,JOSU26,
2IFCnew,21,0,21,0,-1,1,No,6.7,-1,Hit,0.670354072936,True,False,stimulusJOSU26_2IFCnew_2019_Jun_12_0837_493,stimulusJOSU26_2IFCnew_2019_Jun_12_0837_494,True,2019_Jun_12_0837,2IFCnew,2,JOSU26,
2IFCnew,22,0,22,0,-1,2,No,5,-1,False Alarm,0.701455557253,False,True,stimulusJOSU26_2IFCnew_2019_Jun_12_0837_495,stimulusJOSU26_2IFCnew_2019_Jun_12_0837_496,True,2019_Jun_12_0837,2IFCnew,2,JOSU26,
2IFCnew,23,0,23,0,-1,1,No,7.6,-1,Hit,0.627709207125,True,False,stimulusJOSU26_2IFCnew_2019_Jun_12_0837_497,stimulusJOSU26_2IFCnew_2019_Jun_12_0837_498,True,2019_Jun_12_0837,2IFCnew,2,JOSU26,
2IFCnew,24,0,24,0,0.467838070355,6,No,3,-1,Miss,0.810468812939,True,False,stimulusJOSU26_2IFCnew_2019_Jun_12_0837_499,stimulusJOSU26_2IFCnew_2019_Jun_12_0837_500,True,2019_Jun_12_0837,2IFCnew,2,JOSU26,
2IFCnew,25,0,25,0,-1,1,No,7.6,-1,Hit,0.599639210384,True,False,stimulusJOSU26_2IFCnew_2019_Jun_12_0837_501,stimulusJOSU26_2IFCnew_2019_Jun_12_0837_502,True,2019_Jun_12_0837,2IFCnew,2,JOSU26,
2IFCnew,26,0,26,0,-1,4,No,1.5,-1,Miss,0.800620174035,True,False,stimulusJOSU26_2IFCnew_2019_Jun_12_0837_503,stimulusJOSU26_2IFCnew_2019_Jun_12_0837_504,True,2019_Jun_12_0837,2IFCnew,2,JOSU26,
2IFCnew,27,0,27,0,-1,1,No,5.8,-1,Hit,0.599731583614,True,False,stimulusJOSU26_2IFCnew_2019_Jun_12_0837_505,stimulusJOSU26_2IFCnew_2019_Jun_12_0837_506,True,2019_Jun_12_0837,2IFCnew,2,JOSU26,
2IFCnew,28,0,28,0,-1,3,No,3,-1,Correct Rejection,0.524974874686,False,True,stimulusJOSU26_2IFCnew_2019_Jun_12_0837_507,stimulusJOSU26_2IFCnew_2019_Jun_12_0837_508,True,2019_Jun_12_0837,2IFCnew,2,JOSU26,
2IFCnew,29,0,29,0,-1,2,No,7.6,-1,False Alarm,0.600991145242,False,True,stimulusJOSU26_2IFCnew_2019_Jun_12_0837_509,stimulusJOSU26_2IFCnew_2019_Jun_12_0837_510,True,2019_Jun_12_0837,2IFCnew,2,JOSU26,
2IFCnew,30,0,30,0,-1,1,No,4,-1,Hit,0.86794596212,True,False,stimulusJOSU26_2IFCnew_2019_Jun_12_0837_511,stimulusJOSU26_2IFCnew_2019_Jun_12_0837_512,True,2019_Jun_12_0837,2IFCnew,2,JOSU26,
2IFCnew,31,0,31,0,-1,3,No,5.8,-1,Correct Rejection,0.502495311201,False,True,stimulusJOSU26_2IFCnew_2019_Jun_12_0837_513,stimulusJOSU26_2IFCnew_2019_Jun_12_0837_514,True,2019_Jun_12_0837,2IFCnew,2,JOSU26,
2IFCnew,32,0,32,0,-1,4,No,3,-1,Miss,0.63593946537,True,False,stimulusJOSU26_2IFCnew_2019_Jun_12_0837_515,stimulusJOSU26_2IFCnew_2019_Jun_12_0837_516,True,2019_Jun_12_0837,2IFCnew,2,JOSU26,
2IFCnew,33,0,33,0,-1,3,No,7.6,-1,Correct Rejection,0.735117630102,False,True,stimulusJOSU26_2IFCnew_2019_Jun_12_0837_517,stimulusJOSU26_2IFCnew_2019_Jun_12_0837_518,True,2019_Jun_12_0837,2IFCnew,2,JOSU26,
2IFCnew,34,0,34,0,-1,4,No,8.7,-1,Miss,0.638042293023,True,False,stimulusJOSU26_2IFCnew_2019_Jun_12_0837_519,stimulusJOSU26_2IFCnew_2019_Jun_12_0837_520,True,2019_Jun_12_0837,2IFCnew,2,JOSU26,
2IFCnew,35,0,35,0,-1,2,No,8.7,-1,False Alarm,0.759679082781,False,True,stimulusJOSU26_2IFCnew_2019_Jun_12_0837_521,stimulusJOSU26_2IFCnew_2019_Jun_12_0837_522,True,2019_Jun_12_0837,2IFCnew,2,JOSU26,
2IFCnew,36,0,36,0,-1,2,No,1.5,-1,False Alarm,0.7027528896,False,True,stimulusJOSU26_2IFCnew_2019_Jun_12_0837_523,stimulusJOSU26_2IFCnew_2019_Jun_12_0837_524,True,2019_Jun_12_0837,2IFCnew,2,JOSU26,
2IFCnew,37,0,37,0,-1,1,No,3,-1,Hit,0.871215567458,True,False,stimulusJOSU26_2IFCnew_2019_Jun_12_0837_525,stimulusJOSU26_2IFCnew_2019_Jun_12_0837_526,True,2019_Jun_12_0837,2IFCnew,2,JOSU26,
2IFCnew,38,0,38,0,-1,1,No,6.7,-1,Hit,0.866504116915,True,False,stimulusJOSU26_2IFCnew_2019_Jun_12_0837_527,stimulusJOSU26_2IFCnew_2019_Jun_12_0837_528,True,2019_Jun_12_0837,2IFCnew,2,JOSU26,
2IFCnew,39,0,39,0,-1,2,No,4,-1,False Alarm,0.535100223031,False,True,stimulusJOSU26_2IFCnew_2019_Jun_12_0837_529,stimulusJOSU26_2IFCnew_2019_Jun_12_0837_530,True,2019_Jun_12_0837,2IFCnew,2,JOSU26,
2IFCnew,40,0,40,0,-1,3,No,3,-1,Correct Rejection,0.568808687851,False,True,stimulusJOSU26_2IFCnew_2019_Jun_12_0837_531,stimulusJOSU26_2IFCnew_2019_Jun_12_0837_532,True,2019_Jun_12_0837,2IFCnew,2,JOSU26,
2IFCnew,41,0,41,0,-1,1,No,3,-1,Hit,0.601058475208,True,False,stimulusJOSU26_2IFCnew_2019_Jun_12_0837_533,stimulusJOSU26_2IFCnew_2019_Jun_12_0837_534,True,2019_Jun_12_0837,2IFCnew,2,JOSU26,
2IFCnew,42,0,42,0,-1,3,No,7.6,-1,Correct Rejection,0.768482055981,False,True,stimulusJOSU26_2IFCnew_2019_Jun_12_0837_535,stimulusJOSU26_2IFCnew_2019_Jun_12_0837_536,True,2019_Jun_12_0837,2IFCnew,2,JOSU26,
2IFCnew,43,0,43,0,-1,1,No,6.7,-1,Hit,0.702286507003,True,False,stimulusJOSU26_2IFCnew_2019_Jun_12_0837_537,stimulusJOSU26_2IFCnew_2019_Jun_12_0837_538,True,2019_Jun_12_0837,2IFCnew,2,JOSU26,
2IFCnew,44,0,44,0,-1,3,No,5,-1,Correct Rejection,0.501579788979,False,True,stimulusJOSU26_2IFCnew_2019_Jun_12_0837_539,stimulusJOSU26_2IFCnew_2019_Jun_12_0837_540,True,2019_Jun_12_0837,2IFCnew,2,JOSU26,
2IFCnew,45,0,45,0,-1,3,No,3,-1,Correct Rejection,0.535105559975,False,True,stimulusJOSU26_2IFCnew_2019_Jun_12_0837_541,stimulusJOSU26_2IFCnew_2019_Jun_12_0837_542,True,2019_Jun_12_0837,2IFCnew,2,JOSU26,
2IFCnew,46,0,46,0,-1,3,No,5,-1,Correct Rejection,0.668190073688,False,True,stimulusJOSU26_2IFCnew_2019_Jun_12_0837_543,stimulusJOSU26_2IFCnew_2019_Jun_12_0837_544,True,2019_Jun_12_0837,2IFCnew,2,JOSU26,
2IFCnew,47,0,47,0,-1,2,No,1.5,-1,False Alarm,0.600938184652,False,True,stimulusJOSU26_2IFCnew_2019_Jun_12_0837_545,stimulusJOSU26_2IFCnew_2019_Jun_12_0837_546,True,2019_Jun_12_0837,2IFCnew,2,JOSU26,
2IFCnew,48,0,48,0,-1,4,No,5,-1,Miss,0.799983824138,True,False,stimulusJOSU26_2IFCnew_2019_Jun_12_0837_547,stimulusJOSU26_2IFCnew_2019_Jun_12_0837_548,True,2019_Jun_12_0837,2IFCnew,2,JOSU26,
2IFCnew,49,0,49,0,-1,3,No,4,-1,Correct Rejection,0.534112444147,False,True,stimulusJOSU26_2IFCnew_2019_Jun_12_0837_549,stimulusJOSU26_2IFCnew_2019_Jun_12_0837_550,True,2019_Jun_12_0837,2IFCnew,2,JOSU26,
2IFCnew,50,0,50,0,-1,3,No,3,-1,Correct Rejection,0.725385176018,False,True,stimulusJOSU26_2IFCnew_2019_Jun_12_0837_551,stimulusJOSU26_2IFCnew_2019_Jun_12_0837_552,True,2019_Jun_12_0837,2IFCnew,2,JOSU26,
2IFCnew,51,0,51,0,-1,1,No,5.8,-1,Hit,0.560562417842,True,False,stimulusJOSU26_2IFCnew_2019_Jun_12_0837_553,stimulusJOSU26_2IFCnew_2019_Jun_12_0837_554,True,2019_Jun_12_0837,2IFCnew,2,JOSU26,
2IFCnew,52,0,52,0,-1,3,No,8.7,-1,Correct Rejection,0.567017877009,False,True,stimulusJOSU26_2IFCnew_2019_Jun_12_0837_555,stimulusJOSU26_2IFCnew_2019_Jun_12_0837_556,True,2019_Jun_12_0837,2IFCnew,2,JOSU26,
2IFCnew,53,0,53,0,-1,3,No,3,-1,Correct Rejection,0.533130002674,False,True,stimulusJOSU26_2IFCnew_2019_Jun_12_0837_557,stimulusJOSU26_2IFCnew_2019_Jun_12_0837_558,True,2019_Jun_12_0837,2IFCnew,2,JOSU26,
2IFCnew,54,0,54,0,-1,0,No,5.8,-1,No Answer,-1,False,True,stimulusJOSU26_2IFCnew_2019_Jun_12_0837_559,stimulusJOSU26_2IFCnew_2019_Jun_12_0837_560,True,2019_Jun_12_0837,2IFCnew,2,JOSU26,
2IFCnew,55,0,55,0,-1,1,No,8.7,-1,Hit,0.566542051733,True,False,stimulusJOSU26_2IFCnew_2019_Jun_12_0837_561,stimulusJOSU26_2IFCnew_2019_Jun_12_0837_562,True,2019_Jun_12_0837,2IFCnew,2,JOSU26,
2IFCnew,56,0,56,0,-1,1,No,7.6,-1,Hit,0.567408308387,True,False,stimulusJOSU26_2IFCnew_2019_Jun_12_0837_563,stimulusJOSU26_2IFCnew_2019_Jun_12_0837_564,True,2019_Jun_12_0837,2IFCnew,2,JOSU26,
2IFCnew,57,0,57,0,-1,3,No,7.6,-1,Correct Rejection,0.699998932891,False,True,stimulusJOSU26_2IFCnew_2019_Jun_12_0837_565,stimulusJOSU26_2IFCnew_2019_Jun_12_0837_566,True,2019_Jun_12_0837,2IFCnew,2,JOSU26,
2IFCnew,58,0,58,0,-1,2,No,5.8,-1,False Alarm,0.66692640679,False,True,stimulusJOSU26_2IFCnew_2019_Jun_12_0837_567,stimulusJOSU26_2IFCnew_2019_Jun_12_0837_568,True,2019_Jun_12_0837,2IFCnew,2,JOSU26,
2IFCnew,59,0,59,0,-1,1,No,4,-1,Hit,0.502379126381,True,False,stimulusJOSU26_2IFCnew_2019_Jun_12_0837_569,stimulusJOSU26_2IFCnew_2019_Jun_12_0837_570,True,2019_Jun_12_0837,2IFCnew,2,JOSU26,
2IFCnew,60,0,60,0,-1,4,No,3,-1,Miss,0.595022596419,True,False,stimulusJOSU26_2IFCnew_2019_Jun_12_0837_571,stimulusJOSU26_2IFCnew_2019_Jun_12_0837_572,True,2019_Jun_12_0837,2IFCnew,2,JOSU26,
2IFCnew,61,0,61,0,-1,1,No,3,-1,Hit,0.669291574974,True,False,stimulusJOSU26_2IFCnew_2019_Jun_12_0837_573,stimulusJOSU26_2IFCnew_2019_Jun_12_0837_574,True,2019_Jun_12_0837,2IFCnew,2,JOSU26,
2IFCnew,62,0,62,0,-1,1,No,6.7,-1,Hit,0.605175451841,True,False,stimulusJOSU26_2IFCnew_2019_Jun_12_0837_575,stimulusJOSU26_2IFCnew_2019_Jun_12_0837_576,True,2019_Jun_12_0837,2IFCnew,2,JOSU26,
2IFCnew,63,0,63,0,-1,0,No,6.7,-1,No Answer,-1,True,False,stimulusJOSU26_2IFCnew_2019_Jun_12_0837_577,stimulusJOSU26_2IFCnew_2019_Jun_12_0837_578,True,2019_Jun_12_0837,2IFCnew,2,JOSU26,
2IFCnew,64,0,64,0,0.56262706453,6,No,3,-1,Miss,0.636403385084,True,False,stimulusJOSU26_2IFCnew_2019_Jun_12_0837_579,stimulusJOSU26_2IFCnew_2019_Jun_12_0837_580,True,2019_Jun_12_0837,2IFCnew,2,JOSU26,
2IFCnew,65,0,65,0,-1,3,No,6.7,-1,Correct Rejection,0.50013794424,False,True,stimulusJOSU26_2IFCnew_2019_Jun_12_0837_581,stimulusJOSU26_2IFCnew_2019_Jun_12_0837_582,True,2019_Jun_12_0837,2IFCnew,2,JOSU26,
2IFCnew,66,0,66,0,-1,3,No,3,-1,Correct Rejection,0.600730036385,False,True,stimulusJOSU26_2IFCnew_2019_Jun_12_0837_583,stimulusJOSU26_2IFCnew_2019_Jun_12_0837_584,True,2019_Jun_12_0837,2IFCnew,2,JOSU26,
2IFCnew,67,0,67,0,-1,3,No,5.8,-1,Correct Rejection,0.466188077349,False,True,stimulusJOSU26_2IFCnew_2019_Jun_12_0837_585,stimulusJOSU26_2IFCnew_2019_Jun_12_0837_586,True,2019_Jun_12_0837,2IFCnew,2,JOSU26,
2IFCnew,68,0,68,0,-1,1,No,3,-1,Hit,0.534085348248,True,False,stimulusJOSU26_2IFCnew_2019_Jun_12_0837_587,stimulusJOSU26_2IFCnew_2019_Jun_12_0837_588,True,2019_Jun_12_0837,2IFCnew,2,JOSU26,
2IFCnew,69,0,69,0,-1,1,No,7.6,-1,Hit,0.493219797499,True,False,stimulusJOSU26_2IFCnew_2019_Jun_12_0837_589,stimulusJOSU26_2IFCnew_2019_Jun_12_0837_590,True,2019_Jun_12_0837,2IFCnew,2,JOSU26,
2IFCnew,70,0,70,0,-1,1,No,6.7,-1,Hit,0.470626513008,True,False,stimulusJOSU26_2IFCnew_2019_Jun_12_0837_591,stimulusJOSU26_2IFCnew_2019_Jun_12_0837_592,True,2019_Jun_12_0837,2IFCnew,2,JOSU26,
2IFCnew,71,0,71,0,-1,1,No,7.6,-1,Hit,0.5941583924,True,False,stimulusJOSU26_2IFCnew_2019_Jun_12_0837_593,stimulusJOSU26_2IFCnew_2019_Jun_12_0837_594,True,2019_Jun_12_0837,2IFCnew,2,JOSU26,
2IFCnew,72,0,72,0,-1,1,No,4,-1,Hit,0.737928653602,True,False,stimulusJOSU26_2IFCnew_2019_Jun_12_0837_595,stimulusJOSU26_2IFCnew_2019_Jun_12_0837_596,True,2019_Jun_12_0837,2IFCnew,2,JOSU26,
2IFCnew,73,0,73,0,-1,3,No,5,-1,Correct Rejection,0.568471217062,False,True,stimulusJOSU26_2IFCnew_2019_Jun_12_0837_597,stimulusJOSU26_2IFCnew_2019_Jun_12_0837_598,True,2019_Jun_12_0837,2IFCnew,2,JOSU26,
2IFCnew,74,0,74,0,-1,3,No,1.5,-1,Correct Rejection,0.601616820786,False,True,stimulusJOSU26_2IFCnew_2019_Jun_12_0837_599,stimulusJOSU26_2IFCnew_2019_Jun_12_0837_600,True,2019_Jun_12_0837,2IFCnew,2,JOSU26,
2IFCnew,0,0,0,0,-1,0,No,4,-1,No Answer,-1,True,False,stimulusJOSU26_2IFCnew_2019_Jun_12_0837_601,stimulusJOSU26_2IFCnew_2019_Jun_12_0837_602,True,2019_Jun_12_0837,2IFCnew,2,JOSU26,
2IFCnew,1,0,1,0,-1,3,No,5.8,-1,Correct Rejection,0.53580143908,False,True,stimulusJOSU26_2IFCnew_2019_Jun_12_0837_603,stimulusJOSU26_2IFCnew_2019_Jun_12_0837_604,True,2019_Jun_12_0837,2IFCnew,2,JOSU26,
2IFCnew,2,0,2,0,-1,3,No,5,-1,Correct Rejection,0.501373283565,False,True,stimulusJOSU26_2IFCnew_2019_Jun_12_0837_605,stimulusJOSU26_2IFCnew_2019_Jun_12_0837_606,True,2019_Jun_12_0837,2IFCnew,2,JOSU26,
2IFCnew,3,0,3,0,-1,3,No,5,-1,Correct Rejection,0.567571706139,False,True,stimulusJOSU26_2IFCnew_2019_Jun_12_0837_607,stimulusJOSU26_2IFCnew_2019_Jun_12_0837_608,True,2019_Jun_12_0837,2IFCnew,2,JOSU26,
2IFCnew,4,0,4,0,-1,3,No,6.7,-1,Correct Rejection,0.634202025831,False,True,stimulusJOSU26_2IFCnew_2019_Jun_12_0837_609,stimulusJOSU26_2IFCnew_2019_Jun_12_0837_610,True,2019_Jun_12_0837,2IFCnew,2,JOSU26,
2IFCnew,5,0,5,0,-1,4,No,5.8,-1,Miss,0.567066321615,True,False,stimulusJOSU26_2IFCnew_2019_Jun_12_0837_611,stimulusJOSU26_2IFCnew_2019_Jun_12_0837_612,True,2019_Jun_12_0837,2IFCnew,2,JOSU26,
2IFCnew,6,0,6,0,-1,1,No,8.7,-1,Hit,0.512720423285,True,False,stimulusJOSU26_2IFCnew_2019_Jun_12_0837_613,stimulusJOSU26_2IFCnew_2019_Jun_12_0837_614,True,2019_Jun_12_0837,2IFCnew,2,JOSU26,
2IFCnew,7,0,7,0,-1,2,No,1.5,-1,False Alarm,0.534571437165,False,True,stimulusJOSU26_2IFCnew_2019_Jun_12_0837_615,stimulusJOSU26_2IFCnew_2019_Jun_12_0837_616,True,2019_Jun_12_0837,2IFCnew,2,JOSU26,
2IFCnew,8,0,8,0,-1,3,No,6.7,-1,Correct Rejection,0.604724669829,False,True,stimulusJOSU26_2IFCnew_2019_Jun_12_0837_617,stimulusJOSU26_2IFCnew_2019_Jun_12_0837_618,True,2019_Jun_12_0837,2IFCnew,2,JOSU26,
2IFCnew,9,0,9,0,-1,1,No,7.6,-1,Hit,0.53390019061,True,False,stimulusJOSU26_2IFCnew_2019_Jun_12_0837_619,stimulusJOSU26_2IFCnew_2019_Jun_12_0837_620,True,2019_Jun_12_0837,2IFCnew,2,JOSU26,
2IFCnew,10,0,10,0,-1,3,No,1.5,-1,Correct Rejection,0.466352296527,False,True,stimulusJOSU26_2IFCnew_2019_Jun_12_0837_621,stimulusJOSU26_2IFCnew_2019_Jun_12_0837_622,True,2019_Jun_12_0837,2IFCnew,2,JOSU26,
2IFCnew,11,0,11,0,-1,4,No,3,-1,Miss,0.500379346777,True,False,stimulusJOSU26_2IFCnew_2019_Jun_12_0837_623,stimulusJOSU26_2IFCnew_2019_Jun_12_0837_624,True,2019_Jun_12_0837,2IFCnew,2,JOSU26,
2IFCnew,12,0,12,0,-1,1,No,5,-1,Hit,0.671793044079,True,False,stimulusJOSU26_2IFCnew_2019_Jun_12_0837_625,stimulusJOSU26_2IFCnew_2019_Jun_12_0837_626,True,2019_Jun_12_0837,2IFCnew,2,JOSU26,
2IFCnew,13,0,13,0,-1,2,No,4,-1,False Alarm,0.724621967413,False,True,stimulusJOSU26_2IFCnew_2019_Jun_12_0837_627,stimulusJOSU26_2IFCnew_2019_Jun_12_0837_628,True,2019_Jun_12_0837,2IFCnew,2,JOSU26,
2IFCnew,14,0,14,0,-1,3,No,1.5,-1,Correct Rejection,0.804539266508,False,True,stimulusJOSU26_2IFCnew_2019_Jun_12_0837_629,stimulusJOSU26_2IFCnew_2019_Jun_12_0837_630,True,2019_Jun_12_0837,2IFCnew,2,JOSU26,
2IFCnew,15,0,15,0,-1,2,No,6.7,-1,False Alarm,0.636054829229,False,True,stimulusJOSU26_2IFCnew_2019_Jun_12_0837_631,stimulusJOSU26_2IFCnew_2019_Jun_12_0837_632,True,2019_Jun_12_0837,2IFCnew,2,JOSU26,
2IFCnew,16,0,16,0,-1,1,No,5,-1,Hit,0.725181954913,True,False,stimulusJOSU26_2IFCnew_2019_Jun_12_0837_633,stimulusJOSU26_2IFCnew_2019_Jun_12_0837_634,True,2019_Jun_12_0837,2IFCnew,2,JOSU26,
2IFCnew,17,0,17,0,-1,4,No,5.8,-1,Miss,0.802867924795,True,False,stimulusJOSU26_2IFCnew_2019_Jun_12_0837_635,stimulusJOSU26_2IFCnew_2019_Jun_12_0837_636,True,2019_Jun_12_0837,2IFCnew,2,JOSU26,
2IFCnew,18,0,18,0,-1,0,No,8.7,-1,No Answer,-1,True,False,stimulusJOSU26_2IFCnew_2019_Jun_12_0837_637,stimulusJOSU26_2IFCnew_2019_Jun_12_0837_638,True,2019_Jun_12_0837,2IFCnew,2,JOSU26,
2IFCnew,19,0,19,0,-1,1,No,5.8,-1,Hit,0.633169907611,True,False,stimulusJOSU26_2IFCnew_2019_Jun_12_0837_639,stimulusJOSU26_2IFCnew_2019_Jun_12_0837_640,True,2019_Jun_12_0837,2IFCnew,2,JOSU26,
2IFCnew,20,0,20,0,-1,1,No,8.7,-1,Hit,0.53343257634,True,False,stimulusJOSU26_2IFCnew_2019_Jun_12_0837_641,stimulusJOSU26_2IFCnew_2019_Jun_12_0837_642,True,2019_Jun_12_0837,2IFCnew,2,JOSU26,
2IFCnew,21,0,21,0,-1,3,No,4,-1,Correct Rejection,0.534754130989,False,True,stimulusJOSU26_2IFCnew_2019_Jun_12_0837_643,stimulusJOSU26_2IFCnew_2019_Jun_12_0837_644,True,2019_Jun_12_0837,2IFCnew,2,JOSU26,
2IFCnew,22,0,22,0,-1,1,No,1.5,-1,Hit,0.602233463898,True,False,stimulusJOSU26_2IFCnew_2019_Jun_12_0837_645,stimulusJOSU26_2IFCnew_2019_Jun_12_0837_646,True,2019_Jun_12_0837,2IFCnew,2,JOSU26,
2IFCnew,23,0,23,0,-1,1,No,4,-1,Hit,0.733293154277,True,False,stimulusJOSU26_2IFCnew_2019_Jun_12_0837_647,stimulusJOSU26_2IFCnew_2019_Jun_12_0837_648,True,2019_Jun_12_0837,2IFCnew,2,JOSU26,
2IFCnew,24,0,24,0,-1,1,No,4,-1,Hit,0.764553931076,True,False,stimulusJOSU26_2IFCnew_2019_Jun_12_0837_649,stimulusJOSU26_2IFCnew_2019_Jun_12_0837_650,True,2019_Jun_12_0837,2IFCnew,2,JOSU26,
2IFCnew,25,0,25,0,0.401917998679,5,Yes,7.6,-1,False Alarm,0.569694240112,False,True,stimulusJOSU26_2IFCnew_2019_Jun_12_0837_651,stimulusJOSU26_2IFCnew_2019_Jun_12_0837_652,True,2019_Jun_12_0837,2IFCnew,2,JOSU26,
2IFCnew,26,0,26,0,-1,1,Yes,5,-1,Hit,0.597699370701,True,False,stimulusJOSU26_2IFCnew_2019_Jun_12_0837_653,stimulusJOSU26_2IFCnew_2019_Jun_12_0837_654,True,2019_Jun_12_0837,2IFCnew,2,JOSU26,
2IFCnew,27,0,27,0,-1,1,Yes,8.7,-1,Hit,0.432581427973,True,False,stimulusJOSU26_2IFCnew_2019_Jun_12_0837_655,stimulusJOSU26_2IFCnew_2019_Jun_12_0837_656,True,2019_Jun_12_0837,2IFCnew,2,JOSU26,
2IFCnew,28,0,28,0,-1,2,Yes,3,-1,False Alarm,0.727352112532,False,True,stimulusJOSU26_2IFCnew_2019_Jun_12_0837_657,stimulusJOSU26_2IFCnew_2019_Jun_12_0837_658,True,2019_Jun_12_0837,2IFCnew,2,JOSU26,
2IFCnew,29,0,29,0,-1,3,Yes,3,-1,Correct Rejection,0.600461127702,False,True,stimulusJOSU26_2IFCnew_2019_Jun_12_0837_659,stimulusJOSU26_2IFCnew_2019_Jun_12_0837_660,True,2019_Jun_12_0837,2IFCnew,2,JOSU26,
2IFCnew,30,0,30,0,0.402329778764,6,No,3,-1,Miss,0.568699071649,True,False,stimulusJOSU26_2IFCnew_2019_Jun_12_0837_661,stimulusJOSU26_2IFCnew_2019_Jun_12_0837_662,True,2019_Jun_12_0837,2IFCnew,2,JOSU26,
2IFCnew,31,0,31,0,-1,3,No,6.7,-1,Correct Rejection,0.703030420002,False,True,stimulusJOSU26_2IFCnew_2019_Jun_12_0837_663,stimulusJOSU26_2IFCnew_2019_Jun_12_0837_664,True,2019_Jun_12_0837,2IFCnew,2,JOSU26,
2IFCnew,32,0,32,0,-1,4,No,1.5,-1,Miss,0.567448952701,True,False,stimulusJOSU26_2IFCnew_2019_Jun_12_0837_665,stimulusJOSU26_2IFCnew_2019_Jun_12_0837_666,True,2019_Jun_12_0837,2IFCnew,2,JOSU26,
2IFCnew,33,0,33,0,-1,2,No,5.8,-1,False Alarm,0.735651342664,False,True,stimulusJOSU26_2IFCnew_2019_Jun_12_0837_667,stimulusJOSU26_2IFCnew_2019_Jun_12_0837_668,True,2019_Jun_12_0837,2IFCnew,2,JOSU26,
2IFCnew,34,0,34,0,-1,2,No,4,-1,False Alarm,0.566500586458,False,True,stimulusJOSU26_2IFCnew_2019_Jun_12_0837_669,stimulusJOSU26_2IFCnew_2019_Jun_12_0837_670,True,2019_Jun_12_0837,2IFCnew,2,JOSU26,
2IFCnew,35,0,35,0,-1,1,No,3,-1,Hit,0.601050674915,True,False,stimulusJOSU26_2IFCnew_2019_Jun_12_0837_671,stimulusJOSU26_2IFCnew_2019_Jun_12_0837_672,True,2019_Jun_12_0837,2IFCnew,2,JOSU26,
2IFCnew,36,0,36,0,-1,2,No,4,-1,False Alarm,0.866925339215,False,True,stimulusJOSU26_2IFCnew_2019_Jun_12_0837_673,stimulusJOSU26_2IFCnew_2019_Jun_12_0837_674,True,2019_Jun_12_0837,2IFCnew,2,JOSU26,
2IFCnew,37,0,37,0,-1,3,No,3,-1,Correct Rejection,0.499715900514,False,True,stimulusJOSU26_2IFCnew_2019_Jun_12_0837_675,stimulusJOSU26_2IFCnew_2019_Jun_12_0837_676,True,2019_Jun_12_0837,2IFCnew,2,JOSU26,
2IFCnew,38,0,38,0,-1,2,No,7.6,-1,False Alarm,0.633120642044,False,True,stimulusJOSU26_2IFCnew_2019_Jun_12_0837_677,stimulusJOSU26_2IFCnew_2019_Jun_12_0837_678,True,2019_Jun_12_0837,2IFCnew,2,JOSU26,
2IFCnew,39,0,39,0,-1,0,No,8.7,-1,No Answer,-1,False,True,stimulusJOSU26_2IFCnew_2019_Jun_12_0837_679,stimulusJOSU26_2IFCnew_2019_Jun_12_0837_680,True,2019_Jun_12_0837,2IFCnew,2,JOSU26,
2IFCnew,40,0,40,0,-1,3,No,7.6,-1,Correct Rejection,0.634399089031,False,True,stimulusJOSU26_2IFCnew_2019_Jun_12_0837_681,stimulusJOSU26_2IFCnew_2019_Jun_12_0837_682,True,2019_Jun_12_0837,2IFCnew,2,JOSU26,
2IFCnew,41,0,41,0,-1,3,No,6.7,-1,Correct Rejection,0.668427370954,False,True,stimulusJOSU26_2IFCnew_2019_Jun_12_0837_683,stimulusJOSU26_2IFCnew_2019_Jun_12_0837_684,True,2019_Jun_12_0837,2IFCnew,2,JOSU26,
2IFCnew,42,0,42,0,-1,1,No,7.6,-1,Hit,0.499830854125,True,False,stimulusJOSU26_2IFCnew_2019_Jun_12_0837_685,stimulusJOSU26_2IFCnew_2019_Jun_12_0837_686,True,2019_Jun_12_0837,2IFCnew,2,JOSU26,
2IFCnew,43,0,43,0,-1,1,No,6.7,-1,Hit,0.499417432118,True,False,stimulusJOSU26_2IFCnew_2019_Jun_12_0837_687,stimulusJOSU26_2IFCnew_2019_Jun_12_0837_688,True,2019_Jun_12_0837,2IFCnew,2,JOSU26,
2IFCnew,44,0,44,0,-1,3,No,8.7,-1,Correct Rejection,0.52487757476,False,True,stimulusJOSU26_2IFCnew_2019_Jun_12_0837_689,stimulusJOSU26_2IFCnew_2019_Jun_12_0837_690,True,2019_Jun_12_0837,2IFCnew,2,JOSU26,
2IFCnew,45,0,45,0,-1,4,No,5,-1,Miss,0.535047262441,True,False,stimulusJOSU26_2IFCnew_2019_Jun_12_0837_691,stimulusJOSU26_2IFCnew_2019_Jun_12_0837_692,True,2019_Jun_12_0837,2IFCnew,2,JOSU26,
2IFCnew,46,0,46,0,-1,3,No,5.8,-1,Correct Rejection,0.503872700501,False,True,stimulusJOSU26_2IFCnew_2019_Jun_12_0837_693,stimulusJOSU26_2IFCnew_2019_Jun_12_0837_694,True,2019_Jun_12_0837,2IFCnew,2,JOSU26,
2IFCnew,47,0,47,0,-1,1,No,7.6,-1,Hit,0.535764900502,True,False,stimulusJOSU26_2IFCnew_2019_Jun_12_0837_695,stimulusJOSU26_2IFCnew_2019_Jun_12_0837_696,True,2019_Jun_12_0837,2IFCnew,2,JOSU26,
2IFCnew,48,0,48,0,-1,3,No,5,-1,Correct Rejection,0.535908591934,False,True,stimulusJOSU26_2IFCnew_2019_Jun_12_0837_697,stimulusJOSU26_2IFCnew_2019_Jun_12_0837_698,True,2019_Jun_12_0837,2IFCnew,2,JOSU26,
2IFCnew,49,0,49,0,-1,1,No,6.7,-1,Hit,0.568674849346,True,False,stimulusJOSU26_2IFCnew_2019_Jun_12_0837_699,stimulusJOSU26_2IFCnew_2019_Jun_12_0837_700,True,2019_Jun_12_0837,2IFCnew,2,JOSU26,
2IFCnew,50,0,50,0,-1,1,No,7.6,-1,Hit,0.467031342909,True,False,stimulusJOSU26_2IFCnew_2019_Jun_12_0837_701,stimulusJOSU26_2IFCnew_2019_Jun_12_0837_702,True,2019_Jun_12_0837,2IFCnew,2,JOSU26,
2IFCnew,51,0,51,0,-1,3,No,3,-1,Correct Rejection,0.604446318466,False,True,stimulusJOSU26_2IFCnew_2019_Jun_12_0837_703,stimulusJOSU26_2IFCnew_2019_Jun_12_0837_704,True,2019_Jun_12_0837,2IFCnew,2,JOSU26,
2IFCnew,52,0,52,0,0.40015551541,6,No,6.7,-1,Miss,0.500133017544,True,False,stimulusJOSU26_2IFCnew_2019_Jun_12_0837_705,stimulusJOSU26_2IFCnew_2019_Jun_12_0837_706,True,2019_Jun_12_0837,2IFCnew,2,JOSU26,
2IFCnew,53,0,53,0,-1,1,No,7.6,-1,Hit,0.466196287889,True,False,stimulusJOSU26_2IFCnew_2019_Jun_12_0837_707,stimulusJOSU26_2IFCnew_2019_Jun_12_0837_708,True,2019_Jun_12_0837,2IFCnew,2,JOSU26,
2IFCnew,54,0,54,0,-1,3,No,5,-1,Correct Rejection,0.471686137374,False,True,stimulusJOSU26_2IFCnew_2019_Jun_12_0837_709,stimulusJOSU26_2IFCnew_2019_Jun_12_0837_710,True,2019_Jun_12_0837,2IFCnew,2,JOSU26,
2IFCnew,55,0,55,0,-1,3,No,7.6,-1,Correct Rejection,0.569725442212,False,True,stimulusJOSU26_2IFCnew_2019_Jun_12_0837_711,stimulusJOSU26_2IFCnew_2019_Jun_12_0837_712,True,2019_Jun_12_0837,2IFCnew,2,JOSU26,
2IFCnew,56,0,56,0,-1,3,No,4,-1,Correct Rejection,0.438595958054,False,True,stimulusJOSU26_2IFCnew_2019_Jun_12_0837_713,stimulusJOSU26_2IFCnew_2019_Jun_12_0837_714,True,2019_Jun_12_0837,2IFCnew,2,JOSU26,
2IFCnew,57,0,57,0,-1,1,No,5.8,-1,Hit,0.433528151829,True,False,stimulusJOSU26_2IFCnew_2019_Jun_12_0837_715,stimulusJOSU26_2IFCnew_2019_Jun_12_0837_716,True,2019_Jun_12_0837,2IFCnew,2,JOSU26,
2IFCnew,58,0,58,0,-1,3,No,5,-1,Correct Rejection,0.4687683722,False,True,stimulusJOSU26_2IFCnew_2019_Jun_12_0837_717,stimulusJOSU26_2IFCnew_2019_Jun_12_0837_718,True,2019_Jun_12_0837,2IFCnew,2,JOSU26,
2IFCnew,59,0,59,0,-1,3,No,1.5,-1,Correct Rejection,0.500848192256,False,True,stimulusJOSU26_2IFCnew_2019_Jun_12_0837_719,stimulusJOSU26_2IFCnew_2019_Jun_12_0837_720,True,2019_Jun_12_0837,2IFCnew,2,JOSU26,
2IFCnew,60,0,60,0,0.264622082468,6,No,5.8,-1,Miss,0.499591504689,True,False,stimulusJOSU26_2IFCnew_2019_Jun_12_0837_721,stimulusJOSU26_2IFCnew_2019_Jun_12_0837_722,True,2019_Jun_12_0837,2IFCnew,2,JOSU26,
2IFCnew,61,0,61,0,0.434366901871,6,No,4,-1,Miss,0.46641387837,True,False,stimulusJOSU26_2IFCnew_2019_Jun_12_0837_723,stimulusJOSU26_2IFCnew_2019_Jun_12_0837_724,True,2019_Jun_12_0837,2IFCnew,2,JOSU26,
2IFCnew,62,0,62,0,-1,0,No,3,-1,No Answer,-1,False,True,stimulusJOSU26_2IFCnew_2019_Jun_12_0837_725,stimulusJOSU26_2IFCnew_2019_Jun_12_0837_726,True,2019_Jun_12_0837,2IFCnew,2,JOSU26,
2IFCnew,63,0,63,0,-1,1,No,5.8,-1,Hit,0.533679726534,True,False,stimulusJOSU26_2IFCnew_2019_Jun_12_0837_727,stimulusJOSU26_2IFCnew_2019_Jun_12_0837_728,True,2019_Jun_12_0837,2IFCnew,2,JOSU26,
2IFCnew,64,0,64,0,-1,1,No,1.5,-1,Hit,0.603888383135,True,False,stimulusJOSU26_2IFCnew_2019_Jun_12_0837_729,stimulusJOSU26_2IFCnew_2019_Jun_12_0837_730,True,2019_Jun_12_0837,2IFCnew,2,JOSU26,
2IFCnew,65,0,65,0,-1,3,No,4,-1,Correct Rejection,0.510356487241,False,True,stimulusJOSU26_2IFCnew_2019_Jun_12_0837_731,stimulusJOSU26_2IFCnew_2019_Jun_12_0837_732,True,2019_Jun_12_0837,2IFCnew,2,JOSU26,
2IFCnew,66,0,66,0,-1,1,No,5.8,-1,Hit,0.570324841887,True,False,stimulusJOSU26_2IFCnew_2019_Jun_12_0837_733,stimulusJOSU26_2IFCnew_2019_Jun_12_0837_734,True,2019_Jun_12_0837,2IFCnew,2,JOSU26,
2IFCnew,67,0,67,0,-1,3,No,5.8,-1,Correct Rejection,0.467656197492,False,True,stimulusJOSU26_2IFCnew_2019_Jun_12_0837_735,stimulusJOSU26_2IFCnew_2019_Jun_12_0837_736,True,2019_Jun_12_0837,2IFCnew,2,JOSU26,
2IFCnew,68,0,68,0,-1,3,No,1.5,-1,Correct Rejection,0.466428658459,False,True,stimulusJOSU26_2IFCnew_2019_Jun_12_0837_737,stimulusJOSU26_2IFCnew_2019_Jun_12_0837_738,True,2019_Jun_12_0837,2IFCnew,2,JOSU26,
2IFCnew,69,0,69,0,-1,3,No,6.7,-1,Correct Rejection,0.465489734896,False,True,stimulusJOSU26_2IFCnew_2019_Jun_12_0837_739,stimulusJOSU26_2IFCnew_2019_Jun_12_0837_740,True,2019_Jun_12_0837,2IFCnew,2,JOSU26,
2IFCnew,70,0,70,0,-1,3,No,4,-1,Correct Rejection,0.533660020214,False,True,stimulusJOSU26_2IFCnew_2019_Jun_12_0837_741,stimulusJOSU26_2IFCnew_2019_Jun_12_0837_742,True,2019_Jun_12_0837,2IFCnew,2,JOSU26,
2IFCnew,71,0,71,0,-1,4,No,5.8,-1,Miss,0.46889482066,True,False,stimulusJOSU26_2IFCnew_2019_Jun_12_0837_743,stimulusJOSU26_2IFCnew_2019_Jun_12_0837_744,True,2019_Jun_12_0837,2IFCnew,2,JOSU26,
2IFCnew,72,0,72,0,-1,1,No,7.6,-1,Hit,0.900519261137,True,False,stimulusJOSU26_2IFCnew_2019_Jun_12_0837_745,stimulusJOSU26_2IFCnew_2019_Jun_12_0837_746,True,2019_Jun_12_0837,2IFCnew,2,JOSU26,
2IFCnew,73,0,73,0,-1,3,No,5.8,-1,Correct Rejection,0.501965293661,False,True,stimulusJOSU26_2IFCnew_2019_Jun_12_0837_747,stimulusJOSU26_2IFCnew_2019_Jun_12_0837_748,True,2019_Jun_12_0837,2IFCnew,2,JOSU26,
2IFCnew,74,0,74,0,-1,1,No,5,-1,Hit,0.543372767977,True,False,stimulusJOSU26_2IFCnew_2019_Jun_12_0837_749,stimulusJOSU26_2IFCnew_2019_Jun_12_0837_750,True,2019_Jun_12_0837,2IFCnew,2,JOSU26,
2IFCnew,0,0,0,0,-1,4,No,5.8,-1,Miss,0.567509303335,True,False,stimulusJOSU26_2IFCnew_2019_Jun_12_0837_751,stimulusJOSU26_2IFCnew_2019_Jun_12_0837_752,True,2019_Jun_12_0837,2IFCnew,2,JOSU26,
2IFCnew,1,0,1,0,-1,1,No,5,-1,Hit,0.562812632415,True,False,stimulusJOSU26_2IFCnew_2019_Jun_12_0837_753,stimulusJOSU26_2IFCnew_2019_Jun_12_0837_754,True,2019_Jun_12_0837,2IFCnew,2,JOSU26,
2IFCnew,2,0,2,0,-1,3,No,8.7,-1,Correct Rejection,0.434083623812,False,True,stimulusJOSU26_2IFCnew_2019_Jun_12_0837_755,stimulusJOSU26_2IFCnew_2019_Jun_12_0837_756,True,2019_Jun_12_0837,2IFCnew,2,JOSU26,
2IFCnew,3,0,3,0,-1,1,No,6.7,-1,Hit,0.500897458289,True,False,stimulusJOSU26_2IFCnew_2019_Jun_12_0837_757,stimulusJOSU26_2IFCnew_2019_Jun_12_0837_758,True,2019_Jun_12_0837,2IFCnew,2,JOSU26,
2IFCnew,4,0,4,0,-1,4,No,4,-1,Miss,0.668948766775,True,False,stimulusJOSU26_2IFCnew_2019_Jun_12_0837_759,stimulusJOSU26_2IFCnew_2019_Jun_12_0837_760,True,2019_Jun_12_0837,2IFCnew,2,JOSU26,
2IFCnew,5,0,5,0,-1,2,No,1.5,-1,False Alarm,0.665897572879,False,True,stimulusJOSU26_2IFCnew_2019_Jun_12_0837_761,stimulusJOSU26_2IFCnew_2019_Jun_12_0837_762,True,2019_Jun_12_0837,2IFCnew,2,JOSU26,
2IFCnew,6,0,6,0,-1,3,No,4,-1,Correct Rejection,0.701191985514,False,True,stimulusJOSU26_2IFCnew_2019_Jun_12_0837_763,stimulusJOSU26_2IFCnew_2019_Jun_12_0837_764,True,2019_Jun_12_0837,2IFCnew,2,JOSU26,
2IFCnew,7,0,7,0,0.433457127307,8,No,6.7,-1,Correct Rejection,0.534530792385,False,True,stimulusJOSU26_2IFCnew_2019_Jun_12_0837_765,stimulusJOSU26_2IFCnew_2019_Jun_12_0837_766,True,2019_Jun_12_0837,2IFCnew,2,JOSU26,
2IFCnew,8,0,8,0,-1,3,No,3,-1,Correct Rejection,0.568053279538,False,True,stimulusJOSU26_2IFCnew_2019_Jun_12_0837_767,stimulusJOSU26_2IFCnew_2019_Jun_12_0837_768,True,2019_Jun_12_0837,2IFCnew,2,JOSU26,
2IFCnew,9,0,9,0,-1,3,No,6.7,-1,Correct Rejection,0.569591192529,False,True,stimulusJOSU26_2IFCnew_2019_Jun_12_0837_769,stimulusJOSU26_2IFCnew_2019_Jun_12_0837_770,True,2019_Jun_12_0837,2IFCnew,2,JOSU26,
2IFCnew,10,0,10,0,-1,1,No,7.6,-1,Hit,0.535869179759,True,False,stimulusJOSU26_2IFCnew_2019_Jun_12_0837_771,stimulusJOSU26_2IFCnew_2019_Jun_12_0837_772,True,2019_Jun_12_0837,2IFCnew,2,JOSU26,
2IFCnew,11,0,11,0,-1,1,No,5.8,-1,Hit,0.594005258288,True,False,stimulusJOSU26_2IFCnew_2019_Jun_12_0837_773,stimulusJOSU26_2IFCnew_2019_Jun_12_0837_774,True,2019_Jun_12_0837,2IFCnew,2,JOSU26,
2IFCnew,12,0,12,0,-1,2,No,6.7,-1,False Alarm,0.603236022405,False,True,stimulusJOSU26_2IFCnew_2019_Jun_12_0837_775,stimulusJOSU26_2IFCnew_2019_Jun_12_0837_776,True,2019_Jun_12_0837,2IFCnew,2,JOSU26,
2IFCnew,13,0,13,0,-1,3,No,5,-1,Correct Rejection,0.736782402731,False,True,stimulusJOSU26_2IFCnew_2019_Jun_12_0837_777,stimulusJOSU26_2IFCnew_2019_Jun_12_0837_778,True,2019_Jun_12_0837,2IFCnew,2,JOSU26,
2IFCnew,14,0,14,0,-1,0,No,5,-1,No Answer,-1,True,False,stimulusJOSU26_2IFCnew_2019_Jun_12_0837_779,stimulusJOSU26_2IFCnew_2019_Jun_12_0837_780,True,2019_Jun_12_0837,2IFCnew,2,JOSU26,
2IFCnew,15,0,15,0,-1,4,No,3,-1,Miss,0.501297331881,True,False,stimulusJOSU26_2IFCnew_2019_Jun_12_0837_781,stimulusJOSU26_2IFCnew_2019_Jun_12_0837_782,True,2019_Jun_12_0837,2IFCnew,2,JOSU26,
2IFCnew,16,0,16,0,-1,1,No,8.7,-1,Hit,0.565779663622,True,False,stimulusJOSU26_2IFCnew_2019_Jun_12_0837_783,stimulusJOSU26_2IFCnew_2019_Jun_12_0837_784,True,2019_Jun_12_0837,2IFCnew,2,JOSU26,
2IFCnew,17,0,17,0,-1,1,No,1.5,-1,Hit,0.657956751529,True,False,stimulusJOSU26_2IFCnew_2019_Jun_12_0837_785,stimulusJOSU26_2IFCnew_2019_Jun_12_0837_786,True,2019_Jun_12_0837,2IFCnew,2,JOSU26,
2IFCnew,18,0,18,0,-1,1,No,3,-1,Hit,0.559418631252,True,False,stimulusJOSU26_2IFCnew_2019_Jun_12_0837_787,stimulusJOSU26_2IFCnew_2019_Jun_12_0837_788,True,2019_Jun_12_0837,2IFCnew,2,JOSU26,
2IFCnew,19,0,19,0,-1,2,No,5,-1,False Alarm,0.604116237257,False,True,stimulusJOSU26_2IFCnew_2019_Jun_12_0837_789,stimulusJOSU26_2IFCnew_2019_Jun_12_0837_790,True,2019_Jun_12_0837,2IFCnew,2,JOSU26,
2IFCnew,20,0,20,0,-1,3,No,1.5,-1,Correct Rejection,0.63403411163,False,True,stimulusJOSU26_2IFCnew_2019_Jun_12_0837_791,stimulusJOSU26_2IFCnew_2019_Jun_12_0837_792,True,2019_Jun_12_0837,2IFCnew,2,JOSU26,
2IFCnew,21,0,21,0,-1,4,No,1.5,-1,Miss,0.668437634595,True,False,stimulusJOSU26_2IFCnew_2019_Jun_12_0837_793,stimulusJOSU26_2IFCnew_2019_Jun_12_0837_794,True,2019_Jun_12_0837,2IFCnew,2,JOSU26,
2IFCnew,22,0,22,0,-1,3,No,7.6,-1,Correct Rejection,0.632647690363,False,True,stimulusJOSU26_2IFCnew_2019_Jun_12_0837_795,stimulusJOSU26_2IFCnew_2019_Jun_12_0837_796,True,2019_Jun_12_0837,2IFCnew,2,JOSU26,
2IFCnew,23,0,23,0,-1,3,No,6.7,-1,Correct Rejection,0.431816987228,False,True,stimulusJOSU26_2IFCnew_2019_Jun_12_0837_797,stimulusJOSU26_2IFCnew_2019_Jun_12_0837_798,True,2019_Jun_12_0837,2IFCnew,2,JOSU26,
2IFCnew,24,0,24,0,-1,1,No,5,-1,Hit,0.502909143921,True,False,stimulusJOSU26_2IFCnew_2019_Jun_12_0837_799,stimulusJOSU26_2IFCnew_2019_Jun_12_0837_800,True,2019_Jun_12_0837,2IFCnew,2,JOSU26,
2IFCnew,25,0,25,0,-1,1,No,6.7,-1,Hit,0.467018205207,True,False,stimulusJOSU26_2IFCnew_2019_Jun_12_0837_801,stimulusJOSU26_2IFCnew_2019_Jun_12_0837_802,True,2019_Jun_12_0837,2IFCnew,2,JOSU26,
2IFCnew,26,0,26,0,-1,1,No,4,-1,Hit,0.594511464238,True,False,stimulusJOSU26_2IFCnew_2019_Jun_12_0837_803,stimulusJOSU26_2IFCnew_2019_Jun_12_0837_804,True,2019_Jun_12_0837,2IFCnew,2,JOSU26,
2IFCnew,27,0,27,0,0.569685208146,5,Yes,8.7,-1,False Alarm,0.600192628801,False,True,stimulusJOSU26_2IFCnew_2019_Jun_12_0837_805,stimulusJOSU26_2IFCnew_2019_Jun_12_0837_806,True,2019_Jun_12_0837,2IFCnew,2,JOSU26,
2IFCnew,28,0,28,0,-1,2,Yes,8.7,-1,False Alarm,0.601716173347,False,True,stimulusJOSU26_2IFCnew_2019_Jun_12_0837_807,stimulusJOSU26_2IFCnew_2019_Jun_12_0837_808,True,2019_Jun_12_0837,2IFCnew,2,JOSU26,
2IFCnew,29,0,29,0,-1,1,Yes,5,-1,Hit,0.567889059894,True,False,stimulusJOSU26_2IFCnew_2019_Jun_12_0837_809,stimulusJOSU26_2IFCnew_2019_Jun_12_0837_810,True,2019_Jun_12_0837,2IFCnew,2,JOSU26,
2IFCnew,30,0,30,0,-1,1,Yes,6.7,-1,Hit,0.464872680604,True,False,stimulusJOSU26_2IFCnew_2019_Jun_12_0837_811,stimulusJOSU26_2IFCnew_2019_Jun_12_0837_812,True,2019_Jun_12_0837,2IFCnew,2,JOSU26,
2IFCnew,31,0,31,0,-1,4,Yes,1.5,-1,Miss,0.499577135313,True,False,stimulusJOSU26_2IFCnew_2019_Jun_12_0837_813,stimulusJOSU26_2IFCnew_2019_Jun_12_0837_814,True,2019_Jun_12_0837,2IFCnew,2,JOSU26,
2IFCnew,32,0,32,0,-1,1,Yes,5.8,-1,Hit,0.534844040871,True,False,stimulusJOSU26_2IFCnew_2019_Jun_12_0837_815,stimulusJOSU26_2IFCnew_2019_Jun_12_0837_816,True,2019_Jun_12_0837,2IFCnew,2,JOSU26,
2IFCnew,33,0,33,0,-1,3,Yes,1.5,-1,Correct Rejection,0.634440554306,False,True,stimulusJOSU26_2IFCnew_2019_Jun_12_0837_817,stimulusJOSU26_2IFCnew_2019_Jun_12_0837_818,True,2019_Jun_12_0837,2IFCnew,2,JOSU26,
2IFCnew,34,0,34,0,-1,1,Yes,8.7,-1,Hit,0.500515237916,True,False,stimulusJOSU26_2IFCnew_2019_Jun_12_0837_819,stimulusJOSU26_2IFCnew_2019_Jun_12_0837_820,True,2019_Jun_12_0837,2IFCnew,2,JOSU26,
2IFCnew,35,0,35,0,-1,1,Yes,7.6,-1,Hit,0.596918507945,True,False,stimulusJOSU26_2IFCnew_2019_Jun_12_0837_821,stimulusJOSU26_2IFCnew_2019_Jun_12_0837_822,True,2019_Jun_12_0837,2IFCnew,2,JOSU26,
2IFCnew,36,0,36,0,-1,1,Yes,1.5,-1,Hit,0.669273510575,True,False,stimulusJOSU26_2IFCnew_2019_Jun_12_0837_823,stimulusJOSU26_2IFCnew_2019_Jun_12_0837_824,True,2019_Jun_12_0837,2IFCnew,2,JOSU26,
2IFCnew,37,0,37,0,-1,1,Yes,6.7,-1,Hit,0.539803462569,True,False,stimulusJOSU26_2IFCnew_2019_Jun_12_0837_825,stimulusJOSU26_2IFCnew_2019_Jun_12_0837_826,True,2019_Jun_12_0837,2IFCnew,2,JOSU26,
2IFCnew,38,0,38,0,-1,3,Yes,4,-1,Correct Rejection,0.5581130879,False,True,stimulusJOSU26_2IFCnew_2019_Jun_12_0837_827,stimulusJOSU26_2IFCnew_2019_Jun_12_0837_828,True,2019_Jun_12_0837,2IFCnew,2,JOSU26,
2IFCnew,39,0,39,0,-1,1,Yes,3,-1,Hit,0.666174693033,True,False,stimulusJOSU26_2IFCnew_2019_Jun_12_0837_829,stimulusJOSU26_2IFCnew_2019_Jun_12_0837_830,True,2019_Jun_12_0837,2IFCnew,2,JOSU26,
2IFCnew,40,0,40,0,-1,1,Yes,5,-1,Hit,0.50536873797,True,False,stimulusJOSU26_2IFCnew_2019_Jun_12_0837_831,stimulusJOSU26_2IFCnew_2019_Jun_12_0837_832,True,2019_Jun_12_0837,2IFCnew,2,JOSU26,
2IFCnew,41,0,41,0,-1,3,Yes,5,-1,Correct Rejection,0.868057630956,False,True,stimulusJOSU26_2IFCnew_2019_Jun_12_0837_833,stimulusJOSU26_2IFCnew_2019_Jun_12_0837_834,True,2019_Jun_12_0837,2IFCnew,2,JOSU26,
2IFCnew,42,0,42,0,-1,3,Yes,7.6,-1,Correct Rejection,0.669151988346,False,True,stimulusJOSU26_2IFCnew_2019_Jun_12_0837_835,stimulusJOSU26_2IFCnew_2019_Jun_12_0837_836,True,2019_Jun_12_0837,2IFCnew,2,JOSU26,
2IFCnew,43,0,43,0,-1,3,Yes,1.5,-1,Correct Rejection,0.567678038031,False,True,stimulusJOSU26_2IFCnew_2019_Jun_12_0837_837,stimulusJOSU26_2IFCnew_2019_Jun_12_0837_838,True,2019_Jun_12_0837,2IFCnew,2,JOSU26,
2IFCnew,44,0,44,0,-1,1,Yes,7.6,-1,Hit,0.600828568451,True,False,stimulusJOSU26_2IFCnew_2019_Jun_12_0837_839,stimulusJOSU26_2IFCnew_2019_Jun_12_0837_840,True,2019_Jun_12_0837,2IFCnew,2,JOSU26,
2IFCnew,45,0,45,0,-1,0,Yes,3,-1,No Answer,-1,False,True,stimulusJOSU26_2IFCnew_2019_Jun_12_0837_841,stimulusJOSU26_2IFCnew_2019_Jun_12_0837_842,True,2019_Jun_12_0837,2IFCnew,2,JOSU26,
2IFCnew,46,0,46,0,-1,3,Yes,3,-1,Correct Rejection,0.66307094926,False,True,stimulusJOSU26_2IFCnew_2019_Jun_12_0837_843,stimulusJOSU26_2IFCnew_2019_Jun_12_0837_844,True,2019_Jun_12_0837,2IFCnew,2,JOSU26,
2IFCnew,47,0,47,0,0.433219420258,6,No,5.8,-1,Miss,0.565849046223,True,False,stimulusJOSU26_2IFCnew_2019_Jun_12_0837_845,stimulusJOSU26_2IFCnew_2019_Jun_12_0837_846,True,2019_Jun_12_0837,2IFCnew,2,JOSU26,
2IFCnew,48,0,48,0,0.667732723523,6,No,4,-1,Miss,0.557237799279,True,False,stimulusJOSU26_2IFCnew_2019_Jun_12_0837_847,stimulusJOSU26_2IFCnew_2019_Jun_12_0837_848,True,2019_Jun_12_0837,2IFCnew,2,JOSU26,
2IFCnew,49,0,49,0,0.432696792297,6,No,3,-1,Miss,0.605909922626,True,False,stimulusJOSU26_2IFCnew_2019_Jun_12_0837_849,stimulusJOSU26_2IFCnew_2019_Jun_12_0837_850,True,2019_Jun_12_0837,2IFCnew,2,JOSU26,
2IFCnew,50,0,50,0,-1,3,No,8.7,-1,Correct Rejection,0.700933340006,False,True,stimulusJOSU26_2IFCnew_2019_Jun_12_0837_851,stimulusJOSU26_2IFCnew_2019_Jun_12_0837_852,True,2019_Jun_12_0837,2IFCnew,2,JOSU26,
2IFCnew,51,0,51,0,-1,1,No,8.7,-1,Hit,0.636935044546,True,False,stimulusJOSU26_2IFCnew_2019_Jun_12_0837_853,stimulusJOSU26_2IFCnew_2019_Jun_12_0837_854,True,2019_Jun_12_0837,2IFCnew,2,JOSU26,
2IFCnew,52,0,52,0,-1,1,No,4,-1,Hit,0.569038594607,True,False,stimulusJOSU26_2IFCnew_2019_Jun_12_0837_855,stimulusJOSU26_2IFCnew_2019_Jun_12_0837_856,True,2019_Jun_12_0837,2IFCnew,2,JOSU26,
2IFCnew,53,0,53,0,-1,1,No,5.8,-1,Hit,0.60153717408,True,False,stimulusJOSU26_2IFCnew_2019_Jun_12_0837_857,stimulusJOSU26_2IFCnew_2019_Jun_12_0837_858,True,2019_Jun_12_0837,2IFCnew,2,JOSU26,
2IFCnew,54,0,54,0,-1,3,No,5,-1,Correct Rejection,0.540232895873,False,True,stimulusJOSU26_2IFCnew_2019_Jun_12_0837_859,stimulusJOSU26_2IFCnew_2019_Jun_12_0837_860,True,2019_Jun_12_0837,2IFCnew,2,JOSU26,
2IFCnew,55,0,55,0,-1,4,No,1.5,-1,Miss,0.601095835213,True,False,stimulusJOSU26_2IFCnew_2019_Jun_12_0837_861,stimulusJOSU26_2IFCnew_2019_Jun_12_0837_862,True,2019_Jun_12_0837,2IFCnew,2,JOSU26,
2IFCnew,56,0,56,0,-1,3,No,5.8,-1,Correct Rejection,0.468803679105,False,True,stimulusJOSU26_2IFCnew_2019_Jun_12_0837_863,stimulusJOSU26_2IFCnew_2019_Jun_12_0837_864,True,2019_Jun_12_0837,2IFCnew,2,JOSU26,
2IFCnew,57,0,57,0,-1,4,No,3,-1,Miss,0.660076410975,True,False,stimulusJOSU26_2IFCnew_2019_Jun_12_0837_865,stimulusJOSU26_2IFCnew_2019_Jun_12_0837_866,True,2019_Jun_12_0837,2IFCnew,2,JOSU26,
2IFCnew,58,0,58,0,0.437935797032,6,No,3,-1,Miss,0.591991930269,True,False,stimulusJOSU26_2IFCnew_2019_Jun_12_0837_867,stimulusJOSU26_2IFCnew_2019_Jun_12_0837_868,True,2019_Jun_12_0837,2IFCnew,2,JOSU26,
2IFCnew,59,0,59,0,-1,4,No,5,-1,Miss,0.603518479504,True,False,stimulusJOSU26_2IFCnew_2019_Jun_12_0837_869,stimulusJOSU26_2IFCnew_2019_Jun_12_0837_870,True,2019_Jun_12_0837,2IFCnew,2,JOSU26,
2IFCnew,60,0,60,0,-1,4,No,3,-1,Miss,0.542613664176,True,False,stimulusJOSU26_2IFCnew_2019_Jun_12_0837_871,stimulusJOSU26_2IFCnew_2019_Jun_12_0837_872,True,2019_Jun_12_0837,2IFCnew,2,JOSU26,
2IFCnew,61,0,61,0,-1,3,No,5.8,-1,Correct Rejection,0.634144138545,False,True,stimulusJOSU26_2IFCnew_2019_Jun_12_0837_873,stimulusJOSU26_2IFCnew_2019_Jun_12_0837_874,True,2019_Jun_12_0837,2IFCnew,2,JOSU26,
2IFCnew,62,0,62,0,-1,3,No,5,-1,Correct Rejection,0.66724786628,False,True,stimulusJOSU26_2IFCnew_2019_Jun_12_0837_875,stimulusJOSU26_2IFCnew_2019_Jun_12_0837_876,True,2019_Jun_12_0837,2IFCnew,2,JOSU26,
2IFCnew,63,0,63,0,-1,3,No,8.7,-1,Correct Rejection,0.501121206675,False,True,stimulusJOSU26_2IFCnew_2019_Jun_12_0837_877,stimulusJOSU26_2IFCnew_2019_Jun_12_0837_878,True,2019_Jun_12_0837,2IFCnew,2,JOSU26,
2IFCnew,64,0,64,0,-1,1,No,8.7,-1,Hit,0.739539644215,True,False,stimulusJOSU26_2IFCnew_2019_Jun_12_0837_879,stimulusJOSU26_2IFCnew_2019_Jun_12_0837_880,True,2019_Jun_12_0837,2IFCnew,2,JOSU26,
2IFCnew,65,0,65,0,0.538216283545,6,No,5.8,-1,Miss,0.733713145368,True,False,stimulusJOSU26_2IFCnew_2019_Jun_12_0837_881,stimulusJOSU26_2IFCnew_2019_Jun_12_0837_882,True,2019_Jun_12_0837,2IFCnew,2,JOSU26,
2IFCnew,66,0,66,0,-1,1,No,5.8,-1,Hit,0.573936023749,True,False,stimulusJOSU26_2IFCnew_2019_Jun_12_0837_883,stimulusJOSU26_2IFCnew_2019_Jun_12_0837_884,True,2019_Jun_12_0837,2IFCnew,2,JOSU26,
2IFCnew,67,0,67,0,-1,3,No,6.7,-1,Correct Rejection,0.532478462905,False,True,stimulusJOSU26_2IFCnew_2019_Jun_12_0837_885,stimulusJOSU26_2IFCnew_2019_Jun_12_0837_886,True,2019_Jun_12_0837,2IFCnew,2,JOSU26,
2IFCnew,68,0,68,0,-1,1,No,7.6,-1,Hit,0.466606425587,True,False,stimulusJOSU26_2IFCnew_2019_Jun_12_0837_887,stimulusJOSU26_2IFCnew_2019_Jun_12_0837_888,True,2019_Jun_12_0837,2IFCnew,2,JOSU26,
2IFCnew,69,0,69,0,-1,1,No,3,-1,Hit,0.499789799564,True,False,stimulusJOSU26_2IFCnew_2019_Jun_12_0837_889,stimulusJOSU26_2IFCnew_2019_Jun_12_0837_890,True,2019_Jun_12_0837,2IFCnew,2,JOSU26,
2IFCnew,70,0,70,0,-1,1,No,5.8,-1,Hit,0.500948366243,True,False,stimulusJOSU26_2IFCnew_2019_Jun_12_0837_891,stimulusJOSU26_2IFCnew_2019_Jun_12_0837_892,True,2019_Jun_12_0837,2IFCnew,2,JOSU26,
2IFCnew,71,0,71,0,-1,1,No,5.8,-1,Hit,0.569160116836,True,False,stimulusJOSU26_2IFCnew_2019_Jun_12_0837_893,stimulusJOSU26_2IFCnew_2019_Jun_12_0837_894,True,2019_Jun_12_0837,2IFCnew,2,JOSU26,
2IFCnew,72,0,72,0,-1,1,No,8.7,-1,Hit,0.502402938437,True,False,stimulusJOSU26_2IFCnew_2019_Jun_12_0837_895,stimulusJOSU26_2IFCnew_2019_Jun_12_0837_896,True,2019_Jun_12_0837,2IFCnew,2,JOSU26,
2IFCnew,73,0,73,0,-1,1,No,7.6,-1,Hit,0.469592342153,True,False,stimulusJOSU26_2IFCnew_2019_Jun_12_0837_897,stimulusJOSU26_2IFCnew_2019_Jun_12_0837_898,True,2019_Jun_12_0837,2IFCnew,2,JOSU26,
2IFCnew,74,0,74,0,-1,1,No,3,-1,Hit,0.468829543795,True,False,stimulusJOSU26_2IFCnew_2019_Jun_12_0837_899,stimulusJOSU26_2IFCnew_2019_Jun_12_0837_900,True,2019_Jun_12_0837,2IFCnew,2,JOSU26,
2IFCnew,0,0,0,0,-1,0,No,3,-1,No Answer,-1,False,True,stimulusJOSU26_2IFCnew_2019_Jun_12_0837_901,stimulusJOSU26_2IFCnew_2019_Jun_12_0837_902,True,2019_Jun_12_0837,2IFCnew,2,JOSU26,
2IFCnew,1,0,1,0,0.575097874738,6,No,3,-1,Miss,0.500366619322,True,False,stimulusJOSU26_2IFCnew_2019_Jun_12_0837_903,stimulusJOSU26_2IFCnew_2019_Jun_12_0837_904,True,2019_Jun_12_0837,2IFCnew,2,JOSU26,
2IFCnew,2,0,2,0,-1,4,No,1.5,-1,Miss,0.432501371484,True,False,stimulusJOSU26_2IFCnew_2019_Jun_12_0837_905,stimulusJOSU26_2IFCnew_2019_Jun_12_0837_906,True,2019_Jun_12_0837,2IFCnew,2,JOSU26,
2IFCnew,3,0,3,0,-1,3,No,5,-1,Correct Rejection,0.435388345737,False,True,stimulusJOSU26_2IFCnew_2019_Jun_12_0837_907,stimulusJOSU26_2IFCnew_2019_Jun_12_0837_908,True,2019_Jun_12_0837,2IFCnew,2,JOSU26,
2IFCnew,4,0,4,0,-1,1,No,5.8,-1,Hit,0.432958311401,True,False,stimulusJOSU26_2IFCnew_2019_Jun_12_0837_909,stimulusJOSU26_2IFCnew_2019_Jun_12_0837_910,True,2019_Jun_12_0837,2IFCnew,2,JOSU26,
2IFCnew,5,0,5,0,-1,3,No,1.5,-1,Correct Rejection,0.532563035376,False,True,stimulusJOSU26_2IFCnew_2019_Jun_12_0837_911,stimulusJOSU26_2IFCnew_2019_Jun_12_0837_912,True,2019_Jun_12_0837,2IFCnew,2,JOSU26,
2IFCnew,6,0,6,0,0.435694203712,7,Yes,4,-1,Hit,0.602686708793,True,False,stimulusJOSU26_2IFCnew_2019_Jun_12_0837_913,stimulusJOSU26_2IFCnew_2019_Jun_12_0837_914,True,2019_Jun_12_0837,2IFCnew,2,JOSU26,
2IFCnew,7,0,7,0,-1,3,Yes,8.7,-1,Correct Rejection,0.534766447265,False,True,stimulusJOSU26_2IFCnew_2019_Jun_12_0837_915,stimulusJOSU26_2IFCnew_2019_Jun_12_0837_916,True,2019_Jun_12_0837,2IFCnew,2,JOSU26,
2IFCnew,8,0,8,0,0.602556975558,6,No,1.5,-1,Miss,0.641669075005,True,False,stimulusJOSU26_2IFCnew_2019_Jun_12_0837_917,stimulusJOSU26_2IFCnew_2019_Jun_12_0837_918,True,2019_Jun_12_0837,2IFCnew,2,JOSU26,
2IFCnew,9,0,9,0,-1,3,No,7.6,-1,Correct Rejection,0.568984402344,False,True,stimulusJOSU26_2IFCnew_2019_Jun_12_0837_919,stimulusJOSU26_2IFCnew_2019_Jun_12_0837_920,True,2019_Jun_12_0837,2IFCnew,2,JOSU26,
2IFCnew,10,0,10,0,-1,1,No,4,-1,Hit,0.466838384978,True,False,stimulusJOSU26_2IFCnew_2019_Jun_12_0837_921,stimulusJOSU26_2IFCnew_2019_Jun_12_0837_922,True,2019_Jun_12_0837,2IFCnew,2,JOSU26,
2IFCnew,11,0,11,0,-1,3,No,8.7,-1,Correct Rejection,0.663769701961,False,True,stimulusJOSU26_2IFCnew_2019_Jun_12_0837_923,stimulusJOSU26_2IFCnew_2019_Jun_12_0837_924,True,2019_Jun_12_0837,2IFCnew,2,JOSU26,
2IFCnew,12,0,12,0,0.500401515979,8,No,6.7,-1,Correct Rejection,0.534155141097,False,True,stimulusJOSU26_2IFCnew_2019_Jun_12_0837_925,stimulusJOSU26_2IFCnew_2019_Jun_12_0837_926,True,2019_Jun_12_0837,2IFCnew,2,JOSU26,
2IFCnew,13,0,13,0,-1,1,No,5.8,-1,Hit,0.702937636059,True,False,stimulusJOSU26_2IFCnew_2019_Jun_12_0837_927,stimulusJOSU26_2IFCnew_2019_Jun_12_0837_928,True,2019_Jun_12_0837,2IFCnew,2,JOSU26,
2IFCnew,14,0,14,0,-1,1,No,5,-1,Hit,0.601856991183,True,False,stimulusJOSU26_2IFCnew_2019_Jun_12_0837_929,stimulusJOSU26_2IFCnew_2019_Jun_12_0837_930,True,2019_Jun_12_0837,2IFCnew,2,JOSU26,
2IFCnew,15,0,15,0,-1,1,No,7.6,-1,Hit,0.469098042231,True,False,stimulusJOSU26_2IFCnew_2019_Jun_12_0837_931,stimulusJOSU26_2IFCnew_2019_Jun_12_0837_932,True,2019_Jun_12_0837,2IFCnew,2,JOSU26,
2IFCnew,16,0,16,0,-1,1,No,3,-1,Hit,0.674562601838,True,False,stimulusJOSU26_2IFCnew_2019_Jun_12_0837_933,stimulusJOSU26_2IFCnew_2019_Jun_12_0837_934,True,2019_Jun_12_0837,2IFCnew,2,JOSU26,
2IFCnew,17,0,17,0,-1,1,No,7.6,-1,Hit,0.534208102152,True,False,stimulusJOSU26_2IFCnew_2019_Jun_12_0837_935,stimulusJOSU26_2IFCnew_2019_Jun_12_0837_936,True,2019_Jun_12_0837,2IFCnew,2,JOSU26,
2IFCnew,18,0,18,0,-1,3,No,4,-1,Correct Rejection,0.504123955965,False,True,stimulusJOSU26_2IFCnew_2019_Jun_12_0837_937,stimulusJOSU26_2IFCnew_2019_Jun_12_0837_938,True,2019_Jun_12_0837,2IFCnew,2,JOSU26,
2IFCnew,19,0,19,0,-1,1,No,3,-1,Hit,0.467023952864,True,False,stimulusJOSU26_2IFCnew_2019_Jun_12_0837_939,stimulusJOSU26_2IFCnew_2019_Jun_12_0837_940,True,2019_Jun_12_0837,2IFCnew,2,JOSU26,
2IFCnew,20,0,20,0,0.666900542099,3,No,7.6,-1,False Alarm,0.598797586281,False,True,stimulusJOSU26_2IFCnew_2019_Jun_12_0837_941,stimulusJOSU26_2IFCnew_2019_Jun_12_0837_942,True,2019_Jun_12_0837,2IFCnew,2,JOSU26,
2IFCnew,21,0,21,0,-1,0,No,5,-1,No Answer,-1,False,True,stimulusJOSU26_2IFCnew_2019_Jun_12_0837_943,stimulusJOSU26_2IFCnew_2019_Jun_12_0837_944,True,2019_Jun_12_0837,2IFCnew,2,JOSU26,
2IFCnew,22,0,22,0,-1,1,No,7.6,-1,Hit,0.570740727708,True,False,stimulusJOSU26_2IFCnew_2019_Jun_12_0837_945,stimulusJOSU26_2IFCnew_2019_Jun_12_0837_946,True,2019_Jun_12_0837,2IFCnew,2,JOSU26,
2IFCnew,23,0,23,0,-1,3,No,8.7,-1,Correct Rejection,0.575814281125,False,True,stimulusJOSU26_2IFCnew_2019_Jun_12_0837_947,stimulusJOSU26_2IFCnew_2019_Jun_12_0837_948,True,2019_Jun_12_0837,2IFCnew,2,JOSU26,
2IFCnew,24,0,24,0,-1,3,No,5.8,-1,Correct Rejection,0.537905909121,False,True,stimulusJOSU26_2IFCnew_2019_Jun_12_0837_949,stimulusJOSU26_2IFCnew_2019_Jun_12_0837_950,True,2019_Jun_12_0837,2IFCnew,2,JOSU26,
2IFCnew,25,0,25,0,-1,3,No,4,-1,Correct Rejection,0.528329873458,False,True,stimulusJOSU26_2IFCnew_2019_Jun_12_0837_951,stimulusJOSU26_2IFCnew_2019_Jun_12_0837_952,True,2019_Jun_12_0837,2IFCnew,2,JOSU26,
2IFCnew,26,0,26,0,-1,1,No,5.8,-1,Hit,0.49968675198,True,False,stimulusJOSU26_2IFCnew_2019_Jun_12_0837_953,stimulusJOSU26_2IFCnew_2019_Jun_12_0837_954,True,2019_Jun_12_0837,2IFCnew,2,JOSU26,
2IFCnew,27,0,27,0,-1,1,No,5,-1,Hit,0.491029934026,True,False,stimulusJOSU26_2IFCnew_2019_Jun_12_0837_955,stimulusJOSU26_2IFCnew_2019_Jun_12_0837_956,True,2019_Jun_12_0837,2IFCnew,2,JOSU26,
2IFCnew,28,0,28,0,-1,1,No,3,-1,Hit,0.691632782575,True,False,stimulusJOSU26_2IFCnew_2019_Jun_12_0837_957,stimulusJOSU26_2IFCnew_2019_Jun_12_0837_958,True,2019_Jun_12_0837,2IFCnew,2,JOSU26,
2IFCnew,29,0,29,0,-1,3,No,7.6,-1,Correct Rejection,0.70398494415,False,True,stimulusJOSU26_2IFCnew_2019_Jun_12_0837_959,stimulusJOSU26_2IFCnew_2019_Jun_12_0837_960,True,2019_Jun_12_0837,2IFCnew,2,JOSU26,
2IFCnew,30,0,30,0,0.437512110919,6,No,3,-1,Miss,0.535734109581,True,False,stimulusJOSU26_2IFCnew_2019_Jun_12_0837_961,stimulusJOSU26_2IFCnew_2019_Jun_12_0837_962,True,2019_Jun_12_0837,2IFCnew,2,JOSU26,
2IFCnew,31,0,31,0,-1,2,No,6.7,-1,False Alarm,0.603357544634,False,True,stimulusJOSU26_2IFCnew_2019_Jun_12_0837_963,stimulusJOSU26_2IFCnew_2019_Jun_12_0837_964,True,2019_Jun_12_0837,2IFCnew,2,JOSU26,
2IFCnew,32,0,32,0,-1,1,No,4,-1,Hit,0.533350466751,True,False,stimulusJOSU26_2IFCnew_2019_Jun_12_0837_965,stimulusJOSU26_2IFCnew_2019_Jun_12_0837_966,True,2019_Jun_12_0837,2IFCnew,2,JOSU26,
2IFCnew,33,0,33,0,-1,3,No,4,-1,Correct Rejection,0.701118497178,False,True,stimulusJOSU26_2IFCnew_2019_Jun_12_0837_967,stimulusJOSU26_2IFCnew_2019_Jun_12_0837_968,True,2019_Jun_12_0837,2IFCnew,2,JOSU26,
2IFCnew,34,0,34,0,-1,3,No,5,-1,Correct Rejection,0.661194333807,False,True,stimulusJOSU26_2IFCnew_2019_Jun_12_0837_969,stimulusJOSU26_2IFCnew_2019_Jun_12_0837_970,True,2019_Jun_12_0837,2IFCnew,2,JOSU26,
2IFCnew,35,0,35,0,-1,1,No,5.8,-1,Hit,0.595679883845,True,False,stimulusJOSU26_2IFCnew_2019_Jun_12_0837_971,stimulusJOSU26_2IFCnew_2019_Jun_12_0837_972,True,2019_Jun_12_0837,2IFCnew,2,JOSU26,
2IFCnew,36,0,36,0,-1,2,No,8.7,-1,False Alarm,0.637704822235,False,True,stimulusJOSU26_2IFCnew_2019_Jun_12_0837_973,stimulusJOSU26_2IFCnew_2019_Jun_12_0837_974,True,2019_Jun_12_0837,2IFCnew,2,JOSU26,
2IFCnew,37,0,37,0,-1,1,No,5,-1,Hit,0.469933918212,True,False,stimulusJOSU26_2IFCnew_2019_Jun_12_0837_975,stimulusJOSU26_2IFCnew_2019_Jun_12_0837_976,True,2019_Jun_12_0837,2IFCnew,2,JOSU26,
2IFCnew,38,0,38,0,-1,1,No,3,-1,Hit,0.533388237469,True,False,stimulusJOSU26_2IFCnew_2019_Jun_12_0837_977,stimulusJOSU26_2IFCnew_2019_Jun_12_0837_978,True,2019_Jun_12_0837,2IFCnew,2,JOSU26,
2IFCnew,39,0,39,0,0.435896194074,6,No,4,-1,Miss,0.498524900526,True,False,stimulusJOSU26_2IFCnew_2019_Jun_12_0837_979,stimulusJOSU26_2IFCnew_2019_Jun_12_0837_980,True,2019_Jun_12_0837,2IFCnew,2,JOSU26,
2IFCnew,40,0,40,0,-1,1,No,5,-1,Hit,0.498948996887,True,False,stimulusJOSU26_2IFCnew_2019_Jun_12_0837_981,stimulusJOSU26_2IFCnew_2019_Jun_12_0837_982,True,2019_Jun_12_0837,2IFCnew,2,JOSU26,
2IFCnew,41,0,41,0,-1,1,No,5.8,-1,Hit,0.4641185035,True,False,stimulusJOSU26_2IFCnew_2019_Jun_12_0837_983,stimulusJOSU26_2IFCnew_2019_Jun_12_0837_984,True,2019_Jun_12_0837,2IFCnew,2,JOSU26,
2IFCnew,42,0,42,0,-1,1,No,5,-1,Hit,0.567541325931,True,False,stimulusJOSU26_2IFCnew_2019_Jun_12_0837_985,stimulusJOSU26_2IFCnew_2019_Jun_12_0837_986,True,2019_Jun_12_0837,2IFCnew,2,JOSU26,
2IFCnew,43,0,43,0,-1,1,No,5.8,-1,Hit,0.574126928579,True,False,stimulusJOSU26_2IFCnew_2019_Jun_12_0837_987,stimulusJOSU26_2IFCnew_2019_Jun_12_0837_988,True,2019_Jun_12_0837,2IFCnew,2,JOSU26,
2IFCnew,44,0,44,0,0.643474665936,5,Yes,6.7,-1,False Alarm,0.734543683939,False,True,stimulusJOSU26_2IFCnew_2019_Jun_12_0837_989,stimulusJOSU26_2IFCnew_2019_Jun_12_0837_990,True,2019_Jun_12_0837,2IFCnew,2,JOSU26,
2IFCnew,45,0,45,0,-1,1,Yes,8.7,-1,Hit,0.469318095595,True,False,stimulusJOSU26_2IFCnew_2019_Jun_12_0837_991,stimulusJOSU26_2IFCnew_2019_Jun_12_0837_992,True,2019_Jun_12_0837,2IFCnew,2,JOSU26,
2IFCnew,46,0,46,0,0.639189775102,5,Yes,5,-1,False Alarm,0.491107527632,False,True,stimulusJOSU26_2IFCnew_2019_Jun_12_0837_993,stimulusJOSU26_2IFCnew_2019_Jun_12_0837_994,True,2019_Jun_12_0837,2IFCnew,2,JOSU26,
2IFCnew,47,0,47,0,-1,1,Yes,5,-1,Hit,0.501992800273,True,False,stimulusJOSU26_2IFCnew_2019_Jun_12_0837_995,stimulusJOSU26_2IFCnew_2019_Jun_12_0837_996,True,2019_Jun_12_0837,2IFCnew,2,JOSU26,
2IFCnew,48,0,48,0,-1,1,Yes,4,-1,Hit,0.468255186919,True,False,stimulusJOSU26_2IFCnew_2019_Jun_12_0837_997,stimulusJOSU26_2IFCnew_2019_Jun_12_0837_998,True,2019_Jun_12_0837,2IFCnew,2,JOSU26,
2IFCnew,49,0,49,0,-1,3,Yes,6.7,-1,Correct Rejection,0.565870805643,False,True,stimulusJOSU26_2IFCnew_2019_Jun_12_0837_999,stimulusJOSU26_2IFCnew_2019_Jun_12_0837_1000,True,2019_Jun_12_0837,2IFCnew,2,JOSU26,
2IFCnew,50,0,50,0,-1,1,Yes,6.7,-1,Hit,0.533912507351,True,False,stimulusJOSU26_2IFCnew_2019_Jun_12_0837_1001,stimulusJOSU26_2IFCnew_2019_Jun_12_0837_1002,True,2019_Jun_12_0837,2IFCnew,2,JOSU26,
2IFCnew,51,0,51,0,-1,2,Yes,3,-1,False Alarm,0.602314342279,False,True,stimulusJOSU26_2IFCnew_2019_Jun_12_0837_1003,stimulusJOSU26_2IFCnew_2019_Jun_12_0837_1004,True,2019_Jun_12_0837,2IFCnew,2,JOSU26,
2IFCnew,52,0,52,0,-1,1,Yes,8.7,-1,Hit,0.601659928448,True,False,stimulusJOSU26_2IFCnew_2019_Jun_12_0837_1005,stimulusJOSU26_2IFCnew_2019_Jun_12_0837_1006,True,2019_Jun_12_0837,2IFCnew,2,JOSU26,
2IFCnew,53,0,53,0,-1,3,Yes,7.6,-1,Correct Rejection,0.671254405286,False,True,stimulusJOSU26_2IFCnew_2019_Jun_12_0837_1007,stimulusJOSU26_2IFCnew_2019_Jun_12_0837_1008,True,2019_Jun_12_0837,2IFCnew,2,JOSU26,
2IFCnew,54,0,54,0,0.468790541869,6,No,3,-1,Miss,0.776382233482,True,False,stimulusJOSU26_2IFCnew_2019_Jun_12_0837_1009,stimulusJOSU26_2IFCnew_2019_Jun_12_0837_1010,True,2019_Jun_12_0837,2IFCnew,2,JOSU26,
2IFCnew,55,0,55,0,-1,3,No,3,-1,Correct Rejection,0.669123249594,False,True,stimulusJOSU26_2IFCnew_2019_Jun_12_0837_1011,stimulusJOSU26_2IFCnew_2019_Jun_12_0837_1012,True,2019_Jun_12_0837,2IFCnew,2,JOSU26,
2IFCnew,56,0,56,0,-1,3,No,4,-1,Correct Rejection,0.570821605623,False,True,stimulusJOSU26_2IFCnew_2019_Jun_12_0837_1013,stimulusJOSU26_2IFCnew_2019_Jun_12_0837_1014,True,2019_Jun_12_0837,2IFCnew,2,JOSU26,
