Task,trials.thisRepN,trials.thisTrialN,trials.thisN,trials.thisIndex,time_response_second,response_2IFCnew,response_key2Interval_2IFCnew,signal_intensity,constant Value,response,time_response,signal_on_stimuluspos1,signal_on_stimuluspos2,stimulus_name_pos1,stimulus_name_pos2,random_intensity,date,expName,session,participant,
2IFCnew,0,0,0,0,0.4332116195,6,No,8.7,-1,Hit,0.43765826663,True,False,stimulusJOSU26_2IFCnew_2019_Jun_13_0809_1,stimulusJOSU26_2IFCnew_2019_Jun_13_0809_2,False,2019_Jun_13_0809,2IFCnew,,JOSU26,
2IFCnew,1,0,1,0,-1,3,No,8.7,-1,Hit,0.500821917318,False,True,stimulusJOSU26_2IFCnew_2019_Jun_13_0809_3,stimulusJOSU26_2IFCnew_2019_Jun_13_0809_4,False,2019_Jun_13_0809,2IFCnew,,JOSU26,
2IFCnew,2,0,2,0,-1,1,No,8.7,-1,Hit,0.433795419056,True,False,stimulusJOSU26_2IFCnew_2019_Jun_13_0809_5,stimulusJOSU26_2IFCnew_2019_Jun_13_0809_6,False,2019_Jun_13_0809,2IFCnew,,JOSU26,
2IFCnew,3,0,3,0,-1,3,No,8.7,-1,Hit,0.534105875529,False,True,stimulusJOSU26_2IFCnew_2019_Jun_13_0809_7,stimulusJOSU26_2IFCnew_2019_Jun_13_0809_8,False,2019_Jun_13_0809,2IFCnew,,JOSU26,
2IFCnew,4,0,4,0,-1,1,No,8.7,-1,Hit,0.46784833353,True,False,stimulusJOSU26_2IFCnew_2019_Jun_13_0809_9,stimulusJOSU26_2IFCnew_2019_Jun_13_0809_10,False,2019_Jun_13_0809,2IFCnew,,JOSU26,
2IFCnew,5,0,5,0,-1,1,No,8.7,-1,Hit,0.542757356539,True,False,stimulusJOSU26_2IFCnew_2019_Jun_13_0809_11,stimulusJOSU26_2IFCnew_2019_Jun_13_0809_12,False,2019_Jun_13_0809,2IFCnew,,JOSU26,
2IFCnew,6,0,6,0,-1,1,No,8.7,-1,Hit,0.500444623642,True,False,stimulusJOSU26_2IFCnew_2019_Jun_13_0809_13,stimulusJOSU26_2IFCnew_2019_Jun_13_0809_14,False,2019_Jun_13_0809,2IFCnew,,JOSU26,
2IFCnew,7,0,7,0,-1,1,No,8.7,-1,Hit,0.53464615671,True,False,stimulusJOSU26_2IFCnew_2019_Jun_13_0809_15,stimulusJOSU26_2IFCnew_2019_Jun_13_0809_16,False,2019_Jun_13_0809,2IFCnew,,JOSU26,
2IFCnew,8,0,8,0,-1,3,No,8.7,-1,Hit,0.467521947809,False,True,stimulusJOSU26_2IFCnew_2019_Jun_13_0809_17,stimulusJOSU26_2IFCnew_2019_Jun_13_0809_18,False,2019_Jun_13_0809,2IFCnew,,JOSU26,
2IFCnew,9,0,9,0,-1,3,No,8.7,-1,Hit,0.701398490928,False,True,stimulusJOSU26_2IFCnew_2019_Jun_13_0809_19,stimulusJOSU26_2IFCnew_2019_Jun_13_0809_20,False,2019_Jun_13_0809,2IFCnew,,JOSU26,
2IFCnew,10,0,10,0,-1,1,No,8.7,-1,Hit,0.602119742427,True,False,stimulusJOSU26_2IFCnew_2019_Jun_13_0809_21,stimulusJOSU26_2IFCnew_2019_Jun_13_0809_22,False,2019_Jun_13_0809,2IFCnew,,JOSU26,
2IFCnew,11,0,11,0,-1,1,No,8.7,-1,Hit,0.499235148542,True,False,stimulusJOSU26_2IFCnew_2019_Jun_13_0809_23,stimulusJOSU26_2IFCnew_2019_Jun_13_0809_24,False,2019_Jun_13_0809,2IFCnew,,JOSU26,
2IFCnew,12,0,12,0,-1,1,No,8.7,-1,Hit,0.534248335753,True,False,stimulusJOSU26_2IFCnew_2019_Jun_13_0809_25,stimulusJOSU26_2IFCnew_2019_Jun_13_0809_26,False,2019_Jun_13_0809,2IFCnew,,JOSU26,
2IFCnew,13,0,13,0,-1,1,No,8.7,-1,Hit,0.536083075218,True,False,stimulusJOSU26_2IFCnew_2019_Jun_13_0809_27,stimulusJOSU26_2IFCnew_2019_Jun_13_0809_28,False,2019_Jun_13_0809,2IFCnew,,JOSU26,
2IFCnew,14,0,14,0,-1,1,No,8.7,-1,Hit,0.488856902346,True,False,stimulusJOSU26_2IFCnew_2019_Jun_13_0809_29,stimulusJOSU26_2IFCnew_2019_Jun_13_0809_30,False,2019_Jun_13_0809,2IFCnew,,JOSU26,
2IFCnew,15,0,15,0,-1,3,No,8.7,-1,Hit,0.698906464037,False,True,stimulusJOSU26_2IFCnew_2019_Jun_13_0809_31,stimulusJOSU26_2IFCnew_2019_Jun_13_0809_32,False,2019_Jun_13_0809,2IFCnew,,JOSU26,
2IFCnew,16,0,16,0,-1,3,No,8.7,-1,Hit,0.637307822704,False,True,stimulusJOSU26_2IFCnew_2019_Jun_13_0809_33,stimulusJOSU26_2IFCnew_2019_Jun_13_0809_34,False,2019_Jun_13_0809,2IFCnew,,JOSU26,
2IFCnew,17,0,17,0,-1,1,No,8.7,-1,Hit,0.569067333359,True,False,stimulusJOSU26_2IFCnew_2019_Jun_13_0809_35,stimulusJOSU26_2IFCnew_2019_Jun_13_0809_36,False,2019_Jun_13_0809,2IFCnew,,JOSU26,
2IFCnew,18,0,18,0,-1,3,No,8.7,-1,Hit,0.570730463602,False,True,stimulusJOSU26_2IFCnew_2019_Jun_13_0809_37,stimulusJOSU26_2IFCnew_2019_Jun_13_0809_38,False,2019_Jun_13_0809,2IFCnew,,JOSU26,
2IFCnew,19,0,19,0,-1,1,No,8.7,-1,Hit,0.435669981409,True,False,stimulusJOSU26_2IFCnew_2019_Jun_13_0809_39,stimulusJOSU26_2IFCnew_2019_Jun_13_0809_40,False,2019_Jun_13_0809,2IFCnew,,JOSU26,
2IFCnew,20,0,20,0,-1,3,No,8.7,-1,Hit,0.53419496445,False,True,stimulusJOSU26_2IFCnew_2019_Jun_13_0809_41,stimulusJOSU26_2IFCnew_2019_Jun_13_0809_42,False,2019_Jun_13_0809,2IFCnew,,JOSU26,
2IFCnew,21,0,21,0,-1,3,No,8.7,-1,Hit,0.466400330421,False,True,stimulusJOSU26_2IFCnew_2019_Jun_13_0809_43,stimulusJOSU26_2IFCnew_2019_Jun_13_0809_44,False,2019_Jun_13_0809,2IFCnew,,JOSU26,
2IFCnew,22,0,22,0,-1,3,No,8.7,-1,Hit,0.500871593598,False,True,stimulusJOSU26_2IFCnew_2019_Jun_13_0809_45,stimulusJOSU26_2IFCnew_2019_Jun_13_0809_46,False,2019_Jun_13_0809,2IFCnew,,JOSU26,
2IFCnew,23,0,23,0,-1,1,No,8.7,-1,Hit,0.597018270753,True,False,stimulusJOSU26_2IFCnew_2019_Jun_13_0809_47,stimulusJOSU26_2IFCnew_2019_Jun_13_0809_48,False,2019_Jun_13_0809,2IFCnew,,JOSU26,
2IFCnew,24,0,24,0,0.566870079841,7,Yes,8.7,-1,False Alarm,0.566568326671,True,False,stimulusJOSU26_2IFCnew_2019_Jun_13_0809_49,stimulusJOSU26_2IFCnew_2019_Jun_13_0809_50,False,2019_Jun_13_0809,2IFCnew,,JOSU26,
2IFCnew,25,0,25,0,-1,1,Yes,8.7,-1,Hit,0.500283688772,True,False,stimulusJOSU26_2IFCnew_2019_Jun_13_0809_51,stimulusJOSU26_2IFCnew_2019_Jun_13_0809_52,False,2019_Jun_13_0809,2IFCnew,,JOSU26,
2IFCnew,26,0,26,0,-1,3,Yes,8.7,-1,Hit,0.503058583476,False,True,stimulusJOSU26_2IFCnew_2019_Jun_13_0809_53,stimulusJOSU26_2IFCnew_2019_Jun_13_0809_54,False,2019_Jun_13_0809,2IFCnew,,JOSU26,
2IFCnew,27,0,27,0,0.536920182873,5,Yes,8.7,-1,Hit,0.670014139265,False,True,stimulusJOSU26_2IFCnew_2019_Jun_13_0809_55,stimulusJOSU26_2IFCnew_2019_Jun_13_0809_56,False,2019_Jun_13_0809,2IFCnew,,JOSU26,
2IFCnew,28,0,28,0,-1,1,Yes,8.7,-1,Hit,0.608095680829,True,False,stimulusJOSU26_2IFCnew_2019_Jun_13_0809_57,stimulusJOSU26_2IFCnew_2019_Jun_13_0809_58,False,2019_Jun_13_0809,2IFCnew,,JOSU26,
2IFCnew,29,0,29,0,-1,1,Yes,8.7,-1,Hit,0.501695563551,True,False,stimulusJOSU26_2IFCnew_2019_Jun_13_0809_59,stimulusJOSU26_2IFCnew_2019_Jun_13_0809_60,False,2019_Jun_13_0809,2IFCnew,,JOSU26,
2IFCnew,30,0,30,0,-1,1,Yes,8.7,-1,Hit,0.500084983651,True,False,stimulusJOSU26_2IFCnew_2019_Jun_13_0809_61,stimulusJOSU26_2IFCnew_2019_Jun_13_0809_62,False,2019_Jun_13_0809,2IFCnew,,JOSU26,
2IFCnew,31,0,31,0,-1,1,Yes,8.7,-1,Hit,0.466133885086,True,False,stimulusJOSU26_2IFCnew_2019_Jun_13_0809_63,stimulusJOSU26_2IFCnew_2019_Jun_13_0809_64,False,2019_Jun_13_0809,2IFCnew,,JOSU26,
2IFCnew,32,0,32,0,-1,1,Yes,8.7,-1,Hit,0.466734927148,True,False,stimulusJOSU26_2IFCnew_2019_Jun_13_0809_65,stimulusJOSU26_2IFCnew_2019_Jun_13_0809_66,False,2019_Jun_13_0809,2IFCnew,,JOSU26,
2IFCnew,33,0,33,0,-1,3,Yes,8.7,-1,Hit,0.536540015135,False,True,stimulusJOSU26_2IFCnew_2019_Jun_13_0809_67,stimulusJOSU26_2IFCnew_2019_Jun_13_0809_68,False,2019_Jun_13_0809,2IFCnew,,JOSU26,
2IFCnew,34,0,34,0,-1,1,Yes,8.7,-1,Hit,0.534432261251,True,False,stimulusJOSU26_2IFCnew_2019_Jun_13_0809_69,stimulusJOSU26_2IFCnew_2019_Jun_13_0809_70,False,2019_Jun_13_0809,2IFCnew,,JOSU26,
2IFCnew,35,0,35,0,-1,1,Yes,8.7,-1,Hit,0.500950008165,True,False,stimulusJOSU26_2IFCnew_2019_Jun_13_0809_71,stimulusJOSU26_2IFCnew_2019_Jun_13_0809_72,False,2019_Jun_13_0809,2IFCnew,,JOSU26,
2IFCnew,36,0,36,0,-1,3,Yes,8.7,-1,Hit,0.468625501264,False,True,stimulusJOSU26_2IFCnew_2019_Jun_13_0809_73,stimulusJOSU26_2IFCnew_2019_Jun_13_0809_74,False,2019_Jun_13_0809,2IFCnew,,JOSU26,
2IFCnew,37,0,37,0,-1,2,Yes,8.7,-1,False Alarm,0.532187794801,False,True,stimulusJOSU26_2IFCnew_2019_Jun_13_0809_75,stimulusJOSU26_2IFCnew_2019_Jun_13_0809_76,False,2019_Jun_13_0809,2IFCnew,,JOSU26,
2IFCnew,38,0,38,0,-1,3,Yes,8.7,-1,Hit,0.63571859058,False,True,stimulusJOSU26_2IFCnew_2019_Jun_13_0809_77,stimulusJOSU26_2IFCnew_2019_Jun_13_0809_78,False,2019_Jun_13_0809,2IFCnew,,JOSU26,
2IFCnew,39,0,39,0,-1,3,Yes,8.7,-1,Hit,0.567363558337,False,True,stimulusJOSU26_2IFCnew_2019_Jun_13_0809_79,stimulusJOSU26_2IFCnew_2019_Jun_13_0809_80,False,2019_Jun_13_0809,2IFCnew,,JOSU26,
2IFCnew,40,0,40,0,-1,1,Yes,8.7,-1,Hit,0.535851526074,True,False,stimulusJOSU26_2IFCnew_2019_Jun_13_0809_81,stimulusJOSU26_2IFCnew_2019_Jun_13_0809_82,False,2019_Jun_13_0809,2IFCnew,,JOSU26,
2IFCnew,41,0,41,0,-1,1,Yes,8.7,-1,Hit,0.467003015336,True,False,stimulusJOSU26_2IFCnew_2019_Jun_13_0809_83,stimulusJOSU26_2IFCnew_2019_Jun_13_0809_84,False,2019_Jun_13_0809,2IFCnew,,JOSU26,
2IFCnew,42,0,42,0,-1,1,Yes,8.7,-1,Hit,0.500884320587,True,False,stimulusJOSU26_2IFCnew_2019_Jun_13_0809_85,stimulusJOSU26_2IFCnew_2019_Jun_13_0809_86,False,2019_Jun_13_0809,2IFCnew,,JOSU26,
2IFCnew,43,0,43,0,-1,1,Yes,8.7,-1,Hit,0.433157016523,True,False,stimulusJOSU26_2IFCnew_2019_Jun_13_0809_87,stimulusJOSU26_2IFCnew_2019_Jun_13_0809_88,False,2019_Jun_13_0809,2IFCnew,,JOSU26,
2IFCnew,44,0,44,0,-1,3,Yes,8.7,-1,Hit,0.56779668713,False,True,stimulusJOSU26_2IFCnew_2019_Jun_13_0809_89,stimulusJOSU26_2IFCnew_2019_Jun_13_0809_90,False,2019_Jun_13_0809,2IFCnew,,JOSU26,
2IFCnew,45,0,45,0,-1,3,Yes,8.7,-1,Hit,0.569336652756,False,True,stimulusJOSU26_2IFCnew_2019_Jun_13_0809_91,stimulusJOSU26_2IFCnew_2019_Jun_13_0809_92,False,2019_Jun_13_0809,2IFCnew,,JOSU26,
2IFCnew,46,0,46,0,-1,3,Yes,8.7,-1,Hit,0.568119788077,False,True,stimulusJOSU26_2IFCnew_2019_Jun_13_0809_93,stimulusJOSU26_2IFCnew_2019_Jun_13_0809_94,False,2019_Jun_13_0809,2IFCnew,,JOSU26,
2IFCnew,47,0,47,0,-1,1,Yes,8.7,-1,Hit,0.570171707775,True,False,stimulusJOSU26_2IFCnew_2019_Jun_13_0809_95,stimulusJOSU26_2IFCnew_2019_Jun_13_0809_96,False,2019_Jun_13_0809,2IFCnew,,JOSU26,
2IFCnew,48,0,48,0,-1,1,Yes,8.7,-1,Hit,0.535983311944,True,False,stimulusJOSU26_2IFCnew_2019_Jun_13_0809_97,stimulusJOSU26_2IFCnew_2019_Jun_13_0809_98,False,2019_Jun_13_0809,2IFCnew,,JOSU26,
2IFCnew,49,0,49,0,-1,1,Yes,8.7,-1,Hit,0.470402764156,True,False,stimulusJOSU26_2IFCnew_2019_Jun_13_0809_99,stimulusJOSU26_2IFCnew_2019_Jun_13_0809_100,False,2019_Jun_13_0809,2IFCnew,,JOSU26,
2IFCnew,50,0,50,0,-1,1,Yes,8.7,-1,Hit,0.40057879081,True,False,stimulusJOSU26_2IFCnew_2019_Jun_13_0809_101,stimulusJOSU26_2IFCnew_2019_Jun_13_0809_102,False,2019_Jun_13_0809,2IFCnew,,JOSU26,
2IFCnew,51,0,51,0,-1,3,Yes,8.7,-1,Hit,0.600315793883,False,True,stimulusJOSU26_2IFCnew_2019_Jun_13_0809_103,stimulusJOSU26_2IFCnew_2019_Jun_13_0809_104,False,2019_Jun_13_0809,2IFCnew,,JOSU26,
2IFCnew,52,0,52,0,-1,3,Yes,8.7,-1,Hit,0.666453455575,False,True,stimulusJOSU26_2IFCnew_2019_Jun_13_0809_105,stimulusJOSU26_2IFCnew_2019_Jun_13_0809_106,False,2019_Jun_13_0809,2IFCnew,,JOSU26,
2IFCnew,53,0,53,0,0.500426969957,5,Yes,8.7,-1,Hit,0.499906805344,False,True,stimulusJOSU26_2IFCnew_2019_Jun_13_0809_107,stimulusJOSU26_2IFCnew_2019_Jun_13_0809_108,False,2019_Jun_13_0809,2IFCnew,,JOSU26,
2IFCnew,54,0,54,0,-1,1,Yes,8.7,-1,Hit,0.500497994944,True,False,stimulusJOSU26_2IFCnew_2019_Jun_13_0809_109,stimulusJOSU26_2IFCnew_2019_Jun_13_0809_110,False,2019_Jun_13_0809,2IFCnew,,JOSU26,
2IFCnew,55,0,55,0,-1,1,Yes,8.7,-1,Hit,0.503522502724,True,False,stimulusJOSU26_2IFCnew_2019_Jun_13_0809_111,stimulusJOSU26_2IFCnew_2019_Jun_13_0809_112,False,2019_Jun_13_0809,2IFCnew,,JOSU26,
2IFCnew,56,0,56,0,-1,1,Yes,8.7,-1,Hit,0.434524552431,True,False,stimulusJOSU26_2IFCnew_2019_Jun_13_0809_113,stimulusJOSU26_2IFCnew_2019_Jun_13_0809_114,False,2019_Jun_13_0809,2IFCnew,,JOSU26,
2IFCnew,57,0,57,0,-1,3,Yes,8.7,-1,Hit,0.434053243138,False,True,stimulusJOSU26_2IFCnew_2019_Jun_13_0809_115,stimulusJOSU26_2IFCnew_2019_Jun_13_0809_116,False,2019_Jun_13_0809,2IFCnew,,JOSU26,
2IFCnew,58,0,58,0,0.402744842693,5,Yes,8.7,-1,Hit,0.535087906756,False,True,stimulusJOSU26_2IFCnew_2019_Jun_13_0809_117,stimulusJOSU26_2IFCnew_2019_Jun_13_0809_118,False,2019_Jun_13_0809,2IFCnew,,JOSU26,
2IFCnew,59,0,59,0,-1,3,Yes,8.7,-1,Hit,0.632115209941,False,True,stimulusJOSU26_2IFCnew_2019_Jun_13_0809_119,stimulusJOSU26_2IFCnew_2019_Jun_13_0809_120,False,2019_Jun_13_0809,2IFCnew,,JOSU26,
2IFCnew,60,0,60,0,-1,1,Yes,8.7,-1,Hit,0.533552045934,True,False,stimulusJOSU26_2IFCnew_2019_Jun_13_0809_121,stimulusJOSU26_2IFCnew_2019_Jun_13_0809_122,False,2019_Jun_13_0809,2IFCnew,,JOSU26,
2IFCnew,61,0,61,0,-1,1,Yes,8.7,-1,Hit,0.466987003572,True,False,stimulusJOSU26_2IFCnew_2019_Jun_13_0809_123,stimulusJOSU26_2IFCnew_2019_Jun_13_0809_124,False,2019_Jun_13_0809,2IFCnew,,JOSU26,
2IFCnew,62,0,62,0,-1,1,Yes,8.7,-1,Hit,0.532995342743,True,False,stimulusJOSU26_2IFCnew_2019_Jun_13_0809_125,stimulusJOSU26_2IFCnew_2019_Jun_13_0809_126,False,2019_Jun_13_0809,2IFCnew,,JOSU26,
2IFCnew,63,0,63,0,-1,3,Yes,8.7,-1,Hit,0.559505256824,False,True,stimulusJOSU26_2IFCnew_2019_Jun_13_0809_127,stimulusJOSU26_2IFCnew_2019_Jun_13_0809_128,False,2019_Jun_13_0809,2IFCnew,,JOSU26,
2IFCnew,64,0,64,0,-1,3,Yes,8.7,-1,Hit,0.637036450207,False,True,stimulusJOSU26_2IFCnew_2019_Jun_13_0809_129,stimulusJOSU26_2IFCnew_2019_Jun_13_0809_130,False,2019_Jun_13_0809,2IFCnew,,JOSU26,
2IFCnew,65,0,65,0,0.534426513128,5,Yes,8.7,-1,Hit,0.49959766306,False,True,stimulusJOSU26_2IFCnew_2019_Jun_13_0809_131,stimulusJOSU26_2IFCnew_2019_Jun_13_0809_132,False,2019_Jun_13_0809,2IFCnew,,JOSU26,
2IFCnew,66,0,66,0,0.542132912204,5,Yes,8.7,-1,Hit,0.533533981536,False,True,stimulusJOSU26_2IFCnew_2019_Jun_13_0809_133,stimulusJOSU26_2IFCnew_2019_Jun_13_0809_134,False,2019_Jun_13_0809,2IFCnew,,JOSU26,
2IFCnew,67,0,67,0,-1,1,Yes,8.7,-1,Hit,0.526834247168,True,False,stimulusJOSU26_2IFCnew_2019_Jun_13_0809_135,stimulusJOSU26_2IFCnew_2019_Jun_13_0809_136,False,2019_Jun_13_0809,2IFCnew,,JOSU26,
2IFCnew,68,0,68,0,-1,3,Yes,8.7,-1,Hit,0.571040838026,False,True,stimulusJOSU26_2IFCnew_2019_Jun_13_0809_137,stimulusJOSU26_2IFCnew_2019_Jun_13_0809_138,False,2019_Jun_13_0809,2IFCnew,,JOSU26,
2IFCnew,69,0,69,0,-1,3,Yes,8.7,-1,Hit,0.533956846222,False,True,stimulusJOSU26_2IFCnew_2019_Jun_13_0809_139,stimulusJOSU26_2IFCnew_2019_Jun_13_0809_140,False,2019_Jun_13_0809,2IFCnew,,JOSU26,
2IFCnew,70,0,70,0,-1,3,Yes,8.7,-1,Hit,0.599276696332,False,True,stimulusJOSU26_2IFCnew_2019_Jun_13_0809_141,stimulusJOSU26_2IFCnew_2019_Jun_13_0809_142,False,2019_Jun_13_0809,2IFCnew,,JOSU26,
2IFCnew,71,0,71,0,0.36742620822,5,Yes,8.7,-1,Hit,0.599998439662,False,True,stimulusJOSU26_2IFCnew_2019_Jun_13_0809_143,stimulusJOSU26_2IFCnew_2019_Jun_13_0809_144,False,2019_Jun_13_0809,2IFCnew,,JOSU26,
2IFCnew,72,0,72,0,-1,3,Yes,8.7,-1,Hit,0.502961694263,False,True,stimulusJOSU26_2IFCnew_2019_Jun_13_0809_145,stimulusJOSU26_2IFCnew_2019_Jun_13_0809_146,False,2019_Jun_13_0809,2IFCnew,,JOSU26,
2IFCnew,73,0,73,0,-1,1,Yes,8.7,-1,Hit,0.466479976662,True,False,stimulusJOSU26_2IFCnew_2019_Jun_13_0809_147,stimulusJOSU26_2IFCnew_2019_Jun_13_0809_148,False,2019_Jun_13_0809,2IFCnew,,JOSU26,
2IFCnew,74,0,74,0,-1,3,Yes,8.7,-1,Hit,0.43513257429,False,True,stimulusJOSU26_2IFCnew_2019_Jun_13_0809_149,stimulusJOSU26_2IFCnew_2019_Jun_13_0809_150,False,2019_Jun_13_0809,2IFCnew,,JOSU26,
2IFCnew,0,0,0,0,-1,0,Yes,7.6,-1,No Answer,-1,False,True,stimulusJOSU26_2IFCnew_2019_Jun_13_0809_151,stimulusJOSU26_2IFCnew_2019_Jun_13_0809_152,False,2019_Jun_13_0809,2IFCnew,,JOSU26,
2IFCnew,1,0,1,0,-1,1,Yes,7.6,-1,Hit,0.570070302114,True,False,stimulusJOSU26_2IFCnew_2019_Jun_13_0809_153,stimulusJOSU26_2IFCnew_2019_Jun_13_0809_154,False,2019_Jun_13_0809,2IFCnew,,JOSU26,
2IFCnew,2,0,2,0,-1,1,Yes,7.6,-1,Hit,0.629265184514,True,False,stimulusJOSU26_2IFCnew_2019_Jun_13_0809_155,stimulusJOSU26_2IFCnew_2019_Jun_13_0809_156,False,2019_Jun_13_0809,2IFCnew,,JOSU26,
2IFCnew,3,0,3,0,-1,3,Yes,7.6,-1,Hit,0.467113863211,False,True,stimulusJOSU26_2IFCnew_2019_Jun_13_0809_157,stimulusJOSU26_2IFCnew_2019_Jun_13_0809_158,False,2019_Jun_13_0809,2IFCnew,,JOSU26,
2IFCnew,4,0,4,0,-1,3,Yes,7.6,-1,Hit,0.465178949758,False,True,stimulusJOSU26_2IFCnew_2019_Jun_13_0809_159,stimulusJOSU26_2IFCnew_2019_Jun_13_0809_160,False,2019_Jun_13_0809,2IFCnew,,JOSU26,
2IFCnew,5,0,5,0,-1,1,Yes,7.6,-1,Hit,0.500598989893,True,False,stimulusJOSU26_2IFCnew_2019_Jun_13_0809_161,stimulusJOSU26_2IFCnew_2019_Jun_13_0809_162,False,2019_Jun_13_0809,2IFCnew,,JOSU26,
2IFCnew,6,0,6,0,0.502757241018,5,Yes,7.6,-1,Hit,0.537177596707,False,True,stimulusJOSU26_2IFCnew_2019_Jun_13_0809_163,stimulusJOSU26_2IFCnew_2019_Jun_13_0809_164,False,2019_Jun_13_0809,2IFCnew,,JOSU26,
2IFCnew,7,0,7,0,-1,3,Yes,7.6,-1,Hit,0.567599212751,False,True,stimulusJOSU26_2IFCnew_2019_Jun_13_0809_165,stimulusJOSU26_2IFCnew_2019_Jun_13_0809_166,False,2019_Jun_13_0809,2IFCnew,,JOSU26,
2IFCnew,8,0,8,0,-1,3,Yes,7.6,-1,Hit,0.502613959834,False,True,stimulusJOSU26_2IFCnew_2019_Jun_13_0809_167,stimulusJOSU26_2IFCnew_2019_Jun_13_0809_168,False,2019_Jun_13_0809,2IFCnew,,JOSU26,
2IFCnew,9,0,9,0,-1,1,Yes,7.6,-1,Hit,0.433392671403,True,False,stimulusJOSU26_2IFCnew_2019_Jun_13_0809_169,stimulusJOSU26_2IFCnew_2019_Jun_13_0809_170,False,2019_Jun_13_0809,2IFCnew,,JOSU26,
2IFCnew,10,0,10,0,-1,1,Yes,7.6,-1,Hit,0.466814573389,True,False,stimulusJOSU26_2IFCnew_2019_Jun_13_0809_171,stimulusJOSU26_2IFCnew_2019_Jun_13_0809_172,False,2019_Jun_13_0809,2IFCnew,,JOSU26,
2IFCnew,11,0,11,0,-1,1,Yes,7.6,-1,Hit,0.434056527913,True,False,stimulusJOSU26_2IFCnew_2019_Jun_13_0809_173,stimulusJOSU26_2IFCnew_2019_Jun_13_0809_174,False,2019_Jun_13_0809,2IFCnew,,JOSU26,
2IFCnew,12,0,12,0,0.500605148263,6,No,7.6,-1,Hit,0.602269592229,True,False,stimulusJOSU26_2IFCnew_2019_Jun_13_0809_175,stimulusJOSU26_2IFCnew_2019_Jun_13_0809_176,False,2019_Jun_13_0809,2IFCnew,,JOSU26,
2IFCnew,13,0,13,0,0.502035497688,2,Yes,7.6,-1,Hit,0.40185559541,False,True,stimulusJOSU26_2IFCnew_2019_Jun_13_0809_177,stimulusJOSU26_2IFCnew_2019_Jun_13_0809_178,False,2019_Jun_13_0809,2IFCnew,,JOSU26,
2IFCnew,14,0,14,0,-1,2,Yes,7.6,-1,False Alarm,0.632818478625,False,True,stimulusJOSU26_2IFCnew_2019_Jun_13_0809_179,stimulusJOSU26_2IFCnew_2019_Jun_13_0809_180,False,2019_Jun_13_0809,2IFCnew,,JOSU26,
2IFCnew,15,0,15,0,-1,1,Yes,7.6,-1,Hit,0.502124586608,True,False,stimulusJOSU26_2IFCnew_2019_Jun_13_0809_181,stimulusJOSU26_2IFCnew_2019_Jun_13_0809_182,False,2019_Jun_13_0809,2IFCnew,,JOSU26,
2IFCnew,16,0,16,0,-1,1,Yes,7.6,-1,Hit,0.433796240017,True,False,stimulusJOSU26_2IFCnew_2019_Jun_13_0809_183,stimulusJOSU26_2IFCnew_2019_Jun_13_0809_184,False,2019_Jun_13_0809,2IFCnew,,JOSU26,
2IFCnew,17,0,17,0,-1,3,Yes,7.6,-1,Hit,0.468771245796,False,True,stimulusJOSU26_2IFCnew_2019_Jun_13_0809_185,stimulusJOSU26_2IFCnew_2019_Jun_13_0809_186,False,2019_Jun_13_0809,2IFCnew,,JOSU26,
2IFCnew,18,0,18,0,-1,3,Yes,7.6,-1,Hit,0.499717542902,False,True,stimulusJOSU26_2IFCnew_2019_Jun_13_0809_187,stimulusJOSU26_2IFCnew_2019_Jun_13_0809_188,False,2019_Jun_13_0809,2IFCnew,,JOSU26,
2IFCnew,19,0,19,0,-1,1,Yes,7.6,-1,Hit,0.559048316907,True,False,stimulusJOSU26_2IFCnew_2019_Jun_13_0809_189,stimulusJOSU26_2IFCnew_2019_Jun_13_0809_190,False,2019_Jun_13_0809,2IFCnew,,JOSU26,
2IFCnew,20,0,20,0,-1,1,Yes,7.6,-1,Hit,0.457350207493,True,False,stimulusJOSU26_2IFCnew_2019_Jun_13_0809_191,stimulusJOSU26_2IFCnew_2019_Jun_13_0809_192,False,2019_Jun_13_0809,2IFCnew,,JOSU26,
2IFCnew,21,0,21,0,-1,3,Yes,7.6,-1,Hit,0.400324251037,False,True,stimulusJOSU26_2IFCnew_2019_Jun_13_0809_193,stimulusJOSU26_2IFCnew_2019_Jun_13_0809_194,False,2019_Jun_13_0809,2IFCnew,,JOSU26,
2IFCnew,22,0,22,0,-1,3,Yes,7.6,-1,Hit,0.534210565034,False,True,stimulusJOSU26_2IFCnew_2019_Jun_13_0809_195,stimulusJOSU26_2IFCnew_2019_Jun_13_0809_196,False,2019_Jun_13_0809,2IFCnew,,JOSU26,
2IFCnew,23,0,23,0,-1,1,Yes,7.6,-1,Hit,0.634182319511,True,False,stimulusJOSU26_2IFCnew_2019_Jun_13_0809_197,stimulusJOSU26_2IFCnew_2019_Jun_13_0809_198,False,2019_Jun_13_0809,2IFCnew,,JOSU26,
2IFCnew,24,0,24,0,-1,1,Yes,7.6,-1,Hit,0.401250036899,True,False,stimulusJOSU26_2IFCnew_2019_Jun_13_0809_199,stimulusJOSU26_2IFCnew_2019_Jun_13_0809_200,False,2019_Jun_13_0809,2IFCnew,,JOSU26,
2IFCnew,25,0,25,0,-1,3,Yes,7.6,-1,Hit,0.59339805739,False,True,stimulusJOSU26_2IFCnew_2019_Jun_13_0809_201,stimulusJOSU26_2IFCnew_2019_Jun_13_0809_202,False,2019_Jun_13_0809,2IFCnew,,JOSU26,
2IFCnew,26,0,26,0,-1,3,Yes,7.6,-1,Hit,0.567404202651,False,True,stimulusJOSU26_2IFCnew_2019_Jun_13_0809_203,stimulusJOSU26_2IFCnew_2019_Jun_13_0809_204,False,2019_Jun_13_0809,2IFCnew,,JOSU26,
2IFCnew,27,0,27,0,-1,3,Yes,7.6,-1,Hit,0.332700815517,False,True,stimulusJOSU26_2IFCnew_2019_Jun_13_0809_205,stimulusJOSU26_2IFCnew_2019_Jun_13_0809_206,False,2019_Jun_13_0809,2IFCnew,,JOSU26,
2IFCnew,28,0,28,0,-1,3,Yes,7.6,-1,Hit,0.500605969224,False,True,stimulusJOSU26_2IFCnew_2019_Jun_13_0809_207,stimulusJOSU26_2IFCnew_2019_Jun_13_0809_208,False,2019_Jun_13_0809,2IFCnew,,JOSU26,
2IFCnew,29,0,29,0,-1,1,Yes,7.6,-1,Hit,0.467524000909,True,False,stimulusJOSU26_2IFCnew_2019_Jun_13_0809_209,stimulusJOSU26_2IFCnew_2019_Jun_13_0809_210,False,2019_Jun_13_0809,2IFCnew,,JOSU26,
2IFCnew,30,0,30,0,-1,3,Yes,7.6,-1,Hit,0.471459514927,False,True,stimulusJOSU26_2IFCnew_2019_Jun_13_0809_211,stimulusJOSU26_2IFCnew_2019_Jun_13_0809_212,False,2019_Jun_13_0809,2IFCnew,,JOSU26,
2IFCnew,31,0,31,0,-1,3,Yes,7.6,-1,Hit,0.565842888318,False,True,stimulusJOSU26_2IFCnew_2019_Jun_13_0809_213,stimulusJOSU26_2IFCnew_2019_Jun_13_0809_214,False,2019_Jun_13_0809,2IFCnew,,JOSU26,
2IFCnew,32,0,32,0,0.533829165623,6,No,7.6,-1,Hit,0.557242315263,True,False,stimulusJOSU26_2IFCnew_2019_Jun_13_0809_215,stimulusJOSU26_2IFCnew_2019_Jun_13_0809_216,False,2019_Jun_13_0809,2IFCnew,,JOSU26,
2IFCnew,33,0,33,0,-1,1,No,7.6,-1,Hit,0.466538274661,True,False,stimulusJOSU26_2IFCnew_2019_Jun_13_0809_217,stimulusJOSU26_2IFCnew_2019_Jun_13_0809_218,False,2019_Jun_13_0809,2IFCnew,,JOSU26,
2IFCnew,34,0,34,0,-1,1,No,7.6,-1,Hit,0.469996732194,True,False,stimulusJOSU26_2IFCnew_2019_Jun_13_0809_219,stimulusJOSU26_2IFCnew_2019_Jun_13_0809_220,False,2019_Jun_13_0809,2IFCnew,,JOSU26,
2IFCnew,35,0,35,0,-1,3,No,7.6,-1,Hit,0.459014980122,False,True,stimulusJOSU26_2IFCnew_2019_Jun_13_0809_221,stimulusJOSU26_2IFCnew_2019_Jun_13_0809_222,False,2019_Jun_13_0809,2IFCnew,,JOSU26,
2IFCnew,36,0,36,0,0.468060587067,5,Yes,7.6,-1,Hit,0.434069665149,False,True,stimulusJOSU26_2IFCnew_2019_Jun_13_0809_223,stimulusJOSU26_2IFCnew_2019_Jun_13_0809_224,False,2019_Jun_13_0809,2IFCnew,,JOSU26,
2IFCnew,37,0,37,0,-1,3,Yes,7.6,-1,Hit,0.400711808354,False,True,stimulusJOSU26_2IFCnew_2019_Jun_13_0809_225,stimulusJOSU26_2IFCnew_2019_Jun_13_0809_226,False,2019_Jun_13_0809,2IFCnew,,JOSU26,
2IFCnew,38,0,38,0,-1,3,Yes,7.6,-1,Hit,0.400999192148,False,True,stimulusJOSU26_2IFCnew_2019_Jun_13_0809_227,stimulusJOSU26_2IFCnew_2019_Jun_13_0809_228,False,2019_Jun_13_0809,2IFCnew,,JOSU26,
2IFCnew,39,0,39,0,-1,3,Yes,7.6,-1,Hit,0.490939613432,False,True,stimulusJOSU26_2IFCnew_2019_Jun_13_0809_229,stimulusJOSU26_2IFCnew_2019_Jun_13_0809_230,False,2019_Jun_13_0809,2IFCnew,,JOSU26,
2IFCnew,40,0,40,0,-1,3,Yes,7.6,-1,Hit,0.43531403644,False,True,stimulusJOSU26_2IFCnew_2019_Jun_13_0809_231,stimulusJOSU26_2IFCnew_2019_Jun_13_0809_232,False,2019_Jun_13_0809,2IFCnew,,JOSU26,
2IFCnew,41,0,41,0,-1,1,Yes,7.6,-1,Hit,0.462412676308,True,False,stimulusJOSU26_2IFCnew_2019_Jun_13_0809_233,stimulusJOSU26_2IFCnew_2019_Jun_13_0809_234,False,2019_Jun_13_0809,2IFCnew,,JOSU26,
2IFCnew,42,0,42,0,-1,1,Yes,7.6,-1,Hit,0.569820689037,True,False,stimulusJOSU26_2IFCnew_2019_Jun_13_0809_235,stimulusJOSU26_2IFCnew_2019_Jun_13_0809_236,False,2019_Jun_13_0809,2IFCnew,,JOSU26,
2IFCnew,43,0,43,0,0.400113229174,5,Yes,7.6,-1,Hit,0.46707157651,False,True,stimulusJOSU26_2IFCnew_2019_Jun_13_0809_237,stimulusJOSU26_2IFCnew_2019_Jun_13_0809_238,False,2019_Jun_13_0809,2IFCnew,,JOSU26,
2IFCnew,44,0,44,0,0.501909049228,5,Yes,7.6,-1,Hit,0.498978966847,False,True,stimulusJOSU26_2IFCnew_2019_Jun_13_0809_239,stimulusJOSU26_2IFCnew_2019_Jun_13_0809_240,False,2019_Jun_13_0809,2IFCnew,,JOSU26,
2IFCnew,45,0,45,0,-1,3,Yes,7.6,-1,Hit,0.397290300112,False,True,stimulusJOSU26_2IFCnew_2019_Jun_13_0809_241,stimulusJOSU26_2IFCnew_2019_Jun_13_0809_242,False,2019_Jun_13_0809,2IFCnew,,JOSU26,
2IFCnew,46,0,46,0,-1,1,Yes,7.6,-1,Hit,0.466472176369,True,False,stimulusJOSU26_2IFCnew_2019_Jun_13_0809_243,stimulusJOSU26_2IFCnew_2019_Jun_13_0809_244,False,2019_Jun_13_0809,2IFCnew,,JOSU26,
2IFCnew,47,0,47,0,-1,3,Yes,7.6,-1,Hit,0.524949830957,False,True,stimulusJOSU26_2IFCnew_2019_Jun_13_0809_245,stimulusJOSU26_2IFCnew_2019_Jun_13_0809_246,False,2019_Jun_13_0809,2IFCnew,,JOSU26,
2IFCnew,48,0,48,0,-1,3,Yes,7.6,-1,Hit,0.496216388419,False,True,stimulusJOSU26_2IFCnew_2019_Jun_13_0809_247,stimulusJOSU26_2IFCnew_2019_Jun_13_0809_248,False,2019_Jun_13_0809,2IFCnew,,JOSU26,
2IFCnew,49,0,49,0,-1,3,Yes,7.6,-1,Hit,0.435636316892,False,True,stimulusJOSU26_2IFCnew_2019_Jun_13_0809_249,stimulusJOSU26_2IFCnew_2019_Jun_13_0809_250,False,2019_Jun_13_0809,2IFCnew,,JOSU26,
2IFCnew,50,0,50,0,-1,1,Yes,7.6,-1,Hit,0.50063470751,True,False,stimulusJOSU26_2IFCnew_2019_Jun_13_0809_251,stimulusJOSU26_2IFCnew_2019_Jun_13_0809_252,False,2019_Jun_13_0809,2IFCnew,,JOSU26,
2IFCnew,51,0,51,0,-1,3,Yes,7.6,-1,Hit,0.46618273994,False,True,stimulusJOSU26_2IFCnew_2019_Jun_13_0809_253,stimulusJOSU26_2IFCnew_2019_Jun_13_0809_254,False,2019_Jun_13_0809,2IFCnew,,JOSU26,
2IFCnew,52,0,52,0,-1,3,Yes,7.6,-1,Hit,0.499715079553,False,True,stimulusJOSU26_2IFCnew_2019_Jun_13_0809_255,stimulusJOSU26_2IFCnew_2019_Jun_13_0809_256,False,2019_Jun_13_0809,2IFCnew,,JOSU26,
2IFCnew,53,0,53,0,-1,1,Yes,7.6,-1,Hit,0.600495202933,True,False,stimulusJOSU26_2IFCnew_2019_Jun_13_0809_257,stimulusJOSU26_2IFCnew_2019_Jun_13_0809_258,False,2019_Jun_13_0809,2IFCnew,,JOSU26,
2IFCnew,54,0,54,0,-1,1,Yes,7.6,-1,Hit,0.434275760315,True,False,stimulusJOSU26_2IFCnew_2019_Jun_13_0809_259,stimulusJOSU26_2IFCnew_2019_Jun_13_0809_260,False,2019_Jun_13_0809,2IFCnew,,JOSU26,
2IFCnew,55,0,55,0,0.5340808318,8,No,7.6,-1,False Alarm,0.400544304866,False,True,stimulusJOSU26_2IFCnew_2019_Jun_13_0809_261,stimulusJOSU26_2IFCnew_2019_Jun_13_0809_262,False,2019_Jun_13_0809,2IFCnew,,JOSU26,
2IFCnew,56,0,56,0,0.467338843271,6,No,7.6,-1,Hit,0.468854176812,True,False,stimulusJOSU26_2IFCnew_2019_Jun_13_0809_263,stimulusJOSU26_2IFCnew_2019_Jun_13_0809_264,False,2019_Jun_13_0809,2IFCnew,,JOSU26,
2IFCnew,57,0,57,0,-1,1,No,7.6,-1,Hit,0.467911147512,True,False,stimulusJOSU26_2IFCnew_2019_Jun_13_0809_265,stimulusJOSU26_2IFCnew_2019_Jun_13_0809_266,False,2019_Jun_13_0809,2IFCnew,,JOSU26,
2IFCnew,58,0,58,0,-1,3,No,7.6,-1,Hit,0.402279281057,False,True,stimulusJOSU26_2IFCnew_2019_Jun_13_0809_267,stimulusJOSU26_2IFCnew_2019_Jun_13_0809_268,False,2019_Jun_13_0809,2IFCnew,,JOSU26,
2IFCnew,59,0,59,0,0.400356273632,5,Yes,7.6,-1,Hit,0.603530385531,False,True,stimulusJOSU26_2IFCnew_2019_Jun_13_0809_269,stimulusJOSU26_2IFCnew_2019_Jun_13_0809_270,False,2019_Jun_13_0809,2IFCnew,,JOSU26,
2IFCnew,60,0,60,0,-1,1,Yes,7.6,-1,Hit,0.567005560268,True,False,stimulusJOSU26_2IFCnew_2019_Jun_13_0809_271,stimulusJOSU26_2IFCnew_2019_Jun_13_0809_272,False,2019_Jun_13_0809,2IFCnew,,JOSU26,
2IFCnew,61,0,61,0,0.532404974569,4,Yes,7.6,-1,False Alarm,0.664521415718,True,False,stimulusJOSU26_2IFCnew_2019_Jun_13_0809_273,stimulusJOSU26_2IFCnew_2019_Jun_13_0809_274,False,2019_Jun_13_0809,2IFCnew,,JOSU26,
2IFCnew,62,0,62,0,-1,1,Yes,7.6,-1,Hit,0.73557333881,True,False,stimulusJOSU26_2IFCnew_2019_Jun_13_0809_275,stimulusJOSU26_2IFCnew_2019_Jun_13_0809_276,False,2019_Jun_13_0809,2IFCnew,,JOSU26,
2IFCnew,63,0,63,0,-1,1,Yes,7.6,-1,Hit,0.633952412754,True,False,stimulusJOSU26_2IFCnew_2019_Jun_13_0809_277,stimulusJOSU26_2IFCnew_2019_Jun_13_0809_278,False,2019_Jun_13_0809,2IFCnew,,JOSU26,
2IFCnew,64,0,64,0,-1,1,Yes,7.6,-1,Hit,0.434120983817,True,False,stimulusJOSU26_2IFCnew_2019_Jun_13_0809_279,stimulusJOSU26_2IFCnew_2019_Jun_13_0809_280,False,2019_Jun_13_0809,2IFCnew,,JOSU26,
2IFCnew,65,0,65,0,-1,3,Yes,7.6,-1,Hit,0.499069287442,False,True,stimulusJOSU26_2IFCnew_2019_Jun_13_0809_281,stimulusJOSU26_2IFCnew_2019_Jun_13_0809_282,False,2019_Jun_13_0809,2IFCnew,,JOSU26,
2IFCnew,66,0,66,0,-1,3,Yes,7.6,-1,Hit,0.524135303684,False,True,stimulusJOSU26_2IFCnew_2019_Jun_13_0809_283,stimulusJOSU26_2IFCnew_2019_Jun_13_0809_284,False,2019_Jun_13_0809,2IFCnew,,JOSU26,
2IFCnew,67,0,67,0,-1,3,Yes,7.6,-1,Hit,0.536268643104,False,True,stimulusJOSU26_2IFCnew_2019_Jun_13_0809_285,stimulusJOSU26_2IFCnew_2019_Jun_13_0809_286,False,2019_Jun_13_0809,2IFCnew,,JOSU26,
2IFCnew,68,0,68,0,-1,1,Yes,7.6,-1,Hit,0.466844543349,True,False,stimulusJOSU26_2IFCnew_2019_Jun_13_0809_287,stimulusJOSU26_2IFCnew_2019_Jun_13_0809_288,False,2019_Jun_13_0809,2IFCnew,,JOSU26,
2IFCnew,69,0,69,0,-1,1,Yes,7.6,-1,Hit,0.473784038331,True,False,stimulusJOSU26_2IFCnew_2019_Jun_13_0809_289,stimulusJOSU26_2IFCnew_2019_Jun_13_0809_290,False,2019_Jun_13_0809,2IFCnew,,JOSU26,
2IFCnew,70,0,70,0,-1,3,Yes,7.6,-1,Hit,0.499900647439,False,True,stimulusJOSU26_2IFCnew_2019_Jun_13_0809_291,stimulusJOSU26_2IFCnew_2019_Jun_13_0809_292,False,2019_Jun_13_0809,2IFCnew,,JOSU26,
2IFCnew,71,0,71,0,0.333778094035,6,No,7.6,-1,Hit,0.525323840324,True,False,stimulusJOSU26_2IFCnew_2019_Jun_13_0809_293,stimulusJOSU26_2IFCnew_2019_Jun_13_0809_294,False,2019_Jun_13_0809,2IFCnew,,JOSU26,
2IFCnew,72,0,72,0,-1,1,No,7.6,-1,Hit,0.567557337228,True,False,stimulusJOSU26_2IFCnew_2019_Jun_13_0809_295,stimulusJOSU26_2IFCnew_2019_Jun_13_0809_296,False,2019_Jun_13_0809,2IFCnew,,JOSU26,
2IFCnew,73,0,73,0,-1,3,No,7.6,-1,Hit,0.502836477011,False,True,stimulusJOSU26_2IFCnew_2019_Jun_13_0809_297,stimulusJOSU26_2IFCnew_2019_Jun_13_0809_298,False,2019_Jun_13_0809,2IFCnew,,JOSU26,
2IFCnew,74,0,74,0,0.545327387284,1,No,7.6,-1,Hit,0.500961093232,True,False,stimulusJOSU26_2IFCnew_2019_Jun_13_0809_299,stimulusJOSU26_2IFCnew_2019_Jun_13_0809_300,False,2019_Jun_13_0809,2IFCnew,,JOSU26,
2IFCnew,0,0,0,0,-1,0,No,4,-1,No Answer,-1,False,True,stimulusJOSU26_2IFCnew_2019_Jun_13_0809_301,stimulusJOSU26_2IFCnew_2019_Jun_13_0809_302,False,2019_Jun_13_0809,2IFCnew,,JOSU26,
2IFCnew,1,0,1,0,-1,4,No,4,-1,False Alarm,0.525674859062,True,False,stimulusJOSU26_2IFCnew_2019_Jun_13_0809_303,stimulusJOSU26_2IFCnew_2019_Jun_13_0809_304,False,2019_Jun_13_0809,2IFCnew,,JOSU26,
2IFCnew,2,0,2,0,-1,3,No,4,-1,Hit,0.467937422451,False,True,stimulusJOSU26_2IFCnew_2019_Jun_13_0809_305,stimulusJOSU26_2IFCnew_2019_Jun_13_0809_306,False,2019_Jun_13_0809,2IFCnew,,JOSU26,
2IFCnew,3,0,3,0,-1,3,No,4,-1,Hit,0.467613500077,False,True,stimulusJOSU26_2IFCnew_2019_Jun_13_0809_307,stimulusJOSU26_2IFCnew_2019_Jun_13_0809_308,False,2019_Jun_13_0809,2IFCnew,,JOSU26,
2IFCnew,4,0,4,0,-1,3,No,4,-1,Hit,0.501048950478,False,True,stimulusJOSU26_2IFCnew_2019_Jun_13_0809_309,stimulusJOSU26_2IFCnew_2019_Jun_13_0809_310,False,2019_Jun_13_0809,2IFCnew,,JOSU26,
2IFCnew,5,0,5,0,-1,1,No,4,-1,Hit,0.631431647111,True,False,stimulusJOSU26_2IFCnew_2019_Jun_13_0809_311,stimulusJOSU26_2IFCnew_2019_Jun_13_0809_312,False,2019_Jun_13_0809,2IFCnew,,JOSU26,
2IFCnew,6,0,6,0,0.600076443981,6,No,4,-1,Hit,0.532225565054,True,False,stimulusJOSU26_2IFCnew_2019_Jun_13_0809_313,stimulusJOSU26_2IFCnew_2019_Jun_13_0809_314,False,2019_Jun_13_0809,2IFCnew,,JOSU26,
2IFCnew,7,0,7,0,-1,1,No,4,-1,Hit,0.40413003182,True,False,stimulusJOSU26_2IFCnew_2019_Jun_13_0809_315,stimulusJOSU26_2IFCnew_2019_Jun_13_0809_316,False,2019_Jun_13_0809,2IFCnew,,JOSU26,
2IFCnew,8,0,8,0,-1,1,No,4,-1,Hit,0.500782504678,True,False,stimulusJOSU26_2IFCnew_2019_Jun_13_0809_317,stimulusJOSU26_2IFCnew_2019_Jun_13_0809_318,False,2019_Jun_13_0809,2IFCnew,,JOSU26,
2IFCnew,9,0,9,0,-1,3,No,4,-1,Hit,0.568812382873,False,True,stimulusJOSU26_2IFCnew_2019_Jun_13_0809_319,stimulusJOSU26_2IFCnew_2019_Jun_13_0809_320,False,2019_Jun_13_0809,2IFCnew,,JOSU26,
2IFCnew,10,0,10,0,-1,3,No,4,-1,Hit,0.493071590085,False,True,stimulusJOSU26_2IFCnew_2019_Jun_13_0809_321,stimulusJOSU26_2IFCnew_2019_Jun_13_0809_322,False,2019_Jun_13_0809,2IFCnew,,JOSU26,
2IFCnew,11,0,11,0,-1,1,No,4,-1,Hit,0.501827760134,True,False,stimulusJOSU26_2IFCnew_2019_Jun_13_0809_323,stimulusJOSU26_2IFCnew_2019_Jun_13_0809_324,False,2019_Jun_13_0809,2IFCnew,,JOSU26,
2IFCnew,12,0,12,0,-1,3,No,4,-1,Hit,0.490423143841,False,True,stimulusJOSU26_2IFCnew_2019_Jun_13_0809_325,stimulusJOSU26_2IFCnew_2019_Jun_13_0809_326,False,2019_Jun_13_0809,2IFCnew,,JOSU26,
2IFCnew,13,0,13,0,0.232650646474,6,No,4,-1,Hit,0.503990116995,True,False,stimulusJOSU26_2IFCnew_2019_Jun_13_0809_327,stimulusJOSU26_2IFCnew_2019_Jun_13_0809_328,False,2019_Jun_13_0809,2IFCnew,,JOSU26,
2IFCnew,14,0,14,0,-1,1,No,4,-1,Hit,0.493848346639,True,False,stimulusJOSU26_2IFCnew_2019_Jun_13_0809_329,stimulusJOSU26_2IFCnew_2019_Jun_13_0809_330,False,2019_Jun_13_0809,2IFCnew,,JOSU26,
2IFCnew,15,0,15,0,-1,1,No,4,-1,Hit,0.701955605298,True,False,stimulusJOSU26_2IFCnew_2019_Jun_13_0809_331,stimulusJOSU26_2IFCnew_2019_Jun_13_0809_332,False,2019_Jun_13_0809,2IFCnew,,JOSU26,
2IFCnew,16,0,16,0,-1,1,No,4,-1,Hit,0.535182742868,True,False,stimulusJOSU26_2IFCnew_2019_Jun_13_0809_333,stimulusJOSU26_2IFCnew_2019_Jun_13_0809_334,False,2019_Jun_13_0809,2IFCnew,,JOSU26,
2IFCnew,17,0,17,0,0.46827037679,6,No,4,-1,Hit,0.70009130612,True,False,stimulusJOSU26_2IFCnew_2019_Jun_13_0809_335,stimulusJOSU26_2IFCnew_2019_Jun_13_0809_336,False,2019_Jun_13_0809,2IFCnew,,JOSU26,
2IFCnew,18,0,18,0,-1,1,No,4,-1,Hit,0.433570848778,True,False,stimulusJOSU26_2IFCnew_2019_Jun_13_0809_337,stimulusJOSU26_2IFCnew_2019_Jun_13_0809_338,False,2019_Jun_13_0809,2IFCnew,,JOSU26,
2IFCnew,19,0,19,0,-1,1,No,4,-1,Hit,0.600870854687,True,False,stimulusJOSU26_2IFCnew_2019_Jun_13_0809_339,stimulusJOSU26_2IFCnew_2019_Jun_13_0809_340,False,2019_Jun_13_0809,2IFCnew,,JOSU26,
2IFCnew,20,0,20,0,-1,2,No,4,-1,False Alarm,0.79893692676,False,True,stimulusJOSU26_2IFCnew_2019_Jun_13_0809_341,stimulusJOSU26_2IFCnew_2019_Jun_13_0809_342,False,2019_Jun_13_0809,2IFCnew,,JOSU26,
2IFCnew,21,0,21,0,-1,4,No,4,-1,False Alarm,0.624967155978,True,False,stimulusJOSU26_2IFCnew_2019_Jun_13_0809_343,stimulusJOSU26_2IFCnew_2019_Jun_13_0809_344,False,2019_Jun_13_0809,2IFCnew,,JOSU26,
2IFCnew,22,0,22,0,-1,3,No,4,-1,Hit,0.535801849794,False,True,stimulusJOSU26_2IFCnew_2019_Jun_13_0809_345,stimulusJOSU26_2IFCnew_2019_Jun_13_0809_346,False,2019_Jun_13_0809,2IFCnew,,JOSU26,
2IFCnew,23,0,23,0,-1,1,No,4,-1,Hit,0.501902480144,True,False,stimulusJOSU26_2IFCnew_2019_Jun_13_0809_347,stimulusJOSU26_2IFCnew_2019_Jun_13_0809_348,False,2019_Jun_13_0809,2IFCnew,,JOSU26,
2IFCnew,24,0,24,0,-1,1,No,4,-1,Hit,0.501732924022,True,False,stimulusJOSU26_2IFCnew_2019_Jun_13_0809_349,stimulusJOSU26_2IFCnew_2019_Jun_13_0809_350,False,2019_Jun_13_0809,2IFCnew,,JOSU26,
2IFCnew,25,0,25,0,-1,3,No,4,-1,Hit,0.432946405374,False,True,stimulusJOSU26_2IFCnew_2019_Jun_13_0809_351,stimulusJOSU26_2IFCnew_2019_Jun_13_0809_352,False,2019_Jun_13_0809,2IFCnew,,JOSU26,
2IFCnew,26,0,26,0,-1,3,No,4,-1,Hit,0.504949978553,False,True,stimulusJOSU26_2IFCnew_2019_Jun_13_0809_353,stimulusJOSU26_2IFCnew_2019_Jun_13_0809_354,False,2019_Jun_13_0809,2IFCnew,,JOSU26,
2IFCnew,27,0,27,0,0.403886987362,5,Yes,4,-1,Hit,0.635769498535,False,True,stimulusJOSU26_2IFCnew_2019_Jun_13_0809_355,stimulusJOSU26_2IFCnew_2019_Jun_13_0809_356,False,2019_Jun_13_0809,2IFCnew,,JOSU26,
2IFCnew,28,0,28,0,-1,2,Yes,4,-1,False Alarm,0.500158060808,False,True,stimulusJOSU26_2IFCnew_2019_Jun_13_0809_357,stimulusJOSU26_2IFCnew_2019_Jun_13_0809_358,False,2019_Jun_13_0809,2IFCnew,,JOSU26,
2IFCnew,29,0,29,0,-1,3,Yes,4,-1,Hit,0.667895300314,False,True,stimulusJOSU26_2IFCnew_2019_Jun_13_0809_359,stimulusJOSU26_2IFCnew_2019_Jun_13_0809_360,False,2019_Jun_13_0809,2IFCnew,,JOSU26,
2IFCnew,30,0,30,0,-1,1,Yes,4,-1,Hit,0.56728924904,True,False,stimulusJOSU26_2IFCnew_2019_Jun_13_0809_361,stimulusJOSU26_2IFCnew_2019_Jun_13_0809_362,False,2019_Jun_13_0809,2IFCnew,,JOSU26,
2IFCnew,31,0,31,0,-1,3,Yes,4,-1,Hit,0.567701029126,False,True,stimulusJOSU26_2IFCnew_2019_Jun_13_0809_363,stimulusJOSU26_2IFCnew_2019_Jun_13_0809_364,False,2019_Jun_13_0809,2IFCnew,,JOSU26,
2IFCnew,32,0,32,0,-1,3,Yes,4,-1,Hit,0.633656407241,False,True,stimulusJOSU26_2IFCnew_2019_Jun_13_0809_365,stimulusJOSU26_2IFCnew_2019_Jun_13_0809_366,False,2019_Jun_13_0809,2IFCnew,,JOSU26,
2IFCnew,33,0,33,0,-1,3,Yes,4,-1,Hit,0.47011373844,False,True,stimulusJOSU26_2IFCnew_2019_Jun_13_0809_367,stimulusJOSU26_2IFCnew_2019_Jun_13_0809_368,False,2019_Jun_13_0809,2IFCnew,,JOSU26,
2IFCnew,34,0,34,0,-1,1,Yes,4,-1,Hit,0.501164314337,True,False,stimulusJOSU26_2IFCnew_2019_Jun_13_0809_369,stimulusJOSU26_2IFCnew_2019_Jun_13_0809_370,False,2019_Jun_13_0809,2IFCnew,,JOSU26,
2IFCnew,35,0,35,0,0.634929106571,5,Yes,4,-1,Hit,0.500709427055,False,True,stimulusJOSU26_2IFCnew_2019_Jun_13_0809_371,stimulusJOSU26_2IFCnew_2019_Jun_13_0809_372,False,2019_Jun_13_0809,2IFCnew,,JOSU26,
2IFCnew,36,0,36,0,-1,2,Yes,4,-1,False Alarm,0.669979242608,False,True,stimulusJOSU26_2IFCnew_2019_Jun_13_0809_373,stimulusJOSU26_2IFCnew_2019_Jun_13_0809_374,False,2019_Jun_13_0809,2IFCnew,,JOSU26,
2IFCnew,37,0,37,0,-1,3,Yes,4,-1,Hit,0.676490946207,False,True,stimulusJOSU26_2IFCnew_2019_Jun_13_0809_375,stimulusJOSU26_2IFCnew_2019_Jun_13_0809_376,False,2019_Jun_13_0809,2IFCnew,,JOSU26,
2IFCnew,38,0,38,0,-1,3,Yes,4,-1,Hit,0.467409868259,False,True,stimulusJOSU26_2IFCnew_2019_Jun_13_0809_377,stimulusJOSU26_2IFCnew_2019_Jun_13_0809_378,False,2019_Jun_13_0809,2IFCnew,,JOSU26,
2IFCnew,39,0,39,0,0.398719828576,6,No,4,-1,Hit,0.566074026749,True,False,stimulusJOSU26_2IFCnew_2019_Jun_13_0809_379,stimulusJOSU26_2IFCnew_2019_Jun_13_0809_380,False,2019_Jun_13_0809,2IFCnew,,JOSU26,
2IFCnew,40,0,40,0,-1,2,No,4,-1,False Alarm,0.498830758967,False,True,stimulusJOSU26_2IFCnew_2019_Jun_13_0809_381,stimulusJOSU26_2IFCnew_2019_Jun_13_0809_382,False,2019_Jun_13_0809,2IFCnew,,JOSU26,
2IFCnew,41,0,41,0,-1,2,No,4,-1,False Alarm,0.532615175005,False,True,stimulusJOSU26_2IFCnew_2019_Jun_13_0809_383,stimulusJOSU26_2IFCnew_2019_Jun_13_0809_384,False,2019_Jun_13_0809,2IFCnew,,JOSU26,
2IFCnew,42,0,42,0,-1,1,No,4,-1,Hit,0.46913047554,True,False,stimulusJOSU26_2IFCnew_2019_Jun_13_0809_385,stimulusJOSU26_2IFCnew_2019_Jun_13_0809_386,False,2019_Jun_13_0809,2IFCnew,,JOSU26,
2IFCnew,43,0,43,0,-1,1,No,4,-1,Hit,0.475007472094,True,False,stimulusJOSU26_2IFCnew_2019_Jun_13_0809_387,stimulusJOSU26_2IFCnew_2019_Jun_13_0809_388,False,2019_Jun_13_0809,2IFCnew,,JOSU26,
2IFCnew,44,0,44,0,-1,2,No,4,-1,False Alarm,0.527619625907,False,True,stimulusJOSU26_2IFCnew_2019_Jun_13_0809_389,stimulusJOSU26_2IFCnew_2019_Jun_13_0809_390,False,2019_Jun_13_0809,2IFCnew,,JOSU26,
2IFCnew,45,0,45,0,-1,1,No,4,-1,Hit,0.566414371133,True,False,stimulusJOSU26_2IFCnew_2019_Jun_13_0809_391,stimulusJOSU26_2IFCnew_2019_Jun_13_0809_392,False,2019_Jun_13_0809,2IFCnew,,JOSU26,
2IFCnew,46,0,46,0,-1,3,No,4,-1,Hit,0.532476820517,False,True,stimulusJOSU26_2IFCnew_2019_Jun_13_0809_393,stimulusJOSU26_2IFCnew_2019_Jun_13_0809_394,False,2019_Jun_13_0809,2IFCnew,,JOSU26,
2IFCnew,47,0,47,0,0.666604537051,7,Yes,4,-1,False Alarm,0.500521807,True,False,stimulusJOSU26_2IFCnew_2019_Jun_13_0809_395,stimulusJOSU26_2IFCnew_2019_Jun_13_0809_396,False,2019_Jun_13_0809,2IFCnew,,JOSU26,
2IFCnew,48,0,48,0,-1,2,Yes,4,-1,False Alarm,0.435458960012,False,True,stimulusJOSU26_2IFCnew_2019_Jun_13_0809_397,stimulusJOSU26_2IFCnew_2019_Jun_13_0809_398,False,2019_Jun_13_0809,2IFCnew,,JOSU26,
2IFCnew,49,0,49,0,-1,2,Yes,4,-1,False Alarm,0.569995992817,False,True,stimulusJOSU26_2IFCnew_2019_Jun_13_0809_399,stimulusJOSU26_2IFCnew_2019_Jun_13_0809_400,False,2019_Jun_13_0809,2IFCnew,,JOSU26,
2IFCnew,50,0,50,0,-1,3,Yes,4,-1,Hit,0.667558650952,False,True,stimulusJOSU26_2IFCnew_2019_Jun_13_0809_401,stimulusJOSU26_2IFCnew_2019_Jun_13_0809_402,False,2019_Jun_13_0809,2IFCnew,,JOSU26,
2IFCnew,51,0,51,0,-1,2,Yes,4,-1,False Alarm,0.666825822555,False,True,stimulusJOSU26_2IFCnew_2019_Jun_13_0809_403,stimulusJOSU26_2IFCnew_2019_Jun_13_0809_404,False,2019_Jun_13_0809,2IFCnew,,JOSU26,
2IFCnew,52,0,52,0,-1,2,Yes,4,-1,False Alarm,0.499571387656,False,True,stimulusJOSU26_2IFCnew_2019_Jun_13_0809_405,stimulusJOSU26_2IFCnew_2019_Jun_13_0809_406,False,2019_Jun_13_0809,2IFCnew,,JOSU26,
2IFCnew,53,0,53,0,-1,2,Yes,4,-1,False Alarm,0.498435811605,False,True,stimulusJOSU26_2IFCnew_2019_Jun_13_0809_407,stimulusJOSU26_2IFCnew_2019_Jun_13_0809_408,False,2019_Jun_13_0809,2IFCnew,,JOSU26,
2IFCnew,54,0,54,0,-1,2,Yes,4,-1,False Alarm,0.53577557439,False,True,stimulusJOSU26_2IFCnew_2019_Jun_13_0809_409,stimulusJOSU26_2IFCnew_2019_Jun_13_0809_410,False,2019_Jun_13_0809,2IFCnew,,JOSU26,
2IFCnew,55,0,55,0,0.633511484135,5,Yes,4,-1,Hit,0.569318588823,False,True,stimulusJOSU26_2IFCnew_2019_Jun_13_0809_411,stimulusJOSU26_2IFCnew_2019_Jun_13_0809_412,False,2019_Jun_13_0809,2IFCnew,,JOSU26,
2IFCnew,56,0,56,0,0.469125959557,5,Yes,4,-1,Hit,0.569045984652,False,True,stimulusJOSU26_2IFCnew_2019_Jun_13_0809_413,stimulusJOSU26_2IFCnew_2019_Jun_13_0809_414,False,2019_Jun_13_0809,2IFCnew,,JOSU26,
2IFCnew,57,0,57,0,-1,1,Yes,4,-1,Hit,0.534713075962,True,False,stimulusJOSU26_2IFCnew_2019_Jun_13_0809_415,stimulusJOSU26_2IFCnew_2019_Jun_13_0809_416,False,2019_Jun_13_0809,2IFCnew,,JOSU26,
2IFCnew,58,0,58,0,-1,1,Yes,4,-1,Hit,0.5973323402,True,False,stimulusJOSU26_2IFCnew_2019_Jun_13_0809_417,stimulusJOSU26_2IFCnew_2019_Jun_13_0809_418,False,2019_Jun_13_0809,2IFCnew,,JOSU26,
2IFCnew,59,0,59,0,-1,3,Yes,4,-1,Hit,0.665856518317,False,True,stimulusJOSU26_2IFCnew_2019_Jun_13_0809_419,stimulusJOSU26_2IFCnew_2019_Jun_13_0809_420,False,2019_Jun_13_0809,2IFCnew,,JOSU26,
2IFCnew,60,0,60,0,-1,3,Yes,4,-1,Hit,0.609595002607,False,True,stimulusJOSU26_2IFCnew_2019_Jun_13_0809_421,stimulusJOSU26_2IFCnew_2019_Jun_13_0809_422,False,2019_Jun_13_0809,2IFCnew,,JOSU26,
2IFCnew,61,0,61,0,-1,2,Yes,4,-1,False Alarm,0.493613513187,False,True,stimulusJOSU26_2IFCnew_2019_Jun_13_0809_423,stimulusJOSU26_2IFCnew_2019_Jun_13_0809_424,False,2019_Jun_13_0809,2IFCnew,,JOSU26,
2IFCnew,62,0,62,0,-1,1,Yes,4,-1,Hit,0.502684574109,True,False,stimulusJOSU26_2IFCnew_2019_Jun_13_0809_425,stimulusJOSU26_2IFCnew_2019_Jun_13_0809_426,False,2019_Jun_13_0809,2IFCnew,,JOSU26,
2IFCnew,63,0,63,0,0.637902296148,8,No,4,-1,False Alarm,0.702433893457,False,True,stimulusJOSU26_2IFCnew_2019_Jun_13_0809_427,stimulusJOSU26_2IFCnew_2019_Jun_13_0809_428,False,2019_Jun_13_0809,2IFCnew,,JOSU26,
2IFCnew,64,0,64,0,-1,3,No,4,-1,Hit,0.500489783939,False,True,stimulusJOSU26_2IFCnew_2019_Jun_13_0809_429,stimulusJOSU26_2IFCnew_2019_Jun_13_0809_430,False,2019_Jun_13_0809,2IFCnew,,JOSU26,
2IFCnew,65,0,65,0,-1,1,No,4,-1,Hit,0.43526436016,True,False,stimulusJOSU26_2IFCnew_2019_Jun_13_0809_431,stimulusJOSU26_2IFCnew_2019_Jun_13_0809_432,False,2019_Jun_13_0809,2IFCnew,,JOSU26,
2IFCnew,66,0,66,0,-1,1,No,4,-1,Hit,0.5434458456,True,False,stimulusJOSU26_2IFCnew_2019_Jun_13_0809_433,stimulusJOSU26_2IFCnew_2019_Jun_13_0809_434,False,2019_Jun_13_0809,2IFCnew,,JOSU26,
2IFCnew,67,0,67,0,-1,1,No,4,-1,Hit,0.435501656961,True,False,stimulusJOSU26_2IFCnew_2019_Jun_13_0809_435,stimulusJOSU26_2IFCnew_2019_Jun_13_0809_436,False,2019_Jun_13_0809,2IFCnew,,JOSU26,
2IFCnew,68,0,68,0,-1,1,No,4,-1,Hit,0.368363489863,True,False,stimulusJOSU26_2IFCnew_2019_Jun_13_0809_437,stimulusJOSU26_2IFCnew_2019_Jun_13_0809_438,False,2019_Jun_13_0809,2IFCnew,,JOSU26,
2IFCnew,69,0,69,0,0.368126603309,5,Yes,4,-1,Hit,0.602197746281,False,True,stimulusJOSU26_2IFCnew_2019_Jun_13_0809_439,stimulusJOSU26_2IFCnew_2019_Jun_13_0809_440,False,2019_Jun_13_0809,2IFCnew,,JOSU26,
2IFCnew,70,0,70,0,0.435049643274,6,No,4,-1,Hit,0.603052096907,True,False,stimulusJOSU26_2IFCnew_2019_Jun_13_0809_441,stimulusJOSU26_2IFCnew_2019_Jun_13_0809_442,False,2019_Jun_13_0809,2IFCnew,,JOSU26,
2IFCnew,71,0,71,0,0.56953494763,5,Yes,4,-1,Hit,0.734355242457,False,True,stimulusJOSU26_2IFCnew_2019_Jun_13_0809_443,stimulusJOSU26_2IFCnew_2019_Jun_13_0809_444,False,2019_Jun_13_0809,2IFCnew,,JOSU26,
2IFCnew,72,0,72,0,-1,1,Yes,4,-1,Hit,0.505270206369,True,False,stimulusJOSU26_2IFCnew_2019_Jun_13_0809_445,stimulusJOSU26_2IFCnew_2019_Jun_13_0809_446,False,2019_Jun_13_0809,2IFCnew,,JOSU26,
2IFCnew,73,0,73,0,-1,3,Yes,4,-1,Hit,0.534190037753,False,True,stimulusJOSU26_2IFCnew_2019_Jun_13_0809_447,stimulusJOSU26_2IFCnew_2019_Jun_13_0809_448,False,2019_Jun_13_0809,2IFCnew,,JOSU26,
2IFCnew,74,0,74,0,0.367805965245,5,Yes,4,-1,Hit,0.467446406838,False,True,stimulusJOSU26_2IFCnew_2019_Jun_13_0809_449,stimulusJOSU26_2IFCnew_2019_Jun_13_0809_450,False,2019_Jun_13_0809,2IFCnew,,JOSU26,
2IFCnew,0,0,0,0,0.501216043718,6,No,3,-1,Hit,0.771432665177,True,False,stimulusJOSU26_2IFCnew_2019_Jun_13_0809_451,stimulusJOSU26_2IFCnew_2019_Jun_13_0809_452,False,2019_Jun_13_0809,2IFCnew,,JOSU26,
2IFCnew,1,0,1,0,-1,4,No,3,-1,False Alarm,0.575791290496,True,False,stimulusJOSU26_2IFCnew_2019_Jun_13_0809_453,stimulusJOSU26_2IFCnew_2019_Jun_13_0809_454,False,2019_Jun_13_0809,2IFCnew,,JOSU26,
2IFCnew,2,0,2,0,-1,4,No,3,-1,False Alarm,0.433413198683,True,False,stimulusJOSU26_2IFCnew_2019_Jun_13_0809_455,stimulusJOSU26_2IFCnew_2019_Jun_13_0809_456,False,2019_Jun_13_0809,2IFCnew,,JOSU26,
2IFCnew,3,0,3,0,0.666733859573,7,Yes,3,-1,False Alarm,0.600369985681,True,False,stimulusJOSU26_2IFCnew_2019_Jun_13_0809_457,stimulusJOSU26_2IFCnew_2019_Jun_13_0809_458,False,2019_Jun_13_0809,2IFCnew,,JOSU26,
2IFCnew,4,0,4,0,-1,3,Yes,3,-1,Hit,0.501028833911,False,True,stimulusJOSU26_2IFCnew_2019_Jun_13_0809_459,stimulusJOSU26_2IFCnew_2019_Jun_13_0809_460,False,2019_Jun_13_0809,2IFCnew,,JOSU26,
2IFCnew,5,0,5,0,-1,3,Yes,3,-1,Hit,0.43268160196,False,True,stimulusJOSU26_2IFCnew_2019_Jun_13_0809_461,stimulusJOSU26_2IFCnew_2019_Jun_13_0809_462,False,2019_Jun_13_0809,2IFCnew,,JOSU26,
2IFCnew,6,0,6,0,-1,1,Yes,3,-1,Hit,0.534345635679,True,False,stimulusJOSU26_2IFCnew_2019_Jun_13_0809_463,stimulusJOSU26_2IFCnew_2019_Jun_13_0809_464,False,2019_Jun_13_0809,2IFCnew,,JOSU26,
2IFCnew,7,0,7,0,0.241453619208,6,No,3,-1,Hit,0.534389564302,True,False,stimulusJOSU26_2IFCnew_2019_Jun_13_0809_465,stimulusJOSU26_2IFCnew_2019_Jun_13_0809_466,False,2019_Jun_13_0809,2IFCnew,,JOSU26,
2IFCnew,8,0,8,0,-1,2,No,3,-1,False Alarm,0.735633278731,False,True,stimulusJOSU26_2IFCnew_2019_Jun_13_0809_467,stimulusJOSU26_2IFCnew_2019_Jun_13_0809_468,False,2019_Jun_13_0809,2IFCnew,,JOSU26,
2IFCnew,9,0,9,0,-1,2,No,3,-1,False Alarm,0.600353974849,False,True,stimulusJOSU26_2IFCnew_2019_Jun_13_0809_469,stimulusJOSU26_2IFCnew_2019_Jun_13_0809_470,False,2019_Jun_13_0809,2IFCnew,,JOSU26,
2IFCnew,10,0,10,0,-1,1,No,3,-1,Hit,0.572162866127,True,False,stimulusJOSU26_2IFCnew_2019_Jun_13_0809_471,stimulusJOSU26_2IFCnew_2019_Jun_13_0809_472,False,2019_Jun_13_0809,2IFCnew,,JOSU26,
2IFCnew,11,0,11,0,-1,3,No,3,-1,Hit,0.565975084901,False,True,stimulusJOSU26_2IFCnew_2019_Jun_13_0809_473,stimulusJOSU26_2IFCnew_2019_Jun_13_0809_474,False,2019_Jun_13_0809,2IFCnew,,JOSU26,
2IFCnew,12,0,12,0,-1,1,No,3,-1,Hit,0.597692801617,True,False,stimulusJOSU26_2IFCnew_2019_Jun_13_0809_475,stimulusJOSU26_2IFCnew_2019_Jun_13_0809_476,False,2019_Jun_13_0809,2IFCnew,,JOSU26,
2IFCnew,13,0,13,0,-1,1,No,3,-1,Hit,0.592716137413,True,False,stimulusJOSU26_2IFCnew_2019_Jun_13_0809_477,stimulusJOSU26_2IFCnew_2019_Jun_13_0809_478,False,2019_Jun_13_0809,2IFCnew,,JOSU26,
2IFCnew,14,0,14,0,-1,1,No,3,-1,Hit,0.60619114805,True,False,stimulusJOSU26_2IFCnew_2019_Jun_13_0809_479,stimulusJOSU26_2IFCnew_2019_Jun_13_0809_480,False,2019_Jun_13_0809,2IFCnew,,JOSU26,
2IFCnew,15,0,15,0,-1,3,No,3,-1,Hit,0.668939734809,False,True,stimulusJOSU26_2IFCnew_2019_Jun_13_0809_481,stimulusJOSU26_2IFCnew_2019_Jun_13_0809_482,False,2019_Jun_13_0809,2IFCnew,,JOSU26,
2IFCnew,16,0,16,0,-1,2,No,3,-1,False Alarm,0.533279442228,False,True,stimulusJOSU26_2IFCnew_2019_Jun_13_0809_483,stimulusJOSU26_2IFCnew_2019_Jun_13_0809_484,False,2019_Jun_13_0809,2IFCnew,,JOSU26,
2IFCnew,17,0,17,0,-1,3,No,3,-1,Hit,0.534688853659,False,True,stimulusJOSU26_2IFCnew_2019_Jun_13_0809_485,stimulusJOSU26_2IFCnew_2019_Jun_13_0809_486,False,2019_Jun_13_0809,2IFCnew,,JOSU26,
2IFCnew,18,0,18,0,-1,1,No,3,-1,Hit,0.540631127078,True,False,stimulusJOSU26_2IFCnew_2019_Jun_13_0809_487,stimulusJOSU26_2IFCnew_2019_Jun_13_0809_488,False,2019_Jun_13_0809,2IFCnew,,JOSU26,
2IFCnew,19,0,19,0,-1,2,No,3,-1,False Alarm,0.558126635849,False,True,stimulusJOSU26_2IFCnew_2019_Jun_13_0809_489,stimulusJOSU26_2IFCnew_2019_Jun_13_0809_490,False,2019_Jun_13_0809,2IFCnew,,JOSU26,
2IFCnew,20,0,20,0,0.501653277315,7,Yes,3,-1,False Alarm,0.677069819532,True,False,stimulusJOSU26_2IFCnew_2019_Jun_13_0809_491,stimulusJOSU26_2IFCnew_2019_Jun_13_0809_492,False,2019_Jun_13_0809,2IFCnew,,JOSU26,
2IFCnew,21,0,21,0,-1,1,Yes,3,-1,Hit,0.503044624813,True,False,stimulusJOSU26_2IFCnew_2019_Jun_13_0809_493,stimulusJOSU26_2IFCnew_2019_Jun_13_0809_494,False,2019_Jun_13_0809,2IFCnew,,JOSU26,
2IFCnew,22,0,22,0,-1,1,Yes,3,-1,Hit,0.501027602237,True,False,stimulusJOSU26_2IFCnew_2019_Jun_13_0809_495,stimulusJOSU26_2IFCnew_2019_Jun_13_0809_496,False,2019_Jun_13_0809,2IFCnew,,JOSU26,
2IFCnew,23,0,23,0,-1,3,Yes,3,-1,Hit,0.667674836237,False,True,stimulusJOSU26_2IFCnew_2019_Jun_13_0809_497,stimulusJOSU26_2IFCnew_2019_Jun_13_0809_498,False,2019_Jun_13_0809,2IFCnew,,JOSU26,
2IFCnew,24,0,24,0,-1,1,Yes,3,-1,Hit,0.636020753998,True,False,stimulusJOSU26_2IFCnew_2019_Jun_13_0809_499,stimulusJOSU26_2IFCnew_2019_Jun_13_0809_500,False,2019_Jun_13_0809,2IFCnew,,JOSU26,
2IFCnew,25,0,25,0,-1,2,Yes,3,-1,False Alarm,0.600966512226,False,True,stimulusJOSU26_2IFCnew_2019_Jun_13_0809_501,stimulusJOSU26_2IFCnew_2019_Jun_13_0809_502,False,2019_Jun_13_0809,2IFCnew,,JOSU26,
2IFCnew,26,0,26,0,-1,3,Yes,3,-1,Hit,0.734961621929,False,True,stimulusJOSU26_2IFCnew_2019_Jun_13_0809_503,stimulusJOSU26_2IFCnew_2019_Jun_13_0809_504,False,2019_Jun_13_0809,2IFCnew,,JOSU26,
2IFCnew,27,0,27,0,-1,3,Yes,3,-1,Hit,0.657712474931,False,True,stimulusJOSU26_2IFCnew_2019_Jun_13_0809_505,stimulusJOSU26_2IFCnew_2019_Jun_13_0809_506,False,2019_Jun_13_0809,2IFCnew,,JOSU26,
2IFCnew,28,0,28,0,-1,3,Yes,3,-1,Hit,0.566328977235,False,True,stimulusJOSU26_2IFCnew_2019_Jun_13_0809_507,stimulusJOSU26_2IFCnew_2019_Jun_13_0809_508,False,2019_Jun_13_0809,2IFCnew,,JOSU26,
2IFCnew,29,0,29,0,-1,1,Yes,3,-1,Hit,0.766885844525,True,False,stimulusJOSU26_2IFCnew_2019_Jun_13_0809_509,stimulusJOSU26_2IFCnew_2019_Jun_13_0809_510,False,2019_Jun_13_0809,2IFCnew,,JOSU26,
2IFCnew,30,0,30,0,0.494479359593,5,Yes,3,-1,Hit,0.672941347584,False,True,stimulusJOSU26_2IFCnew_2019_Jun_13_0809_511,stimulusJOSU26_2IFCnew_2019_Jun_13_0809_512,False,2019_Jun_13_0809,2IFCnew,,JOSU26,
2IFCnew,31,0,31,0,-1,1,Yes,3,-1,Hit,0.500681510195,True,False,stimulusJOSU26_2IFCnew_2019_Jun_13_0809_513,stimulusJOSU26_2IFCnew_2019_Jun_13_0809_514,False,2019_Jun_13_0809,2IFCnew,,JOSU26,
2IFCnew,32,0,32,0,-1,1,Yes,3,-1,Hit,0.572630069684,True,False,stimulusJOSU26_2IFCnew_2019_Jun_13_0809_515,stimulusJOSU26_2IFCnew_2019_Jun_13_0809_516,False,2019_Jun_13_0809,2IFCnew,,JOSU26,
2IFCnew,33,0,33,0,-1,3,Yes,3,-1,Hit,0.501283373684,False,True,stimulusJOSU26_2IFCnew_2019_Jun_13_0809_517,stimulusJOSU26_2IFCnew_2019_Jun_13_0809_518,False,2019_Jun_13_0809,2IFCnew,,JOSU26,
2IFCnew,34,0,34,0,-1,3,Yes,3,-1,Hit,0.667795947753,False,True,stimulusJOSU26_2IFCnew_2019_Jun_13_0809_519,stimulusJOSU26_2IFCnew_2019_Jun_13_0809_520,False,2019_Jun_13_0809,2IFCnew,,JOSU26,
2IFCnew,35,0,35,0,0.668403148185,5,Yes,3,-1,Hit,0.640638599638,False,True,stimulusJOSU26_2IFCnew_2019_Jun_13_0809_521,stimulusJOSU26_2IFCnew_2019_Jun_13_0809_522,False,2019_Jun_13_0809,2IFCnew,,JOSU26,
2IFCnew,36,0,36,0,-1,3,Yes,3,-1,Hit,0.566510029137,False,True,stimulusJOSU26_2IFCnew_2019_Jun_13_0809_523,stimulusJOSU26_2IFCnew_2019_Jun_13_0809_524,False,2019_Jun_13_0809,2IFCnew,,JOSU26,
2IFCnew,37,0,37,0,-1,1,Yes,3,-1,Hit,0.567607834935,True,False,stimulusJOSU26_2IFCnew_2019_Jun_13_0809_525,stimulusJOSU26_2IFCnew_2019_Jun_13_0809_526,False,2019_Jun_13_0809,2IFCnew,,JOSU26,
2IFCnew,38,0,38,0,-1,1,Yes,3,-1,Hit,0.567397634033,True,False,stimulusJOSU26_2IFCnew_2019_Jun_13_0809_527,stimulusJOSU26_2IFCnew_2019_Jun_13_0809_528,False,2019_Jun_13_0809,2IFCnew,,JOSU26,
2IFCnew,39,0,39,0,-1,1,Yes,3,-1,Hit,0.536290812772,True,False,stimulusJOSU26_2IFCnew_2019_Jun_13_0809_529,stimulusJOSU26_2IFCnew_2019_Jun_13_0809_530,False,2019_Jun_13_0809,2IFCnew,,JOSU26,
2IFCnew,40,0,40,0,-1,3,Yes,3,-1,Hit,0.502354904078,False,True,stimulusJOSU26_2IFCnew_2019_Jun_13_0809_531,stimulusJOSU26_2IFCnew_2019_Jun_13_0809_532,False,2019_Jun_13_0809,2IFCnew,,JOSU26,
2IFCnew,41,0,41,0,-1,1,Yes,3,-1,Hit,0.502854951657,True,False,stimulusJOSU26_2IFCnew_2019_Jun_13_0809_533,stimulusJOSU26_2IFCnew_2019_Jun_13_0809_534,False,2019_Jun_13_0809,2IFCnew,,JOSU26,
2IFCnew,42,0,42,0,-1,2,Yes,3,-1,False Alarm,0.790664381813,False,True,stimulusJOSU26_2IFCnew_2019_Jun_13_0809_535,stimulusJOSU26_2IFCnew_2019_Jun_13_0809_536,False,2019_Jun_13_0809,2IFCnew,,JOSU26,
2IFCnew,43,0,43,0,-1,3,Yes,3,-1,Hit,0.633484798484,False,True,stimulusJOSU26_2IFCnew_2019_Jun_13_0809_537,stimulusJOSU26_2IFCnew_2019_Jun_13_0809_538,False,2019_Jun_13_0809,2IFCnew,,JOSU26,
2IFCnew,44,0,44,0,0.599350594915,6,No,3,-1,Hit,0.53374377219,True,False,stimulusJOSU26_2IFCnew_2019_Jun_13_0809_539,stimulusJOSU26_2IFCnew_2019_Jun_13_0809_540,False,2019_Jun_13_0809,2IFCnew,,JOSU26,
2IFCnew,45,0,45,0,-1,1,No,3,-1,Hit,0.534729908686,True,False,stimulusJOSU26_2IFCnew_2019_Jun_13_0809_541,stimulusJOSU26_2IFCnew_2019_Jun_13_0809_542,False,2019_Jun_13_0809,2IFCnew,,JOSU26,
2IFCnew,46,0,46,0,-1,1,No,3,-1,Hit,0.667005642317,True,False,stimulusJOSU26_2IFCnew_2019_Jun_13_0809_543,stimulusJOSU26_2IFCnew_2019_Jun_13_0809_544,False,2019_Jun_13_0809,2IFCnew,,JOSU26,
2IFCnew,47,0,47,0,-1,3,No,3,-1,Hit,0.437821664382,False,True,stimulusJOSU26_2IFCnew_2019_Jun_13_0809_545,stimulusJOSU26_2IFCnew_2019_Jun_13_0809_546,False,2019_Jun_13_0809,2IFCnew,,JOSU26,
2IFCnew,48,0,48,0,-1,3,No,3,-1,Hit,0.608033687808,False,True,stimulusJOSU26_2IFCnew_2019_Jun_13_0809_547,stimulusJOSU26_2IFCnew_2019_Jun_13_0809_548,False,2019_Jun_13_0809,2IFCnew,,JOSU26,
2IFCnew,49,0,49,0,-1,1,No,3,-1,Hit,0.500026685651,True,False,stimulusJOSU26_2IFCnew_2019_Jun_13_0809_549,stimulusJOSU26_2IFCnew_2019_Jun_13_0809_550,False,2019_Jun_13_0809,2IFCnew,,JOSU26,
2IFCnew,50,0,50,0,-1,3,No,3,-1,Hit,0.567000634037,False,True,stimulusJOSU26_2IFCnew_2019_Jun_13_0809_551,stimulusJOSU26_2IFCnew_2019_Jun_13_0809_552,False,2019_Jun_13_0809,2IFCnew,,JOSU26,
2IFCnew,51,0,51,0,-1,3,No,3,-1,Hit,0.56741692964,False,True,stimulusJOSU26_2IFCnew_2019_Jun_13_0809_553,stimulusJOSU26_2IFCnew_2019_Jun_13_0809_554,False,2019_Jun_13_0809,2IFCnew,,JOSU26,
2IFCnew,52,0,52,0,-1,3,No,3,-1,Hit,0.502550735604,False,True,stimulusJOSU26_2IFCnew_2019_Jun_13_0809_555,stimulusJOSU26_2IFCnew_2019_Jun_13_0809_556,False,2019_Jun_13_0809,2IFCnew,,JOSU26,
2IFCnew,53,0,53,0,-1,3,No,3,-1,Hit,0.591019341722,False,True,stimulusJOSU26_2IFCnew_2019_Jun_13_0809_557,stimulusJOSU26_2IFCnew_2019_Jun_13_0809_558,False,2019_Jun_13_0809,2IFCnew,,JOSU26,
2IFCnew,54,0,54,0,-1,3,No,3,-1,Hit,0.610602077097,False,True,stimulusJOSU26_2IFCnew_2019_Jun_13_0809_559,stimulusJOSU26_2IFCnew_2019_Jun_13_0809_560,False,2019_Jun_13_0809,2IFCnew,,JOSU26,
2IFCnew,55,0,55,0,-1,3,No,3,-1,Hit,0.501920133829,False,True,stimulusJOSU26_2IFCnew_2019_Jun_13_0809_561,stimulusJOSU26_2IFCnew_2019_Jun_13_0809_562,False,2019_Jun_13_0809,2IFCnew,,JOSU26,
2IFCnew,56,0,56,0,-1,3,No,3,-1,Hit,0.529572603293,False,True,stimulusJOSU26_2IFCnew_2019_Jun_13_0809_563,stimulusJOSU26_2IFCnew_2019_Jun_13_0809_564,False,2019_Jun_13_0809,2IFCnew,,JOSU26,
2IFCnew,57,0,57,0,-1,1,No,3,-1,Hit,0.600770269986,True,False,stimulusJOSU26_2IFCnew_2019_Jun_13_0809_565,stimulusJOSU26_2IFCnew_2019_Jun_13_0809_566,False,2019_Jun_13_0809,2IFCnew,,JOSU26,
2IFCnew,58,0,58,0,-1,1,No,3,-1,Hit,0.53215987701,True,False,stimulusJOSU26_2IFCnew_2019_Jun_13_0809_567,stimulusJOSU26_2IFCnew_2019_Jun_13_0809_568,False,2019_Jun_13_0809,2IFCnew,,JOSU26,
2IFCnew,59,0,59,0,-1,2,No,3,-1,False Alarm,0.530564076733,False,True,stimulusJOSU26_2IFCnew_2019_Jun_13_0809_569,stimulusJOSU26_2IFCnew_2019_Jun_13_0809_570,False,2019_Jun_13_0809,2IFCnew,,JOSU26,
2IFCnew,60,0,60,0,-1,3,No,3,-1,Hit,0.767687234562,False,True,stimulusJOSU26_2IFCnew_2019_Jun_13_0809_571,stimulusJOSU26_2IFCnew_2019_Jun_13_0809_572,False,2019_Jun_13_0809,2IFCnew,,JOSU26,
2IFCnew,61,0,61,0,-1,1,No,3,-1,Hit,0.56697928533,True,False,stimulusJOSU26_2IFCnew_2019_Jun_13_0809_573,stimulusJOSU26_2IFCnew_2019_Jun_13_0809_574,False,2019_Jun_13_0809,2IFCnew,,JOSU26,
2IFCnew,62,0,62,0,-1,1,No,3,-1,Hit,0.534482348245,True,False,stimulusJOSU26_2IFCnew_2019_Jun_13_0809_575,stimulusJOSU26_2IFCnew_2019_Jun_13_0809_576,False,2019_Jun_13_0809,2IFCnew,,JOSU26,
2IFCnew,63,0,63,0,-1,3,No,3,-1,Hit,0.534738530405,False,True,stimulusJOSU26_2IFCnew_2019_Jun_13_0809_577,stimulusJOSU26_2IFCnew_2019_Jun_13_0809_578,False,2019_Jun_13_0809,2IFCnew,,JOSU26,
2IFCnew,64,0,64,0,-1,2,No,3,-1,False Alarm,0.634700431488,False,True,stimulusJOSU26_2IFCnew_2019_Jun_13_0809_579,stimulusJOSU26_2IFCnew_2019_Jun_13_0809_580,False,2019_Jun_13_0809,2IFCnew,,JOSU26,
2IFCnew,65,0,65,0,-1,1,No,3,-1,Hit,0.434230600018,True,False,stimulusJOSU26_2IFCnew_2019_Jun_13_0809_581,stimulusJOSU26_2IFCnew_2019_Jun_13_0809_582,False,2019_Jun_13_0809,2IFCnew,,JOSU26,
2IFCnew,66,0,66,0,-1,1,No,3,-1,Hit,0.532510895748,True,False,stimulusJOSU26_2IFCnew_2019_Jun_13_0809_583,stimulusJOSU26_2IFCnew_2019_Jun_13_0809_584,False,2019_Jun_13_0809,2IFCnew,,JOSU26,
2IFCnew,67,0,67,0,-1,2,No,3,-1,False Alarm,0.503462563269,False,True,stimulusJOSU26_2IFCnew_2019_Jun_13_0809_585,stimulusJOSU26_2IFCnew_2019_Jun_13_0809_586,False,2019_Jun_13_0809,2IFCnew,,JOSU26,
2IFCnew,68,0,68,0,-1,3,No,3,-1,Hit,0.532920623198,False,True,stimulusJOSU26_2IFCnew_2019_Jun_13_0809_587,stimulusJOSU26_2IFCnew_2019_Jun_13_0809_588,False,2019_Jun_13_0809,2IFCnew,,JOSU26,
2IFCnew,69,0,69,0,-1,2,No,3,-1,False Alarm,0.568977833726,False,True,stimulusJOSU26_2IFCnew_2019_Jun_13_0809_589,stimulusJOSU26_2IFCnew_2019_Jun_13_0809_590,False,2019_Jun_13_0809,2IFCnew,,JOSU26,
2IFCnew,70,0,70,0,-1,1,No,3,-1,Hit,0.526872838382,True,False,stimulusJOSU26_2IFCnew_2019_Jun_13_0809_591,stimulusJOSU26_2IFCnew_2019_Jun_13_0809_592,False,2019_Jun_13_0809,2IFCnew,,JOSU26,
2IFCnew,71,0,71,0,-1,3,No,3,-1,Hit,0.599968880415,False,True,stimulusJOSU26_2IFCnew_2019_Jun_13_0809_593,stimulusJOSU26_2IFCnew_2019_Jun_13_0809_594,False,2019_Jun_13_0809,2IFCnew,,JOSU26,
2IFCnew,72,0,72,0,-1,3,No,3,-1,Hit,0.668009432498,False,True,stimulusJOSU26_2IFCnew_2019_Jun_13_0809_595,stimulusJOSU26_2IFCnew_2019_Jun_13_0809_596,False,2019_Jun_13_0809,2IFCnew,,JOSU26,
2IFCnew,73,0,73,0,0.403467406984,6,No,3,-1,Hit,0.469846060965,True,False,stimulusJOSU26_2IFCnew_2019_Jun_13_0809_597,stimulusJOSU26_2IFCnew_2019_Jun_13_0809_598,False,2019_Jun_13_0809,2IFCnew,,JOSU26,
2IFCnew,74,0,74,0,-1,1,No,3,-1,Hit,0.476232547779,True,False,stimulusJOSU26_2IFCnew_2019_Jun_13_0809_599,stimulusJOSU26_2IFCnew_2019_Jun_13_0809_600,False,2019_Jun_13_0809,2IFCnew,,JOSU26,
2IFCnew,0,0,0,0,-1,0,No,5,-1,No Answer,-1,False,True,stimulusJOSU26_2IFCnew_2019_Jun_13_0809_601,stimulusJOSU26_2IFCnew_2019_Jun_13_0809_602,False,2019_Jun_13_0809,2IFCnew,,JOSU26,
2IFCnew,1,0,1,0,-1,3,No,5,-1,Hit,0.467257965356,False,True,stimulusJOSU26_2IFCnew_2019_Jun_13_0809_603,stimulusJOSU26_2IFCnew_2019_Jun_13_0809_604,False,2019_Jun_13_0809,2IFCnew,,JOSU26,
2IFCnew,2,0,2,0,-1,3,No,5,-1,Hit,0.434372649528,False,True,stimulusJOSU26_2IFCnew_2019_Jun_13_0809_605,stimulusJOSU26_2IFCnew_2019_Jun_13_0809_606,False,2019_Jun_13_0809,2IFCnew,,JOSU26,
2IFCnew,3,0,3,0,-1,3,No,5,-1,Hit,0.460279467981,False,True,stimulusJOSU26_2IFCnew_2019_Jun_13_0809_607,stimulusJOSU26_2IFCnew_2019_Jun_13_0809_608,False,2019_Jun_13_0809,2IFCnew,,JOSU26,
2IFCnew,4,0,4,0,-1,1,No,5,-1,Hit,0.434479392134,True,False,stimulusJOSU26_2IFCnew_2019_Jun_13_0809_609,stimulusJOSU26_2IFCnew_2019_Jun_13_0809_610,False,2019_Jun_13_0809,2IFCnew,,JOSU26,
2IFCnew,5,0,5,0,0.534475368913,5,Yes,5,-1,Hit,0.502740819473,False,True,stimulusJOSU26_2IFCnew_2019_Jun_13_0809_611,stimulusJOSU26_2IFCnew_2019_Jun_13_0809_612,False,2019_Jun_13_0809,2IFCnew,,JOSU26,
2IFCnew,6,0,6,0,-1,1,Yes,5,-1,Hit,0.540856107604,True,False,stimulusJOSU26_2IFCnew_2019_Jun_13_0809_613,stimulusJOSU26_2IFCnew_2019_Jun_13_0809_614,False,2019_Jun_13_0809,2IFCnew,,JOSU26,
2IFCnew,7,0,7,0,-1,1,Yes,5,-1,Hit,0.501475920901,True,False,stimulusJOSU26_2IFCnew_2019_Jun_13_0809_615,stimulusJOSU26_2IFCnew_2019_Jun_13_0809_616,False,2019_Jun_13_0809,2IFCnew,,JOSU26,
2IFCnew,8,0,8,0,-1,2,Yes,5,-1,False Alarm,0.528455090709,False,True,stimulusJOSU26_2IFCnew_2019_Jun_13_0809_617,stimulusJOSU26_2IFCnew_2019_Jun_13_0809_618,False,2019_Jun_13_0809,2IFCnew,,JOSU26,
2IFCnew,9,0,9,0,-1,1,Yes,5,-1,Hit,0.635257545393,True,False,stimulusJOSU26_2IFCnew_2019_Jun_13_0809_619,stimulusJOSU26_2IFCnew_2019_Jun_13_0809_620,False,2019_Jun_13_0809,2IFCnew,,JOSU26,
2IFCnew,10,0,10,0,-1,2,Yes,5,-1,False Alarm,0.523685343098,False,True,stimulusJOSU26_2IFCnew_2019_Jun_13_0809_621,stimulusJOSU26_2IFCnew_2019_Jun_13_0809_622,False,2019_Jun_13_0809,2IFCnew,,JOSU26,
2IFCnew,11,0,11,0,0.600117909256,5,Yes,5,-1,Hit,0.503937567119,False,True,stimulusJOSU26_2IFCnew_2019_Jun_13_0809_623,stimulusJOSU26_2IFCnew_2019_Jun_13_0809_624,False,2019_Jun_13_0809,2IFCnew,,JOSU26,
2IFCnew,12,0,12,0,-1,1,Yes,5,-1,Hit,0.458822432905,True,False,stimulusJOSU26_2IFCnew_2019_Jun_13_0809_625,stimulusJOSU26_2IFCnew_2019_Jun_13_0809_626,False,2019_Jun_13_0809,2IFCnew,,JOSU26,
2IFCnew,13,0,13,0,-1,1,Yes,5,-1,Hit,0.467825753614,True,False,stimulusJOSU26_2IFCnew_2019_Jun_13_0809_627,stimulusJOSU26_2IFCnew_2019_Jun_13_0809_628,False,2019_Jun_13_0809,2IFCnew,,JOSU26,
2IFCnew,14,0,14,0,-1,1,Yes,5,-1,Hit,0.435287350789,True,False,stimulusJOSU26_2IFCnew_2019_Jun_13_0809_629,stimulusJOSU26_2IFCnew_2019_Jun_13_0809_630,False,2019_Jun_13_0809,2IFCnew,,JOSU26,
2IFCnew,15,0,15,0,-1,1,Yes,5,-1,Hit,0.434740911238,True,False,stimulusJOSU26_2IFCnew_2019_Jun_13_0809_631,stimulusJOSU26_2IFCnew_2019_Jun_13_0809_632,False,2019_Jun_13_0809,2IFCnew,,JOSU26,
2IFCnew,16,0,16,0,-1,3,Yes,5,-1,Hit,0.600979649927,False,True,stimulusJOSU26_2IFCnew_2019_Jun_13_0809_633,stimulusJOSU26_2IFCnew_2019_Jun_13_0809_634,False,2019_Jun_13_0809,2IFCnew,,JOSU26,
2IFCnew,17,0,17,0,0.467490335461,6,No,5,-1,Hit,0.468729369808,True,False,stimulusJOSU26_2IFCnew_2019_Jun_13_0809_635,stimulusJOSU26_2IFCnew_2019_Jun_13_0809_636,False,2019_Jun_13_0809,2IFCnew,,JOSU26,
2IFCnew,18,0,18,0,-1,3,No,5,-1,Hit,0.532604911365,False,True,stimulusJOSU26_2IFCnew_2019_Jun_13_0809_637,stimulusJOSU26_2IFCnew_2019_Jun_13_0809_638,False,2019_Jun_13_0809,2IFCnew,,JOSU26,
2IFCnew,19,0,19,0,-1,3,No,5,-1,Hit,0.635374961887,False,True,stimulusJOSU26_2IFCnew_2019_Jun_13_0809_639,stimulusJOSU26_2IFCnew_2019_Jun_13_0809_640,False,2019_Jun_13_0809,2IFCnew,,JOSU26,
2IFCnew,20,0,20,0,-1,1,No,5,-1,Hit,0.600792029407,True,False,stimulusJOSU26_2IFCnew_2019_Jun_13_0809_641,stimulusJOSU26_2IFCnew_2019_Jun_13_0809_642,False,2019_Jun_13_0809,2IFCnew,,JOSU26,
2IFCnew,21,0,21,0,-1,1,No,5,-1,Hit,0.492608081084,True,False,stimulusJOSU26_2IFCnew_2019_Jun_13_0809_643,stimulusJOSU26_2IFCnew_2019_Jun_13_0809_644,False,2019_Jun_13_0809,2IFCnew,,JOSU26,
2IFCnew,22,0,22,0,-1,3,No,5,-1,Hit,0.706483129878,False,True,stimulusJOSU26_2IFCnew_2019_Jun_13_0809_645,stimulusJOSU26_2IFCnew_2019_Jun_13_0809_646,False,2019_Jun_13_0809,2IFCnew,,JOSU26,
2IFCnew,23,0,23,0,-1,1,No,5,-1,Hit,0.50725110108,True,False,stimulusJOSU26_2IFCnew_2019_Jun_13_0809_647,stimulusJOSU26_2IFCnew_2019_Jun_13_0809_648,False,2019_Jun_13_0809,2IFCnew,,JOSU26,
2IFCnew,24,0,24,0,-1,2,No,5,-1,False Alarm,0.401296018623,False,True,stimulusJOSU26_2IFCnew_2019_Jun_13_0809_649,stimulusJOSU26_2IFCnew_2019_Jun_13_0809_650,False,2019_Jun_13_0809,2IFCnew,,JOSU26,
2IFCnew,25,0,25,0,0.536170932464,5,Yes,5,-1,Hit,0.500122753903,False,True,stimulusJOSU26_2IFCnew_2019_Jun_13_0809_651,stimulusJOSU26_2IFCnew_2019_Jun_13_0809_652,False,2019_Jun_13_0809,2IFCnew,,JOSU26,
2IFCnew,26,0,26,0,0.499684288632,5,Yes,5,-1,Hit,0.432222608943,False,True,stimulusJOSU26_2IFCnew_2019_Jun_13_0809_653,stimulusJOSU26_2IFCnew_2019_Jun_13_0809_654,False,2019_Jun_13_0809,2IFCnew,,JOSU26,
2IFCnew,27,0,27,0,-1,3,Yes,5,-1,Hit,0.532295768615,False,True,stimulusJOSU26_2IFCnew_2019_Jun_13_0809_655,stimulusJOSU26_2IFCnew_2019_Jun_13_0809_656,False,2019_Jun_13_0809,2IFCnew,,JOSU26,
2IFCnew,28,0,28,0,-1,1,Yes,5,-1,Hit,0.533407533076,True,False,stimulusJOSU26_2IFCnew_2019_Jun_13_0809_657,stimulusJOSU26_2IFCnew_2019_Jun_13_0809_658,False,2019_Jun_13_0809,2IFCnew,,JOSU26,
2IFCnew,29,0,29,0,-1,1,Yes,5,-1,Hit,0.47160115419,True,False,stimulusJOSU26_2IFCnew_2019_Jun_13_0809_659,stimulusJOSU26_2IFCnew_2019_Jun_13_0809_660,False,2019_Jun_13_0809,2IFCnew,,JOSU26,
2IFCnew,30,0,30,0,0.770147238858,6,No,5,-1,Hit,0.524020760786,True,False,stimulusJOSU26_2IFCnew_2019_Jun_13_0809_661,stimulusJOSU26_2IFCnew_2019_Jun_13_0809_662,False,2019_Jun_13_0809,2IFCnew,,JOSU26,
2IFCnew,31,0,31,0,-1,1,No,5,-1,Hit,0.638547267299,True,False,stimulusJOSU26_2IFCnew_2019_Jun_13_0809_663,stimulusJOSU26_2IFCnew_2019_Jun_13_0809_664,False,2019_Jun_13_0809,2IFCnew,,JOSU26,
2IFCnew,32,0,32,0,-1,1,No,5,-1,Hit,0.499111574143,True,False,stimulusJOSU26_2IFCnew_2019_Jun_13_0809_665,stimulusJOSU26_2IFCnew_2019_Jun_13_0809_666,False,2019_Jun_13_0809,2IFCnew,,JOSU26,
2IFCnew,33,0,33,0,-1,3,No,5,-1,Hit,0.501457856037,False,True,stimulusJOSU26_2IFCnew_2019_Jun_13_0809_667,stimulusJOSU26_2IFCnew_2019_Jun_13_0809_668,False,2019_Jun_13_0809,2IFCnew,,JOSU26,
2IFCnew,34,0,34,0,-1,1,No,5,-1,Hit,0.460759398993,True,False,stimulusJOSU26_2IFCnew_2019_Jun_13_0809_669,stimulusJOSU26_2IFCnew_2019_Jun_13_0809_670,False,2019_Jun_13_0809,2IFCnew,,JOSU26,
2IFCnew,35,0,35,0,-1,3,No,5,-1,Hit,0.49984440254,False,True,stimulusJOSU26_2IFCnew_2019_Jun_13_0809_671,stimulusJOSU26_2IFCnew_2019_Jun_13_0809_672,False,2019_Jun_13_0809,2IFCnew,,JOSU26,
2IFCnew,36,0,36,0,0.469414985273,5,Yes,5,-1,Hit,0.43615524983,False,True,stimulusJOSU26_2IFCnew_2019_Jun_13_0809_673,stimulusJOSU26_2IFCnew_2019_Jun_13_0809_674,False,2019_Jun_13_0809,2IFCnew,,JOSU26,
2IFCnew,37,0,37,0,-1,3,Yes,5,-1,Hit,0.568351747934,False,True,stimulusJOSU26_2IFCnew_2019_Jun_13_0809_675,stimulusJOSU26_2IFCnew_2019_Jun_13_0809_676,False,2019_Jun_13_0809,2IFCnew,,JOSU26,
2IFCnew,38,0,38,0,-1,1,Yes,5,-1,Hit,0.508402278181,True,False,stimulusJOSU26_2IFCnew_2019_Jun_13_0809_677,stimulusJOSU26_2IFCnew_2019_Jun_13_0809_678,False,2019_Jun_13_0809,2IFCnew,,JOSU26,
2IFCnew,39,0,39,0,-1,2,Yes,5,-1,False Alarm,0.499756955542,False,True,stimulusJOSU26_2IFCnew_2019_Jun_13_0809_679,stimulusJOSU26_2IFCnew_2019_Jun_13_0809_680,False,2019_Jun_13_0809,2IFCnew,,JOSU26,
2IFCnew,40,0,40,0,-1,3,Yes,5,-1,Hit,0.6414658539,False,True,stimulusJOSU26_2IFCnew_2019_Jun_13_0809_681,stimulusJOSU26_2IFCnew_2019_Jun_13_0809_682,False,2019_Jun_13_0809,2IFCnew,,JOSU26,
2IFCnew,41,0,41,0,-1,1,Yes,5,-1,Hit,0.501679552253,True,False,stimulusJOSU26_2IFCnew_2019_Jun_13_0809_683,stimulusJOSU26_2IFCnew_2019_Jun_13_0809_684,False,2019_Jun_13_0809,2IFCnew,,JOSU26,
2IFCnew,42,0,42,0,-1,3,Yes,5,-1,Hit,0.591608067974,False,True,stimulusJOSU26_2IFCnew_2019_Jun_13_0809_685,stimulusJOSU26_2IFCnew_2019_Jun_13_0809_686,False,2019_Jun_13_0809,2IFCnew,,JOSU26,
2IFCnew,43,0,43,0,-1,1,Yes,5,-1,Hit,0.436702510342,True,False,stimulusJOSU26_2IFCnew_2019_Jun_13_0809_687,stimulusJOSU26_2IFCnew_2019_Jun_13_0809_688,False,2019_Jun_13_0809,2IFCnew,,JOSU26,
2IFCnew,44,0,44,0,-1,1,Yes,5,-1,Hit,0.457869140431,True,False,stimulusJOSU26_2IFCnew_2019_Jun_13_0809_689,stimulusJOSU26_2IFCnew_2019_Jun_13_0809_690,False,2019_Jun_13_0809,2IFCnew,,JOSU26,
2IFCnew,45,0,45,0,-1,3,Yes,5,-1,Hit,0.538451527711,False,True,stimulusJOSU26_2IFCnew_2019_Jun_13_0809_691,stimulusJOSU26_2IFCnew_2019_Jun_13_0809_692,False,2019_Jun_13_0809,2IFCnew,,JOSU26,
2IFCnew,46,0,46,0,-1,1,Yes,5,-1,Hit,0.469525422901,True,False,stimulusJOSU26_2IFCnew_2019_Jun_13_0809_693,stimulusJOSU26_2IFCnew_2019_Jun_13_0809_694,False,2019_Jun_13_0809,2IFCnew,,JOSU26,
2IFCnew,47,0,47,0,-1,3,Yes,5,-1,Hit,0.533006838057,False,True,stimulusJOSU26_2IFCnew_2019_Jun_13_0809_695,stimulusJOSU26_2IFCnew_2019_Jun_13_0809_696,False,2019_Jun_13_0809,2IFCnew,,JOSU26,
2IFCnew,48,0,48,0,0.500870361924,1,No,5,-1,Hit,0.498499035835,True,False,stimulusJOSU26_2IFCnew_2019_Jun_13_0809_697,stimulusJOSU26_2IFCnew_2019_Jun_13_0809_698,False,2019_Jun_13_0809,2IFCnew,,JOSU26,
2IFCnew,49,0,49,0,-1,1,No,5,-1,Hit,0.637167415116,True,False,stimulusJOSU26_2IFCnew_2019_Jun_13_0809_699,stimulusJOSU26_2IFCnew_2019_Jun_13_0809_700,False,2019_Jun_13_0809,2IFCnew,,JOSU26,
2IFCnew,50,0,50,0,-1,1,No,5,-1,Hit,0.532812238205,True,False,stimulusJOSU26_2IFCnew_2019_Jun_13_0809_701,stimulusJOSU26_2IFCnew_2019_Jun_13_0809_702,False,2019_Jun_13_0809,2IFCnew,,JOSU26,
2IFCnew,51,0,51,0,-1,3,No,5,-1,Hit,0.640924341045,False,True,stimulusJOSU26_2IFCnew_2019_Jun_13_0809_703,stimulusJOSU26_2IFCnew_2019_Jun_13_0809_704,False,2019_Jun_13_0809,2IFCnew,,JOSU26,
2IFCnew,52,0,52,0,-1,1,No,5,-1,Hit,0.499524584971,True,False,stimulusJOSU26_2IFCnew_2019_Jun_13_0809_705,stimulusJOSU26_2IFCnew_2019_Jun_13_0809_706,False,2019_Jun_13_0809,2IFCnew,,JOSU26,
2IFCnew,53,0,53,0,-1,3,No,5,-1,Hit,0.499963871669,False,True,stimulusJOSU26_2IFCnew_2019_Jun_13_0809_707,stimulusJOSU26_2IFCnew_2019_Jun_13_0809_708,False,2019_Jun_13_0809,2IFCnew,,JOSU26,
2IFCnew,54,0,54,0,-1,3,No,5,-1,Hit,0.56808899669,False,True,stimulusJOSU26_2IFCnew_2019_Jun_13_0809_709,stimulusJOSU26_2IFCnew_2019_Jun_13_0809_710,False,2019_Jun_13_0809,2IFCnew,,JOSU26,
2IFCnew,55,0,55,0,-1,3,No,5,-1,Hit,0.701335677411,False,True,stimulusJOSU26_2IFCnew_2019_Jun_13_0809_711,stimulusJOSU26_2IFCnew_2019_Jun_13_0809_712,False,2019_Jun_13_0809,2IFCnew,,JOSU26,
2IFCnew,56,0,56,0,0.524009675719,5,Yes,5,-1,Hit,0.439646961633,False,True,stimulusJOSU26_2IFCnew_2019_Jun_13_0809_713,stimulusJOSU26_2IFCnew_2019_Jun_13_0809_714,False,2019_Jun_13_0809,2IFCnew,,JOSU26,
2IFCnew,57,0,57,0,-1,1,Yes,5,-1,Hit,0.463600392453,True,False,stimulusJOSU26_2IFCnew_2019_Jun_13_0809_715,stimulusJOSU26_2IFCnew_2019_Jun_13_0809_716,False,2019_Jun_13_0809,2IFCnew,,JOSU26,
2IFCnew,58,0,58,0,-1,3,Yes,5,-1,Hit,0.468970361631,False,True,stimulusJOSU26_2IFCnew_2019_Jun_13_0809_717,stimulusJOSU26_2IFCnew_2019_Jun_13_0809_718,False,2019_Jun_13_0809,2IFCnew,,JOSU26,
2IFCnew,59,0,59,0,0.501774799544,5,Yes,5,-1,Hit,0.533153814264,False,True,stimulusJOSU26_2IFCnew_2019_Jun_13_0809_719,stimulusJOSU26_2IFCnew_2019_Jun_13_0809_720,False,2019_Jun_13_0809,2IFCnew,,JOSU26,
2IFCnew,60,0,60,0,-1,3,Yes,5,-1,Hit,0.532802385278,False,True,stimulusJOSU26_2IFCnew_2019_Jun_13_0809_721,stimulusJOSU26_2IFCnew_2019_Jun_13_0809_722,False,2019_Jun_13_0809,2IFCnew,,JOSU26,
2IFCnew,61,0,61,0,-1,1,Yes,5,-1,Hit,0.539328868967,True,False,stimulusJOSU26_2IFCnew_2019_Jun_13_0809_723,stimulusJOSU26_2IFCnew_2019_Jun_13_0809_724,False,2019_Jun_13_0809,2IFCnew,,JOSU26,
2IFCnew,62,0,62,0,-1,3,Yes,5,-1,Hit,0.600399545394,False,True,stimulusJOSU26_2IFCnew_2019_Jun_13_0809_725,stimulusJOSU26_2IFCnew_2019_Jun_13_0809_726,False,2019_Jun_13_0809,2IFCnew,,JOSU26,
2IFCnew,63,0,63,0,-1,3,Yes,5,-1,Hit,0.690597380511,False,True,stimulusJOSU26_2IFCnew_2019_Jun_13_0809_727,stimulusJOSU26_2IFCnew_2019_Jun_13_0809_728,False,2019_Jun_13_0809,2IFCnew,,JOSU26,
2IFCnew,64,0,64,0,-1,1,Yes,5,-1,Hit,0.467816721182,True,False,stimulusJOSU26_2IFCnew_2019_Jun_13_0809_729,stimulusJOSU26_2IFCnew_2019_Jun_13_0809_730,False,2019_Jun_13_0809,2IFCnew,,JOSU26,
2IFCnew,65,0,65,0,-1,1,Yes,5,-1,Hit,0.433824157342,True,False,stimulusJOSU26_2IFCnew_2019_Jun_13_0809_731,stimulusJOSU26_2IFCnew_2019_Jun_13_0809_732,False,2019_Jun_13_0809,2IFCnew,,JOSU26,
2IFCnew,66,0,66,0,-1,3,Yes,5,-1,Hit,0.467427111231,False,True,stimulusJOSU26_2IFCnew_2019_Jun_13_0809_733,stimulusJOSU26_2IFCnew_2019_Jun_13_0809_734,False,2019_Jun_13_0809,2IFCnew,,JOSU26,
2IFCnew,67,0,67,0,-1,1,Yes,5,-1,Hit,0.475709509104,True,False,stimulusJOSU26_2IFCnew_2019_Jun_13_0809_735,stimulusJOSU26_2IFCnew_2019_Jun_13_0809_736,False,2019_Jun_13_0809,2IFCnew,,JOSU26,
2IFCnew,68,0,68,0,-1,3,Yes,5,-1,Hit,0.56485387776,False,True,stimulusJOSU26_2IFCnew_2019_Jun_13_0809_737,stimulusJOSU26_2IFCnew_2019_Jun_13_0809_738,False,2019_Jun_13_0809,2IFCnew,,JOSU26,
2IFCnew,69,0,69,0,-1,3,Yes,5,-1,Hit,0.467704231385,False,True,stimulusJOSU26_2IFCnew_2019_Jun_13_0809_739,stimulusJOSU26_2IFCnew_2019_Jun_13_0809_740,False,2019_Jun_13_0809,2IFCnew,,JOSU26,
2IFCnew,70,0,70,0,-1,3,Yes,5,-1,Hit,0.500655234791,False,True,stimulusJOSU26_2IFCnew_2019_Jun_13_0809_741,stimulusJOSU26_2IFCnew_2019_Jun_13_0809_742,False,2019_Jun_13_0809,2IFCnew,,JOSU26,
2IFCnew,71,0,71,0,-1,3,Yes,5,-1,Hit,0.668063214514,False,True,stimulusJOSU26_2IFCnew_2019_Jun_13_0809_743,stimulusJOSU26_2IFCnew_2019_Jun_13_0809_744,False,2019_Jun_13_0809,2IFCnew,,JOSU26,
2IFCnew,72,0,72,0,-1,1,Yes,5,-1,Hit,0.470328044146,True,False,stimulusJOSU26_2IFCnew_2019_Jun_13_0809_745,stimulusJOSU26_2IFCnew_2019_Jun_13_0809_746,False,2019_Jun_13_0809,2IFCnew,,JOSU26,
2IFCnew,73,0,73,0,-1,1,Yes,5,-1,Hit,0.543221275788,True,False,stimulusJOSU26_2IFCnew_2019_Jun_13_0809_747,stimulusJOSU26_2IFCnew_2019_Jun_13_0809_748,False,2019_Jun_13_0809,2IFCnew,,JOSU26,
2IFCnew,74,0,74,0,-1,3,Yes,5,-1,Hit,0.533431345131,False,True,stimulusJOSU26_2IFCnew_2019_Jun_13_0809_749,stimulusJOSU26_2IFCnew_2019_Jun_13_0809_750,False,2019_Jun_13_0809,2IFCnew,,JOSU26,
2IFCnew,0,0,0,0,0.53357052058,8,No,1.5,-1,False Alarm,0.566828203853,False,True,stimulusJOSU26_2IFCnew_2019_Jun_13_0809_751,stimulusJOSU26_2IFCnew_2019_Jun_13_0809_752,False,2019_Jun_13_0809,2IFCnew,,JOSU26,
2IFCnew,1,0,1,0,-1,4,No,1.5,-1,False Alarm,0.500193778891,True,False,stimulusJOSU26_2IFCnew_2019_Jun_13_0809_753,stimulusJOSU26_2IFCnew_2019_Jun_13_0809_754,False,2019_Jun_13_0809,2IFCnew,,JOSU26,
2IFCnew,2,0,2,0,0.429413228296,6,No,1.5,-1,Hit,0.535022219177,True,False,stimulusJOSU26_2IFCnew_2019_Jun_13_0809_755,stimulusJOSU26_2IFCnew_2019_Jun_13_0809_756,False,2019_Jun_13_0809,2IFCnew,,JOSU26,
2IFCnew,3,0,3,0,0.566393843852,8,No,1.5,-1,False Alarm,0.568326293956,False,True,stimulusJOSU26_2IFCnew_2019_Jun_13_0809_757,stimulusJOSU26_2IFCnew_2019_Jun_13_0809_758,False,2019_Jun_13_0809,2IFCnew,,JOSU26,
2IFCnew,4,0,4,0,-1,4,No,1.5,-1,False Alarm,0.634528001305,True,False,stimulusJOSU26_2IFCnew_2019_Jun_13_0809_759,stimulusJOSU26_2IFCnew_2019_Jun_13_0809_760,False,2019_Jun_13_0809,2IFCnew,,JOSU26,
2IFCnew,5,0,5,0,0.901250036899,4,Yes,1.5,-1,Miss,0.467364297248,True,False,stimulusJOSU26_2IFCnew_2019_Jun_13_0809_761,stimulusJOSU26_2IFCnew_2019_Jun_13_0809_762,False,2019_Jun_13_0809,2IFCnew,,JOSU26,
2IFCnew,6,0,6,0,-1,1,Yes,1.5,-1,Hit,0.599553405773,True,False,stimulusJOSU26_2IFCnew_2019_Jun_13_0809_763,stimulusJOSU26_2IFCnew_2019_Jun_13_0809_764,False,2019_Jun_13_0809,2IFCnew,,JOSU26,
2IFCnew,7,0,7,0,-1,1,Yes,1.5,-1,Hit,0.500973819755,True,False,stimulusJOSU26_2IFCnew_2019_Jun_13_0809_765,stimulusJOSU26_2IFCnew_2019_Jun_13_0809_766,False,2019_Jun_13_0809,2IFCnew,,JOSU26,
2IFCnew,8,0,8,0,-1,4,Yes,1.5,-1,False Alarm,0.509652807377,True,False,stimulusJOSU26_2IFCnew_2019_Jun_13_0809_767,stimulusJOSU26_2IFCnew_2019_Jun_13_0809_768,False,2019_Jun_13_0809,2IFCnew,,JOSU26,
2IFCnew,9,0,9,0,-1,1,Yes,1.5,-1,Hit,0.434673581272,True,False,stimulusJOSU26_2IFCnew_2019_Jun_13_0809_769,stimulusJOSU26_2IFCnew_2019_Jun_13_0809_770,False,2019_Jun_13_0809,2IFCnew,,JOSU26,
2IFCnew,10,0,10,0,0.333186493721,6,No,1.5,-1,Hit,0.533869809937,True,False,stimulusJOSU26_2IFCnew_2019_Jun_13_0809_771,stimulusJOSU26_2IFCnew_2019_Jun_13_0809_772,False,2019_Jun_13_0809,2IFCnew,,JOSU26,
2IFCnew,11,0,11,0,-1,1,No,1.5,-1,Hit,0.557889749762,True,False,stimulusJOSU26_2IFCnew_2019_Jun_13_0809_773,stimulusJOSU26_2IFCnew_2019_Jun_13_0809_774,False,2019_Jun_13_0809,2IFCnew,,JOSU26,
2IFCnew,12,0,12,0,-1,1,No,1.5,-1,Hit,0.465404751245,True,False,stimulusJOSU26_2IFCnew_2019_Jun_13_0809_775,stimulusJOSU26_2IFCnew_2019_Jun_13_0809_776,False,2019_Jun_13_0809,2IFCnew,,JOSU26,
2IFCnew,13,0,13,0,-1,2,No,1.5,-1,False Alarm,0.469091883861,False,True,stimulusJOSU26_2IFCnew_2019_Jun_13_0809_777,stimulusJOSU26_2IFCnew_2019_Jun_13_0809_778,False,2019_Jun_13_0809,2IFCnew,,JOSU26,
2IFCnew,14,0,14,0,-1,1,No,1.5,-1,Hit,0.507469923235,True,False,stimulusJOSU26_2IFCnew_2019_Jun_13_0809_779,stimulusJOSU26_2IFCnew_2019_Jun_13_0809_780,False,2019_Jun_13_0809,2IFCnew,,JOSU26,
2IFCnew,15,0,15,0,0.300078250468,5,Yes,1.5,-1,Hit,0.512040555943,False,True,stimulusJOSU26_2IFCnew_2019_Jun_13_0809_781,stimulusJOSU26_2IFCnew_2019_Jun_13_0809_782,False,2019_Jun_13_0809,2IFCnew,,JOSU26,
2IFCnew,16,0,16,0,-1,3,Yes,1.5,-1,Hit,0.568206002936,False,True,stimulusJOSU26_2IFCnew_2019_Jun_13_0809_783,stimulusJOSU26_2IFCnew_2019_Jun_13_0809_784,False,2019_Jun_13_0809,2IFCnew,,JOSU26,
2IFCnew,17,0,17,0,-1,3,Yes,1.5,-1,Hit,0.500672477763,False,True,stimulusJOSU26_2IFCnew_2019_Jun_13_0809_785,stimulusJOSU26_2IFCnew_2019_Jun_13_0809_786,False,2019_Jun_13_0809,2IFCnew,,JOSU26,
2IFCnew,18,0,18,0,-1,1,Yes,1.5,-1,Hit,0.45968458429,True,False,stimulusJOSU26_2IFCnew_2019_Jun_13_0809_787,stimulusJOSU26_2IFCnew_2019_Jun_13_0809_788,False,2019_Jun_13_0809,2IFCnew,,JOSU26,
2IFCnew,19,0,19,0,-1,2,Yes,1.5,-1,False Alarm,0.402051016688,False,True,stimulusJOSU26_2IFCnew_2019_Jun_13_0809_789,stimulusJOSU26_2IFCnew_2019_Jun_13_0809_790,False,2019_Jun_13_0809,2IFCnew,,JOSU26,
2IFCnew,20,0,20,0,-1,3,Yes,1.5,-1,Hit,0.5921959728,False,True,stimulusJOSU26_2IFCnew_2019_Jun_13_0809_791,stimulusJOSU26_2IFCnew_2019_Jun_13_0809_792,False,2019_Jun_13_0809,2IFCnew,,JOSU26,
2IFCnew,21,0,21,0,-1,1,Yes,1.5,-1,Hit,0.467356086709,True,False,stimulusJOSU26_2IFCnew_2019_Jun_13_0809_793,stimulusJOSU26_2IFCnew_2019_Jun_13_0809_794,False,2019_Jun_13_0809,2IFCnew,,JOSU26,
2IFCnew,22,0,22,0,-1,1,Yes,1.5,-1,Hit,0.533897727262,True,False,stimulusJOSU26_2IFCnew_2019_Jun_13_0809_795,stimulusJOSU26_2IFCnew_2019_Jun_13_0809_796,False,2019_Jun_13_0809,2IFCnew,,JOSU26,
2IFCnew,23,0,23,0,-1,1,Yes,1.5,-1,Hit,0.569002056029,True,False,stimulusJOSU26_2IFCnew_2019_Jun_13_0809_797,stimulusJOSU26_2IFCnew_2019_Jun_13_0809_798,False,2019_Jun_13_0809,2IFCnew,,JOSU26,
2IFCnew,24,0,24,0,-1,2,Yes,1.5,-1,False Alarm,0.468056070618,False,True,stimulusJOSU26_2IFCnew_2019_Jun_13_0809_799,stimulusJOSU26_2IFCnew_2019_Jun_13_0809_800,False,2019_Jun_13_0809,2IFCnew,,JOSU26,
2IFCnew,25,0,25,0,-1,3,Yes,1.5,-1,Hit,0.564355061855,False,True,stimulusJOSU26_2IFCnew_2019_Jun_13_0809_801,stimulusJOSU26_2IFCnew_2019_Jun_13_0809_802,False,2019_Jun_13_0809,2IFCnew,,JOSU26,
2IFCnew,26,0,26,0,-1,1,Yes,1.5,-1,Hit,0.499481477775,True,False,stimulusJOSU26_2IFCnew_2019_Jun_13_0809_803,stimulusJOSU26_2IFCnew_2019_Jun_13_0809_804,False,2019_Jun_13_0809,2IFCnew,,JOSU26,
2IFCnew,27,0,27,0,-1,1,Yes,1.5,-1,Hit,0.53239758499,True,False,stimulusJOSU26_2IFCnew_2019_Jun_13_0809_805,stimulusJOSU26_2IFCnew_2019_Jun_13_0809_806,False,2019_Jun_13_0809,2IFCnew,,JOSU26,
2IFCnew,28,0,28,0,0.365065556485,6,No,1.5,-1,Hit,0.533175573219,True,False,stimulusJOSU26_2IFCnew_2019_Jun_13_0809_807,stimulusJOSU26_2IFCnew_2019_Jun_13_0809_808,False,2019_Jun_13_0809,2IFCnew,,JOSU26,
2IFCnew,29,0,29,0,-1,1,No,1.5,-1,Hit,0.468917811289,True,False,stimulusJOSU26_2IFCnew_2019_Jun_13_0809_809,stimulusJOSU26_2IFCnew_2019_Jun_13_0809_810,False,2019_Jun_13_0809,2IFCnew,,JOSU26,
2IFCnew,30,0,30,0,0.599199923687,1,No,1.5,-1,Hit,0.606846793555,True,False,stimulusJOSU26_2IFCnew_2019_Jun_13_0809_811,stimulusJOSU26_2IFCnew_2019_Jun_13_0809_812,False,2019_Jun_13_0809,2IFCnew,,JOSU26,
2IFCnew,31,0,31,0,-1,4,No,1.5,-1,False Alarm,0.601006335579,True,False,stimulusJOSU26_2IFCnew_2019_Jun_13_0809_813,stimulusJOSU26_2IFCnew_2019_Jun_13_0809_814,False,2019_Jun_13_0809,2IFCnew,,JOSU26,
2IFCnew,32,0,32,0,-1,2,No,1.5,-1,False Alarm,0.49242004985,False,True,stimulusJOSU26_2IFCnew_2019_Jun_13_0809_815,stimulusJOSU26_2IFCnew_2019_Jun_13_0809_816,False,2019_Jun_13_0809,2IFCnew,,JOSU26,
2IFCnew,33,0,33,0,-1,2,No,1.5,-1,False Alarm,0.459583179094,False,True,stimulusJOSU26_2IFCnew_2019_Jun_13_0809_817,stimulusJOSU26_2IFCnew_2019_Jun_13_0809_818,False,2019_Jun_13_0809,2IFCnew,,JOSU26,
2IFCnew,34,0,34,0,-1,1,No,1.5,-1,Hit,0.466748064384,True,False,stimulusJOSU26_2IFCnew_2019_Jun_13_0809_819,stimulusJOSU26_2IFCnew_2019_Jun_13_0809_820,False,2019_Jun_13_0809,2IFCnew,,JOSU26,
2IFCnew,35,0,35,0,-1,2,No,1.5,-1,False Alarm,0.54298849497,False,True,stimulusJOSU26_2IFCnew_2019_Jun_13_0809_821,stimulusJOSU26_2IFCnew_2019_Jun_13_0809_822,False,2019_Jun_13_0809,2IFCnew,,JOSU26,
2IFCnew,36,0,36,0,-1,1,No,1.5,-1,Hit,0.50053617591,True,False,stimulusJOSU26_2IFCnew_2019_Jun_13_0809_823,stimulusJOSU26_2IFCnew_2019_Jun_13_0809_824,False,2019_Jun_13_0809,2IFCnew,,JOSU26,
2IFCnew,37,0,37,0,0.570214814972,7,Yes,1.5,-1,False Alarm,0.591378982179,True,False,stimulusJOSU26_2IFCnew_2019_Jun_13_0809_825,stimulusJOSU26_2IFCnew_2019_Jun_13_0809_826,False,2019_Jun_13_0809,2IFCnew,,JOSU26,
2IFCnew,38,0,38,0,-1,2,Yes,1.5,-1,False Alarm,0.668460625224,False,True,stimulusJOSU26_2IFCnew_2019_Jun_13_0809_827,stimulusJOSU26_2IFCnew_2019_Jun_13_0809_828,False,2019_Jun_13_0809,2IFCnew,,JOSU26,
2IFCnew,39,0,39,0,0.568063543178,7,Yes,1.5,-1,False Alarm,0.558808146045,True,False,stimulusJOSU26_2IFCnew_2019_Jun_13_0809_829,stimulusJOSU26_2IFCnew_2019_Jun_13_0809_830,False,2019_Jun_13_0809,2IFCnew,,JOSU26,
2IFCnew,40,0,40,0,-1,2,Yes,1.5,-1,False Alarm,0.56760455016,False,True,stimulusJOSU26_2IFCnew_2019_Jun_13_0809_831,stimulusJOSU26_2IFCnew_2019_Jun_13_0809_832,False,2019_Jun_13_0809,2IFCnew,,JOSU26,
2IFCnew,41,0,41,0,-1,4,Yes,1.5,-1,False Alarm,0.801811584737,True,False,stimulusJOSU26_2IFCnew_2019_Jun_13_0809_833,stimulusJOSU26_2IFCnew_2019_Jun_13_0809_834,False,2019_Jun_13_0809,2IFCnew,,JOSU26,
2IFCnew,42,0,42,0,-1,1,Yes,1.5,-1,Hit,0.668222506996,True,False,stimulusJOSU26_2IFCnew_2019_Jun_13_0809_835,stimulusJOSU26_2IFCnew_2019_Jun_13_0809_836,False,2019_Jun_13_0809,2IFCnew,,JOSU26,
2IFCnew,43,0,43,0,-1,2,Yes,1.5,-1,False Alarm,0.634628995787,False,True,stimulusJOSU26_2IFCnew_2019_Jun_13_0809_837,stimulusJOSU26_2IFCnew_2019_Jun_13_0809_838,False,2019_Jun_13_0809,2IFCnew,,JOSU26,
2IFCnew,44,0,44,0,-1,2,Yes,1.5,-1,False Alarm,0.466391298454,False,True,stimulusJOSU26_2IFCnew_2019_Jun_13_0809_839,stimulusJOSU26_2IFCnew_2019_Jun_13_0809_840,False,2019_Jun_13_0809,2IFCnew,,JOSU26,
2IFCnew,45,0,45,0,-1,1,Yes,1.5,-1,Hit,0.666223548353,True,False,stimulusJOSU26_2IFCnew_2019_Jun_13_0809_841,stimulusJOSU26_2IFCnew_2019_Jun_13_0809_842,False,2019_Jun_13_0809,2IFCnew,,JOSU26,
2IFCnew,46,0,46,0,-1,1,Yes,1.5,-1,Hit,0.576859126333,True,False,stimulusJOSU26_2IFCnew_2019_Jun_13_0809_843,stimulusJOSU26_2IFCnew_2019_Jun_13_0809_844,False,2019_Jun_13_0809,2IFCnew,,JOSU26,
2IFCnew,47,0,47,0,-1,1,Yes,1.5,-1,Hit,0.401601876598,True,False,stimulusJOSU26_2IFCnew_2019_Jun_13_0809_845,stimulusJOSU26_2IFCnew_2019_Jun_13_0809_846,False,2019_Jun_13_0809,2IFCnew,,JOSU26,
2IFCnew,48,0,48,0,-1,1,Yes,1.5,-1,Hit,0.566638940945,True,False,stimulusJOSU26_2IFCnew_2019_Jun_13_0809_847,stimulusJOSU26_2IFCnew_2019_Jun_13_0809_848,False,2019_Jun_13_0809,2IFCnew,,JOSU26,
2IFCnew,49,0,49,0,-1,1,Yes,1.5,-1,Hit,0.467924285214,True,False,stimulusJOSU26_2IFCnew_2019_Jun_13_0809_849,stimulusJOSU26_2IFCnew_2019_Jun_13_0809_850,False,2019_Jun_13_0809,2IFCnew,,JOSU26,
2IFCnew,50,0,50,0,0.400339030661,5,Yes,1.5,-1,Hit,0.50076115597,False,True,stimulusJOSU26_2IFCnew_2019_Jun_13_0809_851,stimulusJOSU26_2IFCnew_2019_Jun_13_0809_852,False,2019_Jun_13_0809,2IFCnew,,JOSU26,
2IFCnew,51,0,51,0,-1,2,Yes,1.5,-1,False Alarm,0.566179126967,False,True,stimulusJOSU26_2IFCnew_2019_Jun_13_0809_853,stimulusJOSU26_2IFCnew_2019_Jun_13_0809_854,False,2019_Jun_13_0809,2IFCnew,,JOSU26,
2IFCnew,52,0,52,0,-1,1,Yes,1.5,-1,Hit,0.628553294111,True,False,stimulusJOSU26_2IFCnew_2019_Jun_13_0809_855,stimulusJOSU26_2IFCnew_2019_Jun_13_0809_856,False,2019_Jun_13_0809,2IFCnew,,JOSU26,
2IFCnew,53,0,53,0,-1,1,Yes,1.5,-1,Hit,0.734098239336,True,False,stimulusJOSU26_2IFCnew_2019_Jun_13_0809_857,stimulusJOSU26_2IFCnew_2019_Jun_13_0809_858,False,2019_Jun_13_0809,2IFCnew,,JOSU26,
2IFCnew,54,0,54,0,-1,3,Yes,1.5,-1,Hit,0.635694368277,False,True,stimulusJOSU26_2IFCnew_2019_Jun_13_0809_859,stimulusJOSU26_2IFCnew_2019_Jun_13_0809_860,False,2019_Jun_13_0809,2IFCnew,,JOSU26,
2IFCnew,55,0,55,0,-1,4,Yes,1.5,-1,False Alarm,0.436721395701,True,False,stimulusJOSU26_2IFCnew_2019_Jun_13_0809_861,stimulusJOSU26_2IFCnew_2019_Jun_13_0809_862,False,2019_Jun_13_0809,2IFCnew,,JOSU26,
2IFCnew,56,0,56,0,0.567550357897,6,No,1.5,-1,Hit,0.701384942979,True,False,stimulusJOSU26_2IFCnew_2019_Jun_13_0809_863,stimulusJOSU26_2IFCnew_2019_Jun_13_0809_864,False,2019_Jun_13_0809,2IFCnew,,JOSU26,
2IFCnew,57,0,57,0,-1,1,No,1.5,-1,Hit,0.603104236536,True,False,stimulusJOSU26_2IFCnew_2019_Jun_13_0809_865,stimulusJOSU26_2IFCnew_2019_Jun_13_0809_866,False,2019_Jun_13_0809,2IFCnew,,JOSU26,
2IFCnew,58,0,58,0,-1,3,No,1.5,-1,Hit,0.635047755204,False,True,stimulusJOSU26_2IFCnew_2019_Jun_13_0809_867,stimulusJOSU26_2IFCnew_2019_Jun_13_0809_868,False,2019_Jun_13_0809,2IFCnew,,JOSU26,
2IFCnew,59,0,59,0,-1,4,No,1.5,-1,False Alarm,0.467069113161,True,False,stimulusJOSU26_2IFCnew_2019_Jun_13_0809_869,stimulusJOSU26_2IFCnew_2019_Jun_13_0809_870,False,2019_Jun_13_0809,2IFCnew,,JOSU26,
2IFCnew,60,0,60,0,-1,1,No,1.5,-1,Hit,0.499003599863,True,False,stimulusJOSU26_2IFCnew_2019_Jun_13_0809_871,stimulusJOSU26_2IFCnew_2019_Jun_13_0809_872,False,2019_Jun_13_0809,2IFCnew,,JOSU26,
2IFCnew,61,0,61,0,-1,1,No,1.5,-1,Hit,0.434354585595,True,False,stimulusJOSU26_2IFCnew_2019_Jun_13_0809_873,stimulusJOSU26_2IFCnew_2019_Jun_13_0809_874,False,2019_Jun_13_0809,2IFCnew,,JOSU26,
2IFCnew,62,0,62,0,-1,2,No,1.5,-1,False Alarm,0.477474045008,False,True,stimulusJOSU26_2IFCnew_2019_Jun_13_0809_875,stimulusJOSU26_2IFCnew_2019_Jun_13_0809_876,False,2019_Jun_13_0809,2IFCnew,,JOSU26,
2IFCnew,63,0,63,0,-1,3,No,1.5,-1,Hit,0.642804651055,False,True,stimulusJOSU26_2IFCnew_2019_Jun_13_0809_877,stimulusJOSU26_2IFCnew_2019_Jun_13_0809_878,False,2019_Jun_13_0809,2IFCnew,,JOSU26,
2IFCnew,64,0,64,0,-1,4,No,1.5,-1,False Alarm,0.569596940186,True,False,stimulusJOSU26_2IFCnew_2019_Jun_13_0809_879,stimulusJOSU26_2IFCnew_2019_Jun_13_0809_880,False,2019_Jun_13_0809,2IFCnew,,JOSU26,
2IFCnew,65,0,65,0,-1,3,No,1.5,-1,Hit,0.534614544362,False,True,stimulusJOSU26_2IFCnew_2019_Jun_13_0809_881,stimulusJOSU26_2IFCnew_2019_Jun_13_0809_882,False,2019_Jun_13_0809,2IFCnew,,JOSU26,
2IFCnew,66,0,66,0,0.601465738844,7,Yes,1.5,-1,False Alarm,0.533631281927,True,False,stimulusJOSU26_2IFCnew_2019_Jun_13_0809_883,stimulusJOSU26_2IFCnew_2019_Jun_13_0809_884,False,2019_Jun_13_0809,2IFCnew,,JOSU26,
2IFCnew,67,0,67,0,-1,1,Yes,1.5,-1,Hit,0.532081462909,True,False,stimulusJOSU26_2IFCnew_2019_Jun_13_0809_885,stimulusJOSU26_2IFCnew_2019_Jun_13_0809_886,False,2019_Jun_13_0809,2IFCnew,,JOSU26,
2IFCnew,68,0,68,0,-1,3,Yes,1.5,-1,Hit,0.506345431786,False,True,stimulusJOSU26_2IFCnew_2019_Jun_13_0809_887,stimulusJOSU26_2IFCnew_2019_Jun_13_0809_888,False,2019_Jun_13_0809,2IFCnew,,JOSU26,
2IFCnew,69,0,69,0,-1,4,Yes,1.5,-1,False Alarm,0.533387005795,True,False,stimulusJOSU26_2IFCnew_2019_Jun_13_0809_889,stimulusJOSU26_2IFCnew_2019_Jun_13_0809_890,False,2019_Jun_13_0809,2IFCnew,,JOSU26,
2IFCnew,70,0,70,0,-1,1,Yes,1.5,-1,Hit,0.531154855154,True,False,stimulusJOSU26_2IFCnew_2019_Jun_13_0809_891,stimulusJOSU26_2IFCnew_2019_Jun_13_0809_892,False,2019_Jun_13_0809,2IFCnew,,JOSU26,
2IFCnew,71,0,71,0,-1,1,Yes,1.5,-1,Hit,0.501590463798,True,False,stimulusJOSU26_2IFCnew_2019_Jun_13_0809_893,stimulusJOSU26_2IFCnew_2019_Jun_13_0809_894,False,2019_Jun_13_0809,2IFCnew,,JOSU26,
2IFCnew,72,0,72,0,-1,2,Yes,1.5,-1,False Alarm,0.436064929236,False,True,stimulusJOSU26_2IFCnew_2019_Jun_13_0809_895,stimulusJOSU26_2IFCnew_2019_Jun_13_0809_896,False,2019_Jun_13_0809,2IFCnew,,JOSU26,
2IFCnew,73,0,73,0,-1,4,Yes,1.5,-1,False Alarm,0.598844388966,True,False,stimulusJOSU26_2IFCnew_2019_Jun_13_0809_897,stimulusJOSU26_2IFCnew_2019_Jun_13_0809_898,False,2019_Jun_13_0809,2IFCnew,,JOSU26,
2IFCnew,74,0,74,0,-1,2,Yes,1.5,-1,False Alarm,0.567599213216,False,True,stimulusJOSU26_2IFCnew_2019_Jun_13_0809_899,stimulusJOSU26_2IFCnew_2019_Jun_13_0809_900,False,2019_Jun_13_0809,2IFCnew,,JOSU26,
2IFCnew,0,0,0,0,0.468219469301,3,No,5.8,-1,False Alarm,0.501128596719,False,True,stimulusJOSU26_2IFCnew_2019_Jun_13_0809_901,stimulusJOSU26_2IFCnew_2019_Jun_13_0809_902,False,2019_Jun_13_0809,2IFCnew,,JOSU26,
2IFCnew,1,0,1,0,-1,3,No,5.8,-1,Hit,0.500596936792,False,True,stimulusJOSU26_2IFCnew_2019_Jun_13_0809_903,stimulusJOSU26_2IFCnew_2019_Jun_13_0809_904,False,2019_Jun_13_0809,2IFCnew,,JOSU26,
2IFCnew,2,0,2,0,0.270093046594,6,No,5.8,-1,Hit,0.468407910783,True,False,stimulusJOSU26_2IFCnew_2019_Jun_13_0809_905,stimulusJOSU26_2IFCnew_2019_Jun_13_0809_906,False,2019_Jun_13_0809,2IFCnew,,JOSU26,
2IFCnew,3,0,3,0,-1,2,No,5.8,-1,False Alarm,0.468287620228,False,True,stimulusJOSU26_2IFCnew_2019_Jun_13_0809_907,stimulusJOSU26_2IFCnew_2019_Jun_13_0809_908,False,2019_Jun_13_0809,2IFCnew,,JOSU26,
2IFCnew,4,0,4,0,0.802001668606,5,Yes,5.8,-1,Hit,0.43443874782,False,True,stimulusJOSU26_2IFCnew_2019_Jun_13_0809_909,stimulusJOSU26_2IFCnew_2019_Jun_13_0809_910,False,2019_Jun_13_0809,2IFCnew,,JOSU26,
2IFCnew,5,0,5,0,0.567613171879,5,Yes,5.8,-1,Hit,0.468254776206,False,True,stimulusJOSU26_2IFCnew_2019_Jun_13_0809_911,stimulusJOSU26_2IFCnew_2019_Jun_13_0809_912,False,2019_Jun_13_0809,2IFCnew,,JOSU26,
2IFCnew,6,0,6,0,-1,2,Yes,5.8,-1,False Alarm,0.499951966107,False,True,stimulusJOSU26_2IFCnew_2019_Jun_13_0809_913,stimulusJOSU26_2IFCnew_2019_Jun_13_0809_914,False,2019_Jun_13_0809,2IFCnew,,JOSU26,
2IFCnew,7,0,7,0,-1,1,Yes,5.8,-1,Hit,0.430738067254,True,False,stimulusJOSU26_2IFCnew_2019_Jun_13_0809_915,stimulusJOSU26_2IFCnew_2019_Jun_13_0809_916,False,2019_Jun_13_0809,2IFCnew,,JOSU26,
2IFCnew,8,0,8,0,0.503125092015,5,Yes,5.8,-1,Hit,0.467196383048,False,True,stimulusJOSU26_2IFCnew_2019_Jun_13_0809_917,stimulusJOSU26_2IFCnew_2019_Jun_13_0809_918,False,2019_Jun_13_0809,2IFCnew,,JOSU26,
2IFCnew,9,0,9,0,-1,3,Yes,5.8,-1,Hit,0.410326845478,False,True,stimulusJOSU26_2IFCnew_2019_Jun_13_0809_919,stimulusJOSU26_2IFCnew_2019_Jun_13_0809_920,False,2019_Jun_13_0809,2IFCnew,,JOSU26,
2IFCnew,10,0,10,0,-1,1,Yes,5.8,-1,Hit,0.466374055017,True,False,stimulusJOSU26_2IFCnew_2019_Jun_13_0809_921,stimulusJOSU26_2IFCnew_2019_Jun_13_0809_922,False,2019_Jun_13_0809,2IFCnew,,JOSU26,
2IFCnew,11,0,11,0,-1,1,Yes,5.8,-1,Hit,0.400536504108,True,False,stimulusJOSU26_2IFCnew_2019_Jun_13_0809_923,stimulusJOSU26_2IFCnew_2019_Jun_13_0809_924,False,2019_Jun_13_0809,2IFCnew,,JOSU26,
2IFCnew,12,0,12,0,0.46560797235,5,Yes,5.8,-1,Hit,0.499070929363,False,True,stimulusJOSU26_2IFCnew_2019_Jun_13_0809_925,stimulusJOSU26_2IFCnew_2019_Jun_13_0809_926,False,2019_Jun_13_0809,2IFCnew,,JOSU26,
2IFCnew,13,0,13,0,-1,1,Yes,5.8,-1,Hit,0.534667505417,True,False,stimulusJOSU26_2IFCnew_2019_Jun_13_0809_927,stimulusJOSU26_2IFCnew_2019_Jun_13_0809_928,False,2019_Jun_13_0809,2IFCnew,,JOSU26,
2IFCnew,14,0,14,0,0.433683749754,5,Yes,5.8,-1,Hit,0.503552883863,False,True,stimulusJOSU26_2IFCnew_2019_Jun_13_0809_929,stimulusJOSU26_2IFCnew_2019_Jun_13_0809_930,False,2019_Jun_13_0809,2IFCnew,,JOSU26,
2IFCnew,15,0,15,0,-1,1,Yes,5.8,-1,Hit,0.470619533677,True,False,stimulusJOSU26_2IFCnew_2019_Jun_13_0809_931,stimulusJOSU26_2IFCnew_2019_Jun_13_0809_932,False,2019_Jun_13_0809,2IFCnew,,JOSU26,
2IFCnew,16,0,16,0,-1,3,Yes,5.8,-1,Hit,0.46752892714,False,True,stimulusJOSU26_2IFCnew_2019_Jun_13_0809_933,stimulusJOSU26_2IFCnew_2019_Jun_13_0809_934,False,2019_Jun_13_0809,2IFCnew,,JOSU26,
2IFCnew,17,0,17,0,-1,3,Yes,5.8,-1,Hit,0.470709443558,False,True,stimulusJOSU26_2IFCnew_2019_Jun_13_0809_935,stimulusJOSU26_2IFCnew_2019_Jun_13_0809_936,False,2019_Jun_13_0809,2IFCnew,,JOSU26,
2IFCnew,18,0,18,0,-1,1,Yes,5.8,-1,Hit,0.432179090567,True,False,stimulusJOSU26_2IFCnew_2019_Jun_13_0809_937,stimulusJOSU26_2IFCnew_2019_Jun_13_0809_938,False,2019_Jun_13_0809,2IFCnew,,JOSU26,
2IFCnew,19,0,19,0,-1,1,Yes,5.8,-1,Hit,0.524198938627,True,False,stimulusJOSU26_2IFCnew_2019_Jun_13_0809_939,stimulusJOSU26_2IFCnew_2019_Jun_13_0809_940,False,2019_Jun_13_0809,2IFCnew,,JOSU26,
2IFCnew,20,0,20,0,0.534859231208,5,Yes,5.8,-1,Hit,0.571655839216,False,True,stimulusJOSU26_2IFCnew_2019_Jun_13_0809_941,stimulusJOSU26_2IFCnew_2019_Jun_13_0809_942,False,2019_Jun_13_0809,2IFCnew,,JOSU26,
2IFCnew,21,0,21,0,0.535339572467,5,Yes,5.8,-1,Hit,0.568152631633,False,True,stimulusJOSU26_2IFCnew_2019_Jun_13_0809_943,stimulusJOSU26_2IFCnew_2019_Jun_13_0809_944,False,2019_Jun_13_0809,2IFCnew,,JOSU26,
2IFCnew,22,0,22,0,0.400842363015,5,Yes,5.8,-1,Hit,0.524197706953,False,True,stimulusJOSU26_2IFCnew_2019_Jun_13_0809_945,stimulusJOSU26_2IFCnew_2019_Jun_13_0809_946,False,2019_Jun_13_0809,2IFCnew,,JOSU26,
2IFCnew,23,0,23,0,-1,3,Yes,5.8,-1,Hit,0.436047275551,False,True,stimulusJOSU26_2IFCnew_2019_Jun_13_0809_947,stimulusJOSU26_2IFCnew_2019_Jun_13_0809_948,False,2019_Jun_13_0809,2IFCnew,,JOSU26,
2IFCnew,24,0,24,0,0.410793638788,5,Yes,5.8,-1,Hit,0.39981229743,False,True,stimulusJOSU26_2IFCnew_2019_Jun_13_0809_949,stimulusJOSU26_2IFCnew_2019_Jun_13_0809_950,False,2019_Jun_13_0809,2IFCnew,,JOSU26,
2IFCnew,25,0,25,0,-1,1,Yes,5.8,-1,Hit,0.366690505762,True,False,stimulusJOSU26_2IFCnew_2019_Jun_13_0809_951,stimulusJOSU26_2IFCnew_2019_Jun_13_0809_952,False,2019_Jun_13_0809,2IFCnew,,JOSU26,
2IFCnew,26,0,26,0,-1,1,Yes,5.8,-1,Hit,0.532925139181,True,False,stimulusJOSU26_2IFCnew_2019_Jun_13_0809_953,stimulusJOSU26_2IFCnew_2019_Jun_13_0809_954,False,2019_Jun_13_0809,2IFCnew,,JOSU26,
2IFCnew,27,0,27,0,-1,1,Yes,5.8,-1,Hit,0.441870079376,True,False,stimulusJOSU26_2IFCnew_2019_Jun_13_0809_955,stimulusJOSU26_2IFCnew_2019_Jun_13_0809_956,False,2019_Jun_13_0809,2IFCnew,,JOSU26,
2IFCnew,28,0,28,0,-1,1,Yes,5.8,-1,Hit,0.433277717791,True,False,stimulusJOSU26_2IFCnew_2019_Jun_13_0809_957,stimulusJOSU26_2IFCnew_2019_Jun_13_0809_958,False,2019_Jun_13_0809,2IFCnew,,JOSU26,
2IFCnew,29,0,29,0,0.674975202885,5,Yes,5.8,-1,Hit,0.39851989178,False,True,stimulusJOSU26_2IFCnew_2019_Jun_13_0809_959,stimulusJOSU26_2IFCnew_2019_Jun_13_0809_960,False,2019_Jun_13_0809,2IFCnew,,JOSU26,
2IFCnew,30,0,30,0,-1,3,Yes,5.8,-1,Hit,0.633582508657,False,True,stimulusJOSU26_2IFCnew_2019_Jun_13_0809_961,stimulusJOSU26_2IFCnew_2019_Jun_13_0809_962,False,2019_Jun_13_0809,2IFCnew,,JOSU26,
2IFCnew,31,0,31,0,-1,1,Yes,5.8,-1,Hit,0.475078496616,True,False,stimulusJOSU26_2IFCnew_2019_Jun_13_0809_963,stimulusJOSU26_2IFCnew_2019_Jun_13_0809_964,False,2019_Jun_13_0809,2IFCnew,,JOSU26,
2IFCnew,32,0,32,0,0.433453022037,5,Yes,5.8,-1,Hit,0.533480610698,False,True,stimulusJOSU26_2IFCnew_2019_Jun_13_0809_965,stimulusJOSU26_2IFCnew_2019_Jun_13_0809_966,False,2019_Jun_13_0809,2IFCnew,,JOSU26,
2IFCnew,33,0,33,0,-1,3,Yes,5.8,-1,Hit,0.63464295445,False,True,stimulusJOSU26_2IFCnew_2019_Jun_13_0809_967,stimulusJOSU26_2IFCnew_2019_Jun_13_0809_968,False,2019_Jun_13_0809,2IFCnew,,JOSU26,
2IFCnew,34,0,34,0,-1,3,Yes,5.8,-1,Hit,0.468020763714,False,True,stimulusJOSU26_2IFCnew_2019_Jun_13_0809_969,stimulusJOSU26_2IFCnew_2019_Jun_13_0809_970,False,2019_Jun_13_0809,2IFCnew,,JOSU26,
2IFCnew,35,0,35,0,-1,3,Yes,5.8,-1,Hit,0.567236699164,False,True,stimulusJOSU26_2IFCnew_2019_Jun_13_0809_971,stimulusJOSU26_2IFCnew_2019_Jun_13_0809_972,False,2019_Jun_13_0809,2IFCnew,,JOSU26,
2IFCnew,36,0,36,0,-1,3,Yes,5.8,-1,Hit,0.533218270168,False,True,stimulusJOSU26_2IFCnew_2019_Jun_13_0809_973,stimulusJOSU26_2IFCnew_2019_Jun_13_0809_974,False,2019_Jun_13_0809,2IFCnew,,JOSU26,
2IFCnew,37,0,37,0,-1,3,Yes,5.8,-1,Hit,0.502069572918,False,True,stimulusJOSU26_2IFCnew_2019_Jun_13_0809_975,stimulusJOSU26_2IFCnew_2019_Jun_13_0809_976,False,2019_Jun_13_0809,2IFCnew,,JOSU26,
2IFCnew,38,0,38,0,-1,1,Yes,5.8,-1,Hit,0.532705496065,True,False,stimulusJOSU26_2IFCnew_2019_Jun_13_0809_977,stimulusJOSU26_2IFCnew_2019_Jun_13_0809_978,False,2019_Jun_13_0809,2IFCnew,,JOSU26,
2IFCnew,39,0,39,0,-1,3,Yes,5.8,-1,Hit,0.500959040597,False,True,stimulusJOSU26_2IFCnew_2019_Jun_13_0809_979,stimulusJOSU26_2IFCnew_2019_Jun_13_0809_980,False,2019_Jun_13_0809,2IFCnew,,JOSU26,
2IFCnew,40,0,40,0,-1,1,Yes,5.8,-1,Hit,0.501099858433,True,False,stimulusJOSU26_2IFCnew_2019_Jun_13_0809_981,stimulusJOSU26_2IFCnew_2019_Jun_13_0809_982,False,2019_Jun_13_0809,2IFCnew,,JOSU26,
2IFCnew,41,0,41,0,-1,1,Yes,5.8,-1,Hit,0.535284559242,True,False,stimulusJOSU26_2IFCnew_2019_Jun_13_0809_983,stimulusJOSU26_2IFCnew_2019_Jun_13_0809_984,False,2019_Jun_13_0809,2IFCnew,,JOSU26,
2IFCnew,42,0,42,0,-1,3,Yes,5.8,-1,Hit,0.502438656054,False,True,stimulusJOSU26_2IFCnew_2019_Jun_13_0809_985,stimulusJOSU26_2IFCnew_2019_Jun_13_0809_986,False,2019_Jun_13_0809,2IFCnew,,JOSU26,
2IFCnew,43,0,43,0,-1,3,Yes,5.8,-1,Hit,0.569880218245,False,True,stimulusJOSU26_2IFCnew_2019_Jun_13_0809_987,stimulusJOSU26_2IFCnew_2019_Jun_13_0809_988,False,2019_Jun_13_0809,2IFCnew,,JOSU26,
2IFCnew,44,0,44,0,-1,3,Yes,5.8,-1,Hit,0.602206367534,False,True,stimulusJOSU26_2IFCnew_2019_Jun_13_0809_989,stimulusJOSU26_2IFCnew_2019_Jun_13_0809_990,False,2019_Jun_13_0809,2IFCnew,,JOSU26,
2IFCnew,45,0,45,0,-1,1,Yes,5.8,-1,Hit,0.60129864607,True,False,stimulusJOSU26_2IFCnew_2019_Jun_13_0809_991,stimulusJOSU26_2IFCnew_2019_Jun_13_0809_992,False,2019_Jun_13_0809,2IFCnew,,JOSU26,
2IFCnew,46,0,46,0,-1,1,Yes,5.8,-1,Hit,0.432913151104,True,False,stimulusJOSU26_2IFCnew_2019_Jun_13_0809_993,stimulusJOSU26_2IFCnew_2019_Jun_13_0809_994,False,2019_Jun_13_0809,2IFCnew,,JOSU26,
2IFCnew,47,0,47,0,-1,1,Yes,5.8,-1,Hit,0.433011682238,True,False,stimulusJOSU26_2IFCnew_2019_Jun_13_0809_995,stimulusJOSU26_2IFCnew_2019_Jun_13_0809_996,False,2019_Jun_13_0809,2IFCnew,,JOSU26,
2IFCnew,48,0,48,0,-1,3,Yes,5.8,-1,Hit,0.63495825557,False,True,stimulusJOSU26_2IFCnew_2019_Jun_13_0809_997,stimulusJOSU26_2IFCnew_2019_Jun_13_0809_998,False,2019_Jun_13_0809,2IFCnew,,JOSU26,
2IFCnew,49,0,49,0,0.377191505861,8,No,5.8,-1,False Alarm,0.503389895894,False,True,stimulusJOSU26_2IFCnew_2019_Jun_13_0809_999,stimulusJOSU26_2IFCnew_2019_Jun_13_0809_1000,False,2019_Jun_13_0809,2IFCnew,,JOSU26,
2IFCnew,50,0,50,0,0.600420894101,8,No,5.8,-1,False Alarm,0.570528474171,False,True,stimulusJOSU26_2IFCnew_2019_Jun_13_0809_1001,stimulusJOSU26_2IFCnew_2019_Jun_13_0809_1002,False,2019_Jun_13_0809,2IFCnew,,JOSU26,
2IFCnew,51,0,51,0,-1,1,No,5.8,-1,Hit,0.703347363044,True,False,stimulusJOSU26_2IFCnew_2019_Jun_13_0809_1003,stimulusJOSU26_2IFCnew_2019_Jun_13_0809_1004,False,2019_Jun_13_0809,2IFCnew,,JOSU26,
2IFCnew,52,0,52,0,-1,3,No,5.8,-1,Hit,0.535577279981,False,True,stimulusJOSU26_2IFCnew_2019_Jun_13_0809_1005,stimulusJOSU26_2IFCnew_2019_Jun_13_0809_1006,False,2019_Jun_13_0809,2IFCnew,,JOSU26,
2IFCnew,53,0,53,0,-1,1,No,5.8,-1,Hit,0.466302620247,True,False,stimulusJOSU26_2IFCnew_2019_Jun_13_0809_1007,stimulusJOSU26_2IFCnew_2019_Jun_13_0809_1008,False,2019_Jun_13_0809,2IFCnew,,JOSU26,
2IFCnew,54,0,54,0,-1,1,No,5.8,-1,Hit,0.533628407866,True,False,stimulusJOSU26_2IFCnew_2019_Jun_13_0809_1009,stimulusJOSU26_2IFCnew_2019_Jun_13_0809_1010,False,2019_Jun_13_0809,2IFCnew,,JOSU26,
2IFCnew,55,0,55,0,-1,2,No,5.8,-1,False Alarm,0.602771692444,False,True,stimulusJOSU26_2IFCnew_2019_Jun_13_0809_1011,stimulusJOSU26_2IFCnew_2019_Jun_13_0809_1012,False,2019_Jun_13_0809,2IFCnew,,JOSU26,
2IFCnew,56,0,56,0,-1,1,No,5.8,-1,Hit,0.569211025257,True,False,stimulusJOSU26_2IFCnew_2019_Jun_13_0809_1013,stimulusJOSU26_2IFCnew_2019_Jun_13_0809_1014,False,2019_Jun_13_0809,2IFCnew,,JOSU26,
2IFCnew,57,0,57,0,0.66835141927,5,Yes,5.8,-1,Hit,0.442579096183,False,True,stimulusJOSU26_2IFCnew_2019_Jun_13_0809_1015,stimulusJOSU26_2IFCnew_2019_Jun_13_0809_1016,False,2019_Jun_13_0809,2IFCnew,,JOSU26,
2IFCnew,58,0,58,0,-1,3,Yes,5.8,-1,Hit,0.503403444309,False,True,stimulusJOSU26_2IFCnew_2019_Jun_13_0809_1017,stimulusJOSU26_2IFCnew_2019_Jun_13_0809_1018,False,2019_Jun_13_0809,2IFCnew,,JOSU26,
2IFCnew,59,0,59,0,-1,1,Yes,5.8,-1,Hit,0.434891171753,True,False,stimulusJOSU26_2IFCnew_2019_Jun_13_0809_1019,stimulusJOSU26_2IFCnew_2019_Jun_13_0809_1020,False,2019_Jun_13_0809,2IFCnew,,JOSU26,
2IFCnew,60,0,60,0,0.56962732086,5,Yes,5.8,-1,Hit,0.56770718703,False,True,stimulusJOSU26_2IFCnew_2019_Jun_13_0809_1021,stimulusJOSU26_2IFCnew_2019_Jun_13_0809_1022,False,2019_Jun_13_0809,2IFCnew,,JOSU26,
2IFCnew,61,0,61,0,-1,1,Yes,5.8,-1,Hit,0.467572034802,True,False,stimulusJOSU26_2IFCnew_2019_Jun_13_0809_1023,stimulusJOSU26_2IFCnew_2019_Jun_13_0809_1024,False,2019_Jun_13_0809,2IFCnew,,JOSU26,
2IFCnew,62,0,62,0,-1,3,Yes,5.8,-1,Hit,0.498978145886,False,True,stimulusJOSU26_2IFCnew_2019_Jun_13_0809_1025,stimulusJOSU26_2IFCnew_2019_Jun_13_0809_1026,False,2019_Jun_13_0809,2IFCnew,,JOSU26,
2IFCnew,63,0,63,0,0.465643279254,5,Yes,5.8,-1,Hit,0.608684817329,False,True,stimulusJOSU26_2IFCnew_2019_Jun_13_0809_1027,stimulusJOSU26_2IFCnew_2019_Jun_13_0809_1028,False,2019_Jun_13_0809,2IFCnew,,JOSU26,
2IFCnew,64,0,64,0,0.596574057825,5,Yes,5.8,-1,Hit,0.593539286405,False,True,stimulusJOSU26_2IFCnew_2019_Jun_13_0809_1029,stimulusJOSU26_2IFCnew_2019_Jun_13_0809_1030,False,2019_Jun_13_0809,2IFCnew,,JOSU26,
