Task,trials.thisRepN,trials.thisTrialN,trials.thisN,trials.thisIndex,signal_intensity,constant Value,response,time_response,signal_on_stimuluspos1,signal_on_stimuluspos2,stimulus_name_pos1,stimulus_name_pos2,random_intensity,date,expName,session,participant,
Yes-No Task,0,0,0,0,7.6,-1,False Alarm,0.799586413894,False,-1,stimulus_JOSU26_Yes-No Task_2019_Jun_12_0946_1,-1,True,2019_Jun_12_0946,Yes-No Task,2,JOSU26,
Yes-No Task,1,0,1,0,7.6,-1,Correct Rejection,0.667859171983,False,-1,stimulus_JOSU26_Yes-No Task_2019_Jun_12_0946_2,-1,True,2019_Jun_12_0946,Yes-No Task,2,JOSU26,
Yes-No Task,2,0,2,0,5,-1,Correct Rejection,0.600357669871,False,-1,stimulus_JOSU26_Yes-No Task_2019_Jun_12_0946_3,-1,True,2019_Jun_12_0946,Yes-No Task,2,JOSU26,
Yes-No Task,3,0,3,0,7.6,-1,Hit,0.532707958948,True,-1,stimulus_JOSU26_Yes-No Task_2019_Jun_12_0946_4,-1,True,2019_Jun_12_0946,Yes-No Task,2,JOSU26,
Yes-No Task,4,0,4,0,1.5,-1,Miss,0.668863372877,True,-1,stimulus_JOSU26_Yes-No Task_2019_Jun_12_0946_5,-1,True,2019_Jun_12_0946,Yes-No Task,2,JOSU26,
Yes-No Task,5,0,5,0,5,-1,Hit,0.467091693543,True,-1,stimulus_JOSU26_Yes-No Task_2019_Jun_12_0946_6,-1,True,2019_Jun_12_0946,Yes-No Task,2,JOSU26,
Yes-No Task,6,0,6,0,6.7,-1,Correct Rejection,0.867856873199,False,-1,stimulus_JOSU26_Yes-No Task_2019_Jun_12_0946_7,-1,True,2019_Jun_12_0946,Yes-No Task,2,JOSU26,
Yes-No Task,7,0,7,0,5,-1,Hit,0.504758663476,True,-1,stimulus_JOSU26_Yes-No Task_2019_Jun_12_0946_8,-1,True,2019_Jun_12_0946,Yes-No Task,2,JOSU26,
Yes-No Task,8,0,8,0,5,-1,Hit,0.500834644306,True,-1,stimulus_JOSU26_Yes-No Task_2019_Jun_12_0946_9,-1,True,2019_Jun_12_0946,Yes-No Task,2,JOSU26,
Yes-No Task,9,0,9,0,6.7,-1,Correct Rejection,0.569326799363,False,-1,stimulus_JOSU26_Yes-No Task_2019_Jun_12_0946_10,-1,True,2019_Jun_12_0946,Yes-No Task,2,JOSU26,
Yes-No Task,10,0,10,0,5.8,-1,Hit,0.667714248411,True,-1,stimulus_JOSU26_Yes-No Task_2019_Jun_12_0946_11,-1,True,2019_Jun_12_0946,Yes-No Task,2,JOSU26,
Yes-No Task,11,0,11,0,6.7,-1,No Answer,-1,False,-1,stimulus_JOSU26_Yes-No Task_2019_Jun_12_0946_12,-1,True,2019_Jun_12_0946,Yes-No Task,2,JOSU26,
Yes-No Task,12,0,12,0,8.7,-1,False Alarm,0.667022064328,False,-1,stimulus_JOSU26_Yes-No Task_2019_Jun_12_0946_13,-1,True,2019_Jun_12_0946,Yes-No Task,2,JOSU26,
Yes-No Task,13,0,13,0,3,-1,Hit,0.49988586735,True,-1,stimulus_JOSU26_Yes-No Task_2019_Jun_12_0946_14,-1,True,2019_Jun_12_0946,Yes-No Task,2,JOSU26,
Yes-No Task,14,0,14,0,5.8,-1,Hit,0.502271562815,True,-1,stimulus_JOSU26_Yes-No Task_2019_Jun_12_0946_15,-1,True,2019_Jun_12_0946,Yes-No Task,2,JOSU26,
Yes-No Task,15,0,15,0,7.6,-1,Correct Rejection,0.768934890628,False,-1,stimulus_JOSU26_Yes-No Task_2019_Jun_12_0946_16,-1,True,2019_Jun_12_0946,Yes-No Task,2,JOSU26,
Yes-No Task,16,0,16,0,5,-1,Correct Rejection,0.501179915387,False,-1,stimulus_JOSU26_Yes-No Task_2019_Jun_12_0946_17,-1,True,2019_Jun_12_0946,Yes-No Task,2,JOSU26,
Yes-No Task,17,0,17,0,1.5,-1,Correct Rejection,0.401901987381,False,-1,stimulus_JOSU26_Yes-No Task_2019_Jun_12_0946_18,-1,True,2019_Jun_12_0946,Yes-No Task,2,JOSU26,
Yes-No Task,18,0,18,0,7.6,-1,Hit,0.500720511656,True,-1,stimulus_JOSU26_Yes-No Task_2019_Jun_12_0946_19,-1,True,2019_Jun_12_0946,Yes-No Task,2,JOSU26,
Yes-No Task,19,0,19,0,1.5,-1,Correct Rejection,0.502241592389,False,-1,stimulus_JOSU26_Yes-No Task_2019_Jun_12_0946_20,-1,True,2019_Jun_12_0946,Yes-No Task,2,JOSU26,
Yes-No Task,20,0,20,0,5,-1,Correct Rejection,0.466355991084,False,-1,stimulus_JOSU26_Yes-No Task_2019_Jun_12_0946_21,-1,True,2019_Jun_12_0946,Yes-No Task,2,JOSU26,
Yes-No Task,21,0,21,0,5.8,-1,Hit,0.603152681142,True,-1,stimulus_JOSU26_Yes-No Task_2019_Jun_12_0946_22,-1,True,2019_Jun_12_0946,Yes-No Task,2,JOSU26,
Yes-No Task,22,0,22,0,3,-1,Hit,0.598197775427,True,-1,stimulus_JOSU26_Yes-No Task_2019_Jun_12_0946_23,-1,True,2019_Jun_12_0946,Yes-No Task,2,JOSU26,
Yes-No Task,23,0,23,0,5.8,-1,Correct Rejection,0.59263895452,False,-1,stimulus_JOSU26_Yes-No Task_2019_Jun_12_0946_24,-1,True,2019_Jun_12_0946,Yes-No Task,2,JOSU26,
Yes-No Task,24,0,24,0,8.7,-1,False Alarm,0.633595645893,False,-1,stimulus_JOSU26_Yes-No Task_2019_Jun_12_0946_25,-1,True,2019_Jun_12_0946,Yes-No Task,2,JOSU26,
Yes-No Task,25,0,25,0,3,-1,Correct Rejection,0.535641325638,False,-1,stimulus_JOSU26_Yes-No Task_2019_Jun_12_0946_26,-1,True,2019_Jun_12_0946,Yes-No Task,2,JOSU26,
Yes-No Task,26,0,26,0,8.7,-1,Hit,0.492592480034,True,-1,stimulus_JOSU26_Yes-No Task_2019_Jun_12_0946_27,-1,True,2019_Jun_12_0946,Yes-No Task,2,JOSU26,
Yes-No Task,27,0,27,0,5,-1,Hit,0.467226763722,True,-1,stimulus_JOSU26_Yes-No Task_2019_Jun_12_0946_28,-1,True,2019_Jun_12_0946,Yes-No Task,2,JOSU26,
Yes-No Task,28,0,28,0,1.5,-1,Hit,0.799551106989,True,-1,stimulus_JOSU26_Yes-No Task_2019_Jun_12_0946_29,-1,True,2019_Jun_12_0946,Yes-No Task,2,JOSU26,
Yes-No Task,29,0,29,0,4,-1,Correct Rejection,0.534931898583,False,-1,stimulus_JOSU26_Yes-No Task_2019_Jun_12_0946_30,-1,True,2019_Jun_12_0946,Yes-No Task,2,JOSU26,
Yes-No Task,30,0,30,0,4,-1,Hit,0.466496398672,True,-1,stimulus_JOSU26_Yes-No Task_2019_Jun_12_0946_31,-1,True,2019_Jun_12_0946,Yes-No Task,2,JOSU26,
Yes-No Task,31,0,31,0,7.6,-1,Hit,0.468528612051,True,-1,stimulus_JOSU26_Yes-No Task_2019_Jun_12_0946_32,-1,True,2019_Jun_12_0946,Yes-No Task,2,JOSU26,
Yes-No Task,32,0,32,0,6.7,-1,Correct Rejection,0.468071671668,False,-1,stimulus_JOSU26_Yes-No Task_2019_Jun_12_0946_33,-1,True,2019_Jun_12_0946,Yes-No Task,2,JOSU26,
Yes-No Task,33,0,33,0,7.6,-1,Hit,0.526140420698,True,-1,stimulus_JOSU26_Yes-No Task_2019_Jun_12_0946_34,-1,True,2019_Jun_12_0946,Yes-No Task,2,JOSU26,
Yes-No Task,34,0,34,0,6.7,-1,Correct Rejection,0.633010204416,False,-1,stimulus_JOSU26_Yes-No Task_2019_Jun_12_0946_35,-1,True,2019_Jun_12_0946,Yes-No Task,2,JOSU26,
Yes-No Task,35,0,35,0,7.6,-1,Correct Rejection,0.535958678927,False,-1,stimulus_JOSU26_Yes-No Task_2019_Jun_12_0946_36,-1,True,2019_Jun_12_0946,Yes-No Task,2,JOSU26,
Yes-No Task,36,0,36,0,5,-1,Correct Rejection,0.500989831518,False,-1,stimulus_JOSU26_Yes-No Task_2019_Jun_12_0946_37,-1,True,2019_Jun_12_0946,Yes-No Task,2,JOSU26,
Yes-No Task,37,0,37,0,6.7,-1,Hit,0.499024127144,True,-1,stimulus_JOSU26_Yes-No Task_2019_Jun_12_0946_38,-1,True,2019_Jun_12_0946,Yes-No Task,2,JOSU26,
Yes-No Task,38,0,38,0,7.6,-1,False Alarm,0.467346233316,False,-1,stimulus_JOSU26_Yes-No Task_2019_Jun_12_0946_39,-1,True,2019_Jun_12_0946,Yes-No Task,2,JOSU26,
Yes-No Task,39,0,39,0,6.7,-1,Hit,0.436384745874,True,-1,stimulus_JOSU26_Yes-No Task_2019_Jun_12_0946_40,-1,True,2019_Jun_12_0946,Yes-No Task,2,JOSU26,
Yes-No Task,40,0,40,0,3,-1,Correct Rejection,0.59957475448,False,-1,stimulus_JOSU26_Yes-No Task_2019_Jun_12_0946_41,-1,True,2019_Jun_12_0946,Yes-No Task,2,JOSU26,
Yes-No Task,41,0,41,0,4,-1,Correct Rejection,0.532664851286,False,-1,stimulus_JOSU26_Yes-No Task_2019_Jun_12_0946_42,-1,True,2019_Jun_12_0946,Yes-No Task,2,JOSU26,
Yes-No Task,42,0,42,0,8.7,-1,Hit,0.43698291434,True,-1,stimulus_JOSU26_Yes-No Task_2019_Jun_12_0946_43,-1,True,2019_Jun_12_0946,Yes-No Task,2,JOSU26,
Yes-No Task,43,0,43,0,7.6,-1,Hit,0.499771735165,True,-1,stimulus_JOSU26_Yes-No Task_2019_Jun_12_0946_44,-1,True,2019_Jun_12_0946,Yes-No Task,2,JOSU26,
Yes-No Task,44,0,44,0,5.8,-1,Hit,0.401117840316,True,-1,stimulus_JOSU26_Yes-No Task_2019_Jun_12_0946_45,-1,True,2019_Jun_12_0946,Yes-No Task,2,JOSU26,
Yes-No Task,45,0,45,0,4,-1,Hit,0.574368740898,True,-1,stimulus_JOSU26_Yes-No Task_2019_Jun_12_0946_46,-1,True,2019_Jun_12_0946,Yes-No Task,2,JOSU26,
Yes-No Task,46,0,46,0,6.7,-1,False Alarm,0.544050993398,False,-1,stimulus_JOSU26_Yes-No Task_2019_Jun_12_0946_47,-1,True,2019_Jun_12_0946,Yes-No Task,2,JOSU26,
Yes-No Task,47,0,47,0,5,-1,Correct Rejection,0.532758867368,False,-1,stimulus_JOSU26_Yes-No Task_2019_Jun_12_0946_48,-1,True,2019_Jun_12_0946,Yes-No Task,2,JOSU26,
Yes-No Task,48,0,48,0,3,-1,Miss,0.471419281326,True,-1,stimulus_JOSU26_Yes-No Task_2019_Jun_12_0946_49,-1,True,2019_Jun_12_0946,Yes-No Task,2,JOSU26,
Yes-No Task,49,0,49,0,3,-1,Correct Rejection,0.403714967892,False,-1,stimulus_JOSU26_Yes-No Task_2019_Jun_12_0946_50,-1,True,2019_Jun_12_0946,Yes-No Task,2,JOSU26,
Yes-No Task,50,0,50,0,5.8,-1,Hit,0.601159059443,True,-1,stimulus_JOSU26_Yes-No Task_2019_Jun_12_0946_51,-1,True,2019_Jun_12_0946,Yes-No Task,2,JOSU26,
Yes-No Task,51,0,51,0,3,-1,Hit,0.527034183964,True,-1,stimulus_JOSU26_Yes-No Task_2019_Jun_12_0946_52,-1,True,2019_Jun_12_0946,Yes-No Task,2,JOSU26,
Yes-No Task,52,0,52,0,3,-1,False Alarm,0.435703236144,False,-1,stimulus_JOSU26_Yes-No Task_2019_Jun_12_0946_53,-1,True,2019_Jun_12_0946,Yes-No Task,2,JOSU26,
Yes-No Task,53,0,53,0,7.6,-1,Hit,0.462677890901,True,-1,stimulus_JOSU26_Yes-No Task_2019_Jun_12_0946_54,-1,True,2019_Jun_12_0946,Yes-No Task,2,JOSU26,
Yes-No Task,54,0,54,0,5.8,-1,Hit,0.500183104537,True,-1,stimulus_JOSU26_Yes-No Task_2019_Jun_12_0946_55,-1,True,2019_Jun_12_0946,Yes-No Task,2,JOSU26,
Yes-No Task,55,0,55,0,3,-1,Correct Rejection,0.63702125987,False,-1,stimulus_JOSU26_Yes-No Task_2019_Jun_12_0946_56,-1,True,2019_Jun_12_0946,Yes-No Task,2,JOSU26,
Yes-No Task,56,0,56,0,7.6,-1,Correct Rejection,0.600600303616,False,-1,stimulus_JOSU26_Yes-No Task_2019_Jun_12_0946_57,-1,True,2019_Jun_12_0946,Yes-No Task,2,JOSU26,
Yes-No Task,57,0,57,0,5,-1,Correct Rejection,0.500608432107,False,-1,stimulus_JOSU26_Yes-No Task_2019_Jun_12_0946_58,-1,True,2019_Jun_12_0946,Yes-No Task,2,JOSU26,
Yes-No Task,58,0,58,0,8.7,-1,False Alarm,0.566780169494,False,-1,stimulus_JOSU26_Yes-No Task_2019_Jun_12_0946_59,-1,True,2019_Jun_12_0946,Yes-No Task,2,JOSU26,
Yes-No Task,59,0,59,0,5,-1,Hit,0.428996521514,True,-1,stimulus_JOSU26_Yes-No Task_2019_Jun_12_0946_60,-1,True,2019_Jun_12_0946,Yes-No Task,2,JOSU26,
Yes-No Task,60,0,60,0,7.6,-1,Hit,0.635541644413,True,-1,stimulus_JOSU26_Yes-No Task_2019_Jun_12_0946_61,-1,True,2019_Jun_12_0946,Yes-No Task,2,JOSU26,
Yes-No Task,61,0,61,0,5.8,-1,Hit,0.467716547661,True,-1,stimulus_JOSU26_Yes-No Task_2019_Jun_12_0946_62,-1,True,2019_Jun_12_0946,Yes-No Task,2,JOSU26,
Yes-No Task,62,0,62,0,4,-1,Hit,0.599505782127,True,-1,stimulus_JOSU26_Yes-No Task_2019_Jun_12_0946_63,-1,True,2019_Jun_12_0946,Yes-No Task,2,JOSU26,
Yes-No Task,63,0,63,0,1.5,-1,Correct Rejection,0.702216302976,False,-1,stimulus_JOSU26_Yes-No Task_2019_Jun_12_0946_64,-1,True,2019_Jun_12_0946,Yes-No Task,2,JOSU26,
Yes-No Task,64,0,64,0,1.5,-1,Miss,0.524251899216,True,-1,stimulus_JOSU26_Yes-No Task_2019_Jun_12_0946_65,-1,True,2019_Jun_12_0946,Yes-No Task,2,JOSU26,
Yes-No Task,65,0,65,0,4,-1,Hit,0.601524447091,True,-1,stimulus_JOSU26_Yes-No Task_2019_Jun_12_0946_66,-1,True,2019_Jun_12_0946,Yes-No Task,2,JOSU26,
Yes-No Task,66,0,66,0,3,-1,Hit,0.469757382292,True,-1,stimulus_JOSU26_Yes-No Task_2019_Jun_12_0946_67,-1,True,2019_Jun_12_0946,Yes-No Task,2,JOSU26,
Yes-No Task,67,0,67,0,3,-1,Correct Rejection,0.526563285384,False,-1,stimulus_JOSU26_Yes-No Task_2019_Jun_12_0946_68,-1,True,2019_Jun_12_0946,Yes-No Task,2,JOSU26,
Yes-No Task,68,0,68,0,7.6,-1,Hit,0.433441526257,True,-1,stimulus_JOSU26_Yes-No Task_2019_Jun_12_0946_69,-1,True,2019_Jun_12_0946,Yes-No Task,2,JOSU26,
Yes-No Task,69,0,69,0,5.8,-1,Hit,0.471889769193,True,-1,stimulus_JOSU26_Yes-No Task_2019_Jun_12_0946_70,-1,True,2019_Jun_12_0946,Yes-No Task,2,JOSU26,
Yes-No Task,70,0,70,0,5.8,-1,Hit,0.530293525662,True,-1,stimulus_JOSU26_Yes-No Task_2019_Jun_12_0946_71,-1,True,2019_Jun_12_0946,Yes-No Task,2,JOSU26,
Yes-No Task,71,0,71,0,5.8,-1,Hit,0.399590601213,True,-1,stimulus_JOSU26_Yes-No Task_2019_Jun_12_0946_72,-1,True,2019_Jun_12_0946,Yes-No Task,2,JOSU26,
Yes-No Task,72,0,72,0,4,-1,Hit,0.636527780909,True,-1,stimulus_JOSU26_Yes-No Task_2019_Jun_12_0946_73,-1,True,2019_Jun_12_0946,Yes-No Task,2,JOSU26,
Yes-No Task,73,0,73,0,4,-1,Miss,0.599621556699,True,-1,stimulus_JOSU26_Yes-No Task_2019_Jun_12_0946_74,-1,True,2019_Jun_12_0946,Yes-No Task,2,JOSU26,
Yes-No Task,74,0,74,0,3,-1,Miss,0.500675351825,True,-1,stimulus_JOSU26_Yes-No Task_2019_Jun_12_0946_75,-1,True,2019_Jun_12_0946,Yes-No Task,2,JOSU26,
Yes-No Task,0,0,0,0,6.7,-1,No Answer,-1,True,-1,stimulus_JOSU26_Yes-No Task_2019_Jun_12_0946_76,-1,True,2019_Jun_12_0946,Yes-No Task,2,JOSU26,
Yes-No Task,1,0,1,0,7.6,-1,Correct Rejection,0.534022123553,False,-1,stimulus_JOSU26_Yes-No Task_2019_Jun_12_0946_77,-1,True,2019_Jun_12_0946,Yes-No Task,2,JOSU26,
Yes-No Task,2,0,2,0,4,-1,False Alarm,0.641111140139,False,-1,stimulus_JOSU26_Yes-No Task_2019_Jun_12_0946_78,-1,True,2019_Jun_12_0946,Yes-No Task,2,JOSU26,
Yes-No Task,3,0,3,0,4,-1,Miss,0.503138230182,True,-1,stimulus_JOSU26_Yes-No Task_2019_Jun_12_0946_79,-1,True,2019_Jun_12_0946,Yes-No Task,2,JOSU26,
Yes-No Task,4,0,4,0,7.6,-1,Hit,0.53020156268,True,-1,stimulus_JOSU26_Yes-No Task_2019_Jun_12_0946_80,-1,True,2019_Jun_12_0946,Yes-No Task,2,JOSU26,
Yes-No Task,5,0,5,0,4,-1,Correct Rejection,0.577657231595,False,-1,stimulus_JOSU26_Yes-No Task_2019_Jun_12_0946_81,-1,True,2019_Jun_12_0946,Yes-No Task,2,JOSU26,
Yes-No Task,6,0,6,0,6.7,-1,Correct Rejection,0.468373424839,False,-1,stimulus_JOSU26_Yes-No Task_2019_Jun_12_0946_82,-1,True,2019_Jun_12_0946,Yes-No Task,2,JOSU26,
Yes-No Task,7,0,7,0,8.7,-1,Correct Rejection,0.46535794856,False,-1,stimulus_JOSU26_Yes-No Task_2019_Jun_12_0946_83,-1,True,2019_Jun_12_0946,Yes-No Task,2,JOSU26,
Yes-No Task,8,0,8,0,1.5,-1,Hit,0.466881903354,True,-1,stimulus_JOSU26_Yes-No Task_2019_Jun_12_0946_84,-1,True,2019_Jun_12_0946,Yes-No Task,2,JOSU26,
Yes-No Task,9,0,9,0,8.7,-1,Correct Rejection,0.636132833548,False,-1,stimulus_JOSU26_Yes-No Task_2019_Jun_12_0946_85,-1,True,2019_Jun_12_0946,Yes-No Task,2,JOSU26,
Yes-No Task,10,0,10,0,6.7,-1,Hit,0.703379796818,True,-1,stimulus_JOSU26_Yes-No Task_2019_Jun_12_0946_86,-1,True,2019_Jun_12_0946,Yes-No Task,2,JOSU26,
Yes-No Task,11,0,11,0,5,-1,Hit,0.400714271702,True,-1,stimulus_JOSU26_Yes-No Task_2019_Jun_12_0946_87,-1,True,2019_Jun_12_0946,Yes-No Task,2,JOSU26,
Yes-No Task,12,0,12,0,6.7,-1,Hit,0.368140151259,True,-1,stimulus_JOSU26_Yes-No Task_2019_Jun_12_0946_88,-1,True,2019_Jun_12_0946,Yes-No Task,2,JOSU26,
Yes-No Task,13,0,13,0,1.5,-1,Miss,0.664965218399,True,-1,stimulus_JOSU26_Yes-No Task_2019_Jun_12_0946_89,-1,True,2019_Jun_12_0946,Yes-No Task,2,JOSU26,
Yes-No Task,14,0,14,0,5,-1,Correct Rejection,0.50136507256,False,-1,stimulus_JOSU26_Yes-No Task_2019_Jun_12_0946_90,-1,True,2019_Jun_12_0946,Yes-No Task,2,JOSU26,
Yes-No Task,15,0,15,0,8.7,-1,Hit,0.498361091595,True,-1,stimulus_JOSU26_Yes-No Task_2019_Jun_12_0946_91,-1,True,2019_Jun_12_0946,Yes-No Task,2,JOSU26,
Yes-No Task,16,0,16,0,8.7,-1,Hit,0.433229683898,True,-1,stimulus_JOSU26_Yes-No Task_2019_Jun_12_0946_92,-1,True,2019_Jun_12_0946,Yes-No Task,2,JOSU26,
Yes-No Task,17,0,17,0,6.7,-1,Hit,0.401339947246,True,-1,stimulus_JOSU26_Yes-No Task_2019_Jun_12_0946_93,-1,True,2019_Jun_12_0946,Yes-No Task,2,JOSU26,
Yes-No Task,18,0,18,0,6.7,-1,Hit,0.438026938587,True,-1,stimulus_JOSU26_Yes-No Task_2019_Jun_12_0946_94,-1,True,2019_Jun_12_0946,Yes-No Task,2,JOSU26,
Yes-No Task,19,0,19,0,5,-1,Hit,0.435339901131,True,-1,stimulus_JOSU26_Yes-No Task_2019_Jun_12_0946_95,-1,True,2019_Jun_12_0946,Yes-No Task,2,JOSU26,
Yes-No Task,20,0,20,0,1.5,-1,Correct Rejection,0.601388145238,False,-1,stimulus_JOSU26_Yes-No Task_2019_Jun_12_0946_96,-1,True,2019_Jun_12_0946,Yes-No Task,2,JOSU26,
Yes-No Task,21,0,21,0,6.7,-1,Correct Rejection,0.867062051781,False,-1,stimulus_JOSU26_Yes-No Task_2019_Jun_12_0946_97,-1,True,2019_Jun_12_0946,Yes-No Task,2,JOSU26,
Yes-No Task,22,0,22,0,7.6,-1,Correct Rejection,0.56553538749,False,-1,stimulus_JOSU26_Yes-No Task_2019_Jun_12_0946_98,-1,True,2019_Jun_12_0946,Yes-No Task,2,JOSU26,
Yes-No Task,23,0,23,0,3,-1,Miss,0.537867317442,True,-1,stimulus_JOSU26_Yes-No Task_2019_Jun_12_0946_99,-1,True,2019_Jun_12_0946,Yes-No Task,2,JOSU26,
Yes-No Task,24,0,24,0,4,-1,Hit,0.404815647285,True,-1,stimulus_JOSU26_Yes-No Task_2019_Jun_12_0946_100,-1,True,2019_Jun_12_0946,Yes-No Task,2,JOSU26,
Yes-No Task,25,0,25,0,3,-1,False Alarm,0.743758436758,False,-1,stimulus_JOSU26_Yes-No Task_2019_Jun_12_0946_101,-1,True,2019_Jun_12_0946,Yes-No Task,2,JOSU26,
Yes-No Task,26,0,26,0,5.8,-1,Correct Rejection,0.601453422569,False,-1,stimulus_JOSU26_Yes-No Task_2019_Jun_12_0946_102,-1,True,2019_Jun_12_0946,Yes-No Task,2,JOSU26,
Yes-No Task,27,0,27,0,3,-1,Correct Rejection,0.628827129956,False,-1,stimulus_JOSU26_Yes-No Task_2019_Jun_12_0946_103,-1,True,2019_Jun_12_0946,Yes-No Task,2,JOSU26,
Yes-No Task,28,0,28,0,6.7,-1,Hit,0.498059749603,True,-1,stimulus_JOSU26_Yes-No Task_2019_Jun_12_0946_104,-1,True,2019_Jun_12_0946,Yes-No Task,2,JOSU26,
Yes-No Task,29,0,29,0,4,-1,False Alarm,0.602494572289,False,-1,stimulus_JOSU26_Yes-No Task_2019_Jun_12_0946_105,-1,True,2019_Jun_12_0946,Yes-No Task,2,JOSU26,
Yes-No Task,30,0,30,0,7.6,-1,Hit,0.498578682076,True,-1,stimulus_JOSU26_Yes-No Task_2019_Jun_12_0946_106,-1,True,2019_Jun_12_0946,Yes-No Task,2,JOSU26,
Yes-No Task,31,0,31,0,1.5,-1,Correct Rejection,0.53553088801,False,-1,stimulus_JOSU26_Yes-No Task_2019_Jun_12_0946_107,-1,True,2019_Jun_12_0946,Yes-No Task,2,JOSU26,
Yes-No Task,32,0,32,0,8.7,-1,Hit,0.437262908556,True,-1,stimulus_JOSU26_Yes-No Task_2019_Jun_12_0946_108,-1,True,2019_Jun_12_0946,Yes-No Task,2,JOSU26,
Yes-No Task,33,0,33,0,7.6,-1,Correct Rejection,0.502223528922,False,-1,stimulus_JOSU26_Yes-No Task_2019_Jun_12_0946_109,-1,True,2019_Jun_12_0946,Yes-No Task,2,JOSU26,
Yes-No Task,34,0,34,0,1.5,-1,Miss,0.600393387023,True,-1,stimulus_JOSU26_Yes-No Task_2019_Jun_12_0946_110,-1,True,2019_Jun_12_0946,Yes-No Task,2,JOSU26,
Yes-No Task,35,0,35,0,4,-1,Hit,0.436134722084,True,-1,stimulus_JOSU26_Yes-No Task_2019_Jun_12_0946_111,-1,True,2019_Jun_12_0946,Yes-No Task,2,JOSU26,
Yes-No Task,36,0,36,0,8.7,-1,Hit,0.429270357359,True,-1,stimulus_JOSU26_Yes-No Task_2019_Jun_12_0946_112,-1,True,2019_Jun_12_0946,Yes-No Task,2,JOSU26,
Yes-No Task,37,0,37,0,4,-1,Miss,0.636042102706,True,-1,stimulus_JOSU26_Yes-No Task_2019_Jun_12_0946_113,-1,True,2019_Jun_12_0946,Yes-No Task,2,JOSU26,
Yes-No Task,38,0,38,0,1.5,-1,Miss,0.566601170693,True,-1,stimulus_JOSU26_Yes-No Task_2019_Jun_12_0946_114,-1,True,2019_Jun_12_0946,Yes-No Task,2,JOSU26,
Yes-No Task,39,0,39,0,7.6,-1,Hit,0.46525038546,True,-1,stimulus_JOSU26_Yes-No Task_2019_Jun_12_0946_115,-1,True,2019_Jun_12_0946,Yes-No Task,2,JOSU26,
Yes-No Task,40,0,40,0,1.5,-1,Hit,0.401477891486,True,-1,stimulus_JOSU26_Yes-No Task_2019_Jun_12_0946_116,-1,True,2019_Jun_12_0946,Yes-No Task,2,JOSU26,
Yes-No Task,41,0,41,0,4,-1,Correct Rejection,0.59975211136,False,-1,stimulus_JOSU26_Yes-No Task_2019_Jun_12_0946_117,-1,True,2019_Jun_12_0946,Yes-No Task,2,JOSU26,
Yes-No Task,42,0,42,0,3,-1,Miss,0.570457859896,True,-1,stimulus_JOSU26_Yes-No Task_2019_Jun_12_0946_118,-1,True,2019_Jun_12_0946,Yes-No Task,2,JOSU26,
Yes-No Task,43,0,43,0,5,-1,False Alarm,0.432510813698,False,-1,stimulus_JOSU26_Yes-No Task_2019_Jun_12_0946_119,-1,True,2019_Jun_12_0946,Yes-No Task,2,JOSU26,
Yes-No Task,44,0,44,0,7.6,-1,Correct Rejection,0.556844905019,False,-1,stimulus_JOSU26_Yes-No Task_2019_Jun_12_0946_120,-1,True,2019_Jun_12_0946,Yes-No Task,2,JOSU26,
Yes-No Task,45,0,45,0,6.7,-1,Correct Rejection,0.534331677016,False,-1,stimulus_JOSU26_Yes-No Task_2019_Jun_12_0946_121,-1,True,2019_Jun_12_0946,Yes-No Task,2,JOSU26,
Yes-No Task,46,0,46,0,3,-1,False Alarm,0.534368626308,False,-1,stimulus_JOSU26_Yes-No Task_2019_Jun_12_0946_122,-1,True,2019_Jun_12_0946,Yes-No Task,2,JOSU26,
Yes-No Task,47,0,47,0,7.6,-1,False Alarm,0.364847555291,False,-1,stimulus_JOSU26_Yes-No Task_2019_Jun_12_0946_123,-1,True,2019_Jun_12_0946,Yes-No Task,2,JOSU26,
Yes-No Task,48,0,48,0,5,-1,Hit,0.566482522059,True,-1,stimulus_JOSU26_Yes-No Task_2019_Jun_12_0946_124,-1,True,2019_Jun_12_0946,Yes-No Task,2,JOSU26,
Yes-No Task,49,0,49,0,3,-1,Correct Rejection,0.793139576446,False,-1,stimulus_JOSU26_Yes-No Task_2019_Jun_12_0946_125,-1,True,2019_Jun_12_0946,Yes-No Task,2,JOSU26,
Yes-No Task,50,0,50,0,7.6,-1,Miss,0.567200981546,True,-1,stimulus_JOSU26_Yes-No Task_2019_Jun_12_0946_126,-1,True,2019_Jun_12_0946,Yes-No Task,2,JOSU26,
Yes-No Task,51,0,51,0,5.8,-1,Hit,0.538642432075,True,-1,stimulus_JOSU26_Yes-No Task_2019_Jun_12_0946_127,-1,True,2019_Jun_12_0946,Yes-No Task,2,JOSU26,
Yes-No Task,52,0,52,0,7.6,-1,Hit,0.466643785592,True,-1,stimulus_JOSU26_Yes-No Task_2019_Jun_12_0946_128,-1,True,2019_Jun_12_0946,Yes-No Task,2,JOSU26,
Yes-No Task,53,0,53,0,5,-1,Hit,0.468964613974,True,-1,stimulus_JOSU26_Yes-No Task_2019_Jun_12_0946_129,-1,True,2019_Jun_12_0946,Yes-No Task,2,JOSU26,
Yes-No Task,54,0,54,0,5.8,-1,Hit,0.468508084305,True,-1,stimulus_JOSU26_Yes-No Task_2019_Jun_12_0946_130,-1,True,2019_Jun_12_0946,Yes-No Task,2,JOSU26,
Yes-No Task,55,0,55,0,3,-1,Correct Rejection,0.601202166639,False,-1,stimulus_JOSU26_Yes-No Task_2019_Jun_12_0946_131,-1,True,2019_Jun_12_0946,Yes-No Task,2,JOSU26,
Yes-No Task,56,0,56,0,5.8,-1,Miss,0.769668950699,True,-1,stimulus_JOSU26_Yes-No Task_2019_Jun_12_0946_132,-1,True,2019_Jun_12_0946,Yes-No Task,2,JOSU26,
Yes-No Task,57,0,57,0,6.7,-1,Correct Rejection,0.633711420931,False,-1,stimulus_JOSU26_Yes-No Task_2019_Jun_12_0946_133,-1,True,2019_Jun_12_0946,Yes-No Task,2,JOSU26,
Yes-No Task,58,0,58,0,5.8,-1,Hit,0.568735199515,True,-1,stimulus_JOSU26_Yes-No Task_2019_Jun_12_0946_134,-1,True,2019_Jun_12_0946,Yes-No Task,2,JOSU26,
Yes-No Task,59,0,59,0,3,-1,Correct Rejection,0.4993414809,False,-1,stimulus_JOSU26_Yes-No Task_2019_Jun_12_0946_135,-1,True,2019_Jun_12_0946,Yes-No Task,2,JOSU26,
Yes-No Task,60,0,60,0,4,-1,Hit,0.76826939173,True,-1,stimulus_JOSU26_Yes-No Task_2019_Jun_12_0946_136,-1,True,2019_Jun_12_0946,Yes-No Task,2,JOSU26,
Yes-No Task,61,0,61,0,6.7,-1,False Alarm,0.736355022527,False,-1,stimulus_JOSU26_Yes-No Task_2019_Jun_12_0946_137,-1,True,2019_Jun_12_0946,Yes-No Task,2,JOSU26,
Yes-No Task,62,0,62,0,6.7,-1,Hit,0.432568290271,True,-1,stimulus_JOSU26_Yes-No Task_2019_Jun_12_0946_138,-1,True,2019_Jun_12_0946,Yes-No Task,2,JOSU26,
Yes-No Task,63,0,63,0,6.7,-1,Hit,0.367957457434,True,-1,stimulus_JOSU26_Yes-No Task_2019_Jun_12_0946_139,-1,True,2019_Jun_12_0946,Yes-No Task,2,JOSU26,
Yes-No Task,64,0,64,0,1.5,-1,Miss,0.535747657064,True,-1,stimulus_JOSU26_Yes-No Task_2019_Jun_12_0946_140,-1,True,2019_Jun_12_0946,Yes-No Task,2,JOSU26,
Yes-No Task,65,0,65,0,1.5,-1,Hit,0.466376108117,True,-1,stimulus_JOSU26_Yes-No Task_2019_Jun_12_0946_141,-1,True,2019_Jun_12_0946,Yes-No Task,2,JOSU26,
Yes-No Task,66,0,66,0,4,-1,Hit,0.491594847757,True,-1,stimulus_JOSU26_Yes-No Task_2019_Jun_12_0946_142,-1,True,2019_Jun_12_0946,Yes-No Task,2,JOSU26,
Yes-No Task,67,0,67,0,6.7,-1,Hit,0.433776533697,True,-1,stimulus_JOSU26_Yes-No Task_2019_Jun_12_0946_143,-1,True,2019_Jun_12_0946,Yes-No Task,2,JOSU26,
Yes-No Task,68,0,68,0,4,-1,Correct Rejection,0.667753661517,False,-1,stimulus_JOSU26_Yes-No Task_2019_Jun_12_0946_144,-1,True,2019_Jun_12_0946,Yes-No Task,2,JOSU26,
Yes-No Task,69,0,69,0,8.7,-1,Hit,0.46460500313,True,-1,stimulus_JOSU26_Yes-No Task_2019_Jun_12_0946_145,-1,True,2019_Jun_12_0946,Yes-No Task,2,JOSU26,
Yes-No Task,70,0,70,0,7.6,-1,Hit,0.400035635568,True,-1,stimulus_JOSU26_Yes-No Task_2019_Jun_12_0946_146,-1,True,2019_Jun_12_0946,Yes-No Task,2,JOSU26,
Yes-No Task,71,0,71,0,3,-1,Correct Rejection,0.736497893464,False,-1,stimulus_JOSU26_Yes-No Task_2019_Jun_12_0946_147,-1,True,2019_Jun_12_0946,Yes-No Task,2,JOSU26,
Yes-No Task,72,0,72,0,4,-1,Correct Rejection,0.533061851747,False,-1,stimulus_JOSU26_Yes-No Task_2019_Jun_12_0946_148,-1,True,2019_Jun_12_0946,Yes-No Task,2,JOSU26,
Yes-No Task,73,0,73,0,6.7,-1,Hit,0.56084939139,True,-1,stimulus_JOSU26_Yes-No Task_2019_Jun_12_0946_149,-1,True,2019_Jun_12_0946,Yes-No Task,2,JOSU26,
Yes-No Task,74,0,74,0,6.7,-1,Hit,0.465094787069,True,-1,stimulus_JOSU26_Yes-No Task_2019_Jun_12_0946_150,-1,True,2019_Jun_12_0946,Yes-No Task,2,JOSU26,
Yes-No Task,0,0,0,0,6.7,-1,Miss,0.633995519951,True,-1,stimulus_JOSU26_Yes-No Task_2019_Jun_12_0946_151,-1,True,2019_Jun_12_0946,Yes-No Task,2,JOSU26,
Yes-No Task,1,0,1,0,5.8,-1,Miss,0.468528201338,True,-1,stimulus_JOSU26_Yes-No Task_2019_Jun_12_0946_152,-1,True,2019_Jun_12_0946,Yes-No Task,2,JOSU26,
Yes-No Task,2,0,2,0,3,-1,Hit,0.532651303336,True,-1,stimulus_JOSU26_Yes-No Task_2019_Jun_12_0946_153,-1,True,2019_Jun_12_0946,Yes-No Task,2,JOSU26,
Yes-No Task,3,0,3,0,7.6,-1,Hit,0.366424060427,True,-1,stimulus_JOSU26_Yes-No Task_2019_Jun_12_0946_154,-1,True,2019_Jun_12_0946,Yes-No Task,2,JOSU26,
Yes-No Task,4,0,4,0,8.7,-1,Hit,0.366763172671,True,-1,stimulus_JOSU26_Yes-No Task_2019_Jun_12_0946_155,-1,True,2019_Jun_12_0946,Yes-No Task,2,JOSU26,
Yes-No Task,5,0,5,0,8.7,-1,Hit,0.459200547542,True,-1,stimulus_JOSU26_Yes-No Task_2019_Jun_12_0946_156,-1,True,2019_Jun_12_0946,Yes-No Task,2,JOSU26,
Yes-No Task,6,0,6,0,6.7,-1,Hit,0.403416910209,True,-1,stimulus_JOSU26_Yes-No Task_2019_Jun_12_0946_157,-1,True,2019_Jun_12_0946,Yes-No Task,2,JOSU26,
Yes-No Task,7,0,7,0,4,-1,False Alarm,0.369859116618,False,-1,stimulus_JOSU26_Yes-No Task_2019_Jun_12_0946_158,-1,True,2019_Jun_12_0946,Yes-No Task,2,JOSU26,
Yes-No Task,8,0,8,0,3,-1,False Alarm,0.367604386061,False,-1,stimulus_JOSU26_Yes-No Task_2019_Jun_12_0946_159,-1,True,2019_Jun_12_0946,Yes-No Task,2,JOSU26,
Yes-No Task,9,0,9,0,8.7,-1,Correct Rejection,0.568685523234,False,-1,stimulus_JOSU26_Yes-No Task_2019_Jun_12_0946_160,-1,True,2019_Jun_12_0946,Yes-No Task,2,JOSU26,
Yes-No Task,10,0,10,0,8.7,-1,Hit,0.435011462308,True,-1,stimulus_JOSU26_Yes-No Task_2019_Jun_12_0946_161,-1,True,2019_Jun_12_0946,Yes-No Task,2,JOSU26,
Yes-No Task,11,0,11,0,4,-1,Miss,0.571586045902,True,-1,stimulus_JOSU26_Yes-No Task_2019_Jun_12_0946_162,-1,True,2019_Jun_12_0946,Yes-No Task,2,JOSU26,
Yes-No Task,12,0,12,0,5.8,-1,Correct Rejection,0.599813693203,False,-1,stimulus_JOSU26_Yes-No Task_2019_Jun_12_0946_163,-1,True,2019_Jun_12_0946,Yes-No Task,2,JOSU26,
Yes-No Task,13,0,13,0,6.7,-1,Hit,0.368744478095,True,-1,stimulus_JOSU26_Yes-No Task_2019_Jun_12_0946_164,-1,True,2019_Jun_12_0946,Yes-No Task,2,JOSU26,
Yes-No Task,14,0,14,0,3,-1,Hit,0.468919453677,True,-1,stimulus_JOSU26_Yes-No Task_2019_Jun_12_0946_165,-1,True,2019_Jun_12_0946,Yes-No Task,2,JOSU26,
Yes-No Task,15,0,15,0,3,-1,Correct Rejection,0.598883801606,False,-1,stimulus_JOSU26_Yes-No Task_2019_Jun_12_0946_166,-1,True,2019_Jun_12_0946,Yes-No Task,2,JOSU26,
Yes-No Task,16,0,16,0,1.5,-1,Correct Rejection,0.634284956381,False,-1,stimulus_JOSU26_Yes-No Task_2019_Jun_12_0946_167,-1,True,2019_Jun_12_0946,Yes-No Task,2,JOSU26,
Yes-No Task,17,0,17,0,7.6,-1,Hit,0.531489041634,True,-1,stimulus_JOSU26_Yes-No Task_2019_Jun_12_0946_168,-1,True,2019_Jun_12_0946,Yes-No Task,2,JOSU26,
Yes-No Task,18,0,18,0,4,-1,Correct Rejection,0.501886058133,False,-1,stimulus_JOSU26_Yes-No Task_2019_Jun_12_0946_169,-1,True,2019_Jun_12_0946,Yes-No Task,2,JOSU26,
Yes-No Task,19,0,19,0,6.7,-1,Hit,0.502060540952,True,-1,stimulus_JOSU26_Yes-No Task_2019_Jun_12_0946_170,-1,True,2019_Jun_12_0946,Yes-No Task,2,JOSU26,
Yes-No Task,20,0,20,0,4,-1,Correct Rejection,0.500323922839,False,-1,stimulus_JOSU26_Yes-No Task_2019_Jun_12_0946_171,-1,True,2019_Jun_12_0946,Yes-No Task,2,JOSU26,
Yes-No Task,21,0,21,0,5.8,-1,Correct Rejection,0.605204190128,False,-1,stimulus_JOSU26_Yes-No Task_2019_Jun_12_0946_172,-1,True,2019_Jun_12_0946,Yes-No Task,2,JOSU26,
Yes-No Task,22,0,22,0,4,-1,Hit,0.49354946753,True,-1,stimulus_JOSU26_Yes-No Task_2019_Jun_12_0946_173,-1,True,2019_Jun_12_0946,Yes-No Task,2,JOSU26,
Yes-No Task,23,0,23,0,1.5,-1,Hit,0.497209504247,True,-1,stimulus_JOSU26_Yes-No Task_2019_Jun_12_0946_174,-1,True,2019_Jun_12_0946,Yes-No Task,2,JOSU26,
Yes-No Task,24,0,24,0,5.8,-1,Hit,0.429421028588,True,-1,stimulus_JOSU26_Yes-No Task_2019_Jun_12_0946_175,-1,True,2019_Jun_12_0946,Yes-No Task,2,JOSU26,
Yes-No Task,25,0,25,0,5.8,-1,False Alarm,0.568433036562,False,-1,stimulus_JOSU26_Yes-No Task_2019_Jun_12_0946_176,-1,True,2019_Jun_12_0946,Yes-No Task,2,JOSU26,
Yes-No Task,26,0,26,0,5.8,-1,Miss,0.499526638072,True,-1,stimulus_JOSU26_Yes-No Task_2019_Jun_12_0946_177,-1,True,2019_Jun_12_0946,Yes-No Task,2,JOSU26,
Yes-No Task,27,0,27,0,8.7,-1,Correct Rejection,0.466064091306,False,-1,stimulus_JOSU26_Yes-No Task_2019_Jun_12_0946_178,-1,True,2019_Jun_12_0946,Yes-No Task,2,JOSU26,
Yes-No Task,28,0,28,0,8.7,-1,Hit,0.400689227972,True,-1,stimulus_JOSU26_Yes-No Task_2019_Jun_12_0946_179,-1,True,2019_Jun_12_0946,Yes-No Task,2,JOSU26,
Yes-No Task,29,0,29,0,7.6,-1,Correct Rejection,0.694166275207,False,-1,stimulus_JOSU26_Yes-No Task_2019_Jun_12_0946_180,-1,True,2019_Jun_12_0946,Yes-No Task,2,JOSU26,
Yes-No Task,30,0,30,0,3,-1,No Answer,-1,True,-1,stimulus_JOSU26_Yes-No Task_2019_Jun_12_0946_181,-1,True,2019_Jun_12_0946,Yes-No Task,2,JOSU26,
Yes-No Task,31,0,31,0,4,-1,No Answer,-1,True,-1,stimulus_JOSU26_Yes-No Task_2019_Jun_12_0946_182,-1,True,2019_Jun_12_0946,Yes-No Task,2,JOSU26,
Yes-No Task,32,0,32,0,5,-1,Correct Rejection,0.666678025387,False,-1,stimulus_JOSU26_Yes-No Task_2019_Jun_12_0946_183,-1,True,2019_Jun_12_0946,Yes-No Task,2,JOSU26,
Yes-No Task,33,0,33,0,7.6,-1,Hit,0.465923684184,True,-1,stimulus_JOSU26_Yes-No Task_2019_Jun_12_0946_184,-1,True,2019_Jun_12_0946,Yes-No Task,2,JOSU26,
Yes-No Task,34,0,34,0,8.7,-1,Correct Rejection,0.63542299578,False,-1,stimulus_JOSU26_Yes-No Task_2019_Jun_12_0946_185,-1,True,2019_Jun_12_0946,Yes-No Task,2,JOSU26,
Yes-No Task,35,0,35,0,5.8,-1,Hit,0.534132561181,True,-1,stimulus_JOSU26_Yes-No Task_2019_Jun_12_0946_186,-1,True,2019_Jun_12_0946,Yes-No Task,2,JOSU26,
Yes-No Task,36,0,36,0,6.7,-1,Hit,0.491201953497,True,-1,stimulus_JOSU26_Yes-No Task_2019_Jun_12_0946_187,-1,True,2019_Jun_12_0946,Yes-No Task,2,JOSU26,
Yes-No Task,37,0,37,0,3,-1,Correct Rejection,0.503138229717,False,-1,stimulus_JOSU26_Yes-No Task_2019_Jun_12_0946_188,-1,True,2019_Jun_12_0946,Yes-No Task,2,JOSU26,
Yes-No Task,38,0,38,0,6.7,-1,Hit,0.435242190491,True,-1,stimulus_JOSU26_Yes-No Task_2019_Jun_12_0946_189,-1,True,2019_Jun_12_0946,Yes-No Task,2,JOSU26,
Yes-No Task,39,0,39,0,5,-1,Correct Rejection,0.500857224688,False,-1,stimulus_JOSU26_Yes-No Task_2019_Jun_12_0946_190,-1,True,2019_Jun_12_0946,Yes-No Task,2,JOSU26,
Yes-No Task,40,0,40,0,6.7,-1,Correct Rejection,0.467119200155,False,-1,stimulus_JOSU26_Yes-No Task_2019_Jun_12_0946_191,-1,True,2019_Jun_12_0946,Yes-No Task,2,JOSU26,
Yes-No Task,41,0,41,0,1.5,-1,Correct Rejection,0.535504613072,False,-1,stimulus_JOSU26_Yes-No Task_2019_Jun_12_0946_192,-1,True,2019_Jun_12_0946,Yes-No Task,2,JOSU26,
Yes-No Task,42,0,42,0,5.8,-1,Hit,0.602395219728,True,-1,stimulus_JOSU26_Yes-No Task_2019_Jun_12_0946_193,-1,True,2019_Jun_12_0946,Yes-No Task,2,JOSU26,
Yes-No Task,43,0,43,0,3,-1,Hit,0.501481257379,True,-1,stimulus_JOSU26_Yes-No Task_2019_Jun_12_0946_194,-1,True,2019_Jun_12_0946,Yes-No Task,2,JOSU26,
Yes-No Task,44,0,44,0,3,-1,Correct Rejection,0.67027237406,False,-1,stimulus_JOSU26_Yes-No Task_2019_Jun_12_0946_195,-1,True,2019_Jun_12_0946,Yes-No Task,2,JOSU26,
Yes-No Task,45,0,45,0,6.7,-1,Correct Rejection,0.565228708088,False,-1,stimulus_JOSU26_Yes-No Task_2019_Jun_12_0946_196,-1,True,2019_Jun_12_0946,Yes-No Task,2,JOSU26,
Yes-No Task,46,0,46,0,4,-1,False Alarm,0.59312955942,False,-1,stimulus_JOSU26_Yes-No Task_2019_Jun_12_0946_197,-1,True,2019_Jun_12_0946,Yes-No Task,2,JOSU26,
Yes-No Task,47,0,47,0,6.7,-1,Hit,0.436087509152,True,-1,stimulus_JOSU26_Yes-No Task_2019_Jun_12_0946_198,-1,True,2019_Jun_12_0946,Yes-No Task,2,JOSU26,
Yes-No Task,48,0,48,0,6.7,-1,Hit,0.699801458977,True,-1,stimulus_JOSU26_Yes-No Task_2019_Jun_12_0946_199,-1,True,2019_Jun_12_0946,Yes-No Task,2,JOSU26,
Yes-No Task,49,0,49,0,1.5,-1,Hit,0.469157161191,True,-1,stimulus_JOSU26_Yes-No Task_2019_Jun_12_0946_200,-1,True,2019_Jun_12_0946,Yes-No Task,2,JOSU26,
Yes-No Task,50,0,50,0,7.6,-1,Hit,0.566886090674,True,-1,stimulus_JOSU26_Yes-No Task_2019_Jun_12_0946_201,-1,True,2019_Jun_12_0946,Yes-No Task,2,JOSU26,
Yes-No Task,51,0,51,0,6.7,-1,Correct Rejection,0.73466890119,False,-1,stimulus_JOSU26_Yes-No Task_2019_Jun_12_0946_202,-1,True,2019_Jun_12_0946,Yes-No Task,2,JOSU26,
Yes-No Task,52,0,52,0,7.6,-1,Hit,0.563028170262,True,-1,stimulus_JOSU26_Yes-No Task_2019_Jun_12_0946_203,-1,True,2019_Jun_12_0946,Yes-No Task,2,JOSU26,
Yes-No Task,53,0,53,0,7.6,-1,Hit,0.432897960767,True,-1,stimulus_JOSU26_Yes-No Task_2019_Jun_12_0946_204,-1,True,2019_Jun_12_0946,Yes-No Task,2,JOSU26,
Yes-No Task,54,0,54,0,1.5,-1,Hit,0.367767373566,True,-1,stimulus_JOSU26_Yes-No Task_2019_Jun_12_0946_205,-1,True,2019_Jun_12_0946,Yes-No Task,2,JOSU26,
Yes-No Task,55,0,55,0,1.5,-1,Correct Rejection,0.570638089906,False,-1,stimulus_JOSU26_Yes-No Task_2019_Jun_12_0946_206,-1,True,2019_Jun_12_0946,Yes-No Task,2,JOSU26,
Yes-No Task,56,0,56,0,5,-1,Correct Rejection,0.466272650287,False,-1,stimulus_JOSU26_Yes-No Task_2019_Jun_12_0946_207,-1,True,2019_Jun_12_0946,Yes-No Task,2,JOSU26,
Yes-No Task,57,0,57,0,4,-1,Hit,0.466571939643,True,-1,stimulus_JOSU26_Yes-No Task_2019_Jun_12_0946_208,-1,True,2019_Jun_12_0946,Yes-No Task,2,JOSU26,
Yes-No Task,58,0,58,0,6.7,-1,Hit,0.502556483261,True,-1,stimulus_JOSU26_Yes-No Task_2019_Jun_12_0946_209,-1,True,2019_Jun_12_0946,Yes-No Task,2,JOSU26,
Yes-No Task,59,0,59,0,5,-1,False Alarm,0.432124077342,False,-1,stimulus_JOSU26_Yes-No Task_2019_Jun_12_0946_210,-1,True,2019_Jun_12_0946,Yes-No Task,2,JOSU26,
Yes-No Task,60,0,60,0,6.7,-1,Hit,0.499490099493,True,-1,stimulus_JOSU26_Yes-No Task_2019_Jun_12_0946_211,-1,True,2019_Jun_12_0946,Yes-No Task,2,JOSU26,
Yes-No Task,61,0,61,0,5.8,-1,Hit,0.43468959257,True,-1,stimulus_JOSU26_Yes-No Task_2019_Jun_12_0946_212,-1,True,2019_Jun_12_0946,Yes-No Task,2,JOSU26,
Yes-No Task,62,0,62,0,4,-1,Miss,0.57481952291,True,-1,stimulus_JOSU26_Yes-No Task_2019_Jun_12_0946_213,-1,True,2019_Jun_12_0946,Yes-No Task,2,JOSU26,
Yes-No Task,63,0,63,0,5,-1,Correct Rejection,0.637826344464,False,-1,stimulus_JOSU26_Yes-No Task_2019_Jun_12_0946_214,-1,True,2019_Jun_12_0946,Yes-No Task,2,JOSU26,
Yes-No Task,64,0,64,0,3,-1,Correct Rejection,0.474051305093,False,-1,stimulus_JOSU26_Yes-No Task_2019_Jun_12_0946_215,-1,True,2019_Jun_12_0946,Yes-No Task,2,JOSU26,
Yes-No Task,65,0,65,0,7.6,-1,Correct Rejection,0.537562280428,False,-1,stimulus_JOSU26_Yes-No Task_2019_Jun_12_0946_216,-1,True,2019_Jun_12_0946,Yes-No Task,2,JOSU26,
Yes-No Task,66,0,66,0,3,-1,Miss,0.590975002386,True,-1,stimulus_JOSU26_Yes-No Task_2019_Jun_12_0946_217,-1,True,2019_Jun_12_0946,Yes-No Task,2,JOSU26,
Yes-No Task,67,0,67,0,7.6,-1,Correct Rejection,0.534755773377,False,-1,stimulus_JOSU26_Yes-No Task_2019_Jun_12_0946_218,-1,True,2019_Jun_12_0946,Yes-No Task,2,JOSU26,
Yes-No Task,68,0,68,0,6.7,-1,False Alarm,0.569628142286,False,-1,stimulus_JOSU26_Yes-No Task_2019_Jun_12_0946_219,-1,True,2019_Jun_12_0946,Yes-No Task,2,JOSU26,
Yes-No Task,69,0,69,0,8.7,-1,Hit,0.401066111401,True,-1,stimulus_JOSU26_Yes-No Task_2019_Jun_12_0946_220,-1,True,2019_Jun_12_0946,Yes-No Task,2,JOSU26,
Yes-No Task,70,0,70,0,1.5,-1,False Alarm,0.367213954683,False,-1,stimulus_JOSU26_Yes-No Task_2019_Jun_12_0946_221,-1,True,2019_Jun_12_0946,Yes-No Task,2,JOSU26,
Yes-No Task,71,0,71,0,1.5,-1,False Alarm,0.500700805336,False,-1,stimulus_JOSU26_Yes-No Task_2019_Jun_12_0946_222,-1,True,2019_Jun_12_0946,Yes-No Task,2,JOSU26,
Yes-No Task,72,0,72,0,7.6,-1,Correct Rejection,0.63515737094,False,-1,stimulus_JOSU26_Yes-No Task_2019_Jun_12_0946_223,-1,True,2019_Jun_12_0946,Yes-No Task,2,JOSU26,
Yes-No Task,73,0,73,0,8.7,-1,Correct Rejection,0.533074988984,False,-1,stimulus_JOSU26_Yes-No Task_2019_Jun_12_0946_224,-1,True,2019_Jun_12_0946,Yes-No Task,2,JOSU26,
Yes-No Task,74,0,74,0,5.8,-1,Hit,0.638495948631,True,-1,stimulus_JOSU26_Yes-No Task_2019_Jun_12_0946_225,-1,True,2019_Jun_12_0946,Yes-No Task,2,JOSU26,
Yes-No Task,0,0,0,0,7.6,-1,Correct Rejection,0.600540363695,False,-1,stimulus_JOSU26_Yes-No Task_2019_Jun_12_0946_226,-1,True,2019_Jun_12_0946,Yes-No Task,2,JOSU26,
Yes-No Task,1,0,1,0,3,-1,Miss,0.467057617847,True,-1,stimulus_JOSU26_Yes-No Task_2019_Jun_12_0946_227,-1,True,2019_Jun_12_0946,Yes-No Task,2,JOSU26,
Yes-No Task,2,0,2,0,1.5,-1,Miss,0.401068574749,True,-1,stimulus_JOSU26_Yes-No Task_2019_Jun_12_0946_228,-1,True,2019_Jun_12_0946,Yes-No Task,2,JOSU26,
Yes-No Task,3,0,3,0,8.7,-1,Correct Rejection,0.437269477174,False,-1,stimulus_JOSU26_Yes-No Task_2019_Jun_12_0946_229,-1,True,2019_Jun_12_0946,Yes-No Task,2,JOSU26,
Yes-No Task,4,0,4,0,6.7,-1,Correct Rejection,0.635780583136,False,-1,stimulus_JOSU26_Yes-No Task_2019_Jun_12_0946_230,-1,True,2019_Jun_12_0946,Yes-No Task,2,JOSU26,
Yes-No Task,5,0,5,0,5,-1,Miss,0.438739650417,True,-1,stimulus_JOSU26_Yes-No Task_2019_Jun_12_0946_231,-1,True,2019_Jun_12_0946,Yes-No Task,2,JOSU26,
Yes-No Task,6,0,6,0,3,-1,Correct Rejection,0.435229463968,False,-1,stimulus_JOSU26_Yes-No Task_2019_Jun_12_0946_232,-1,True,2019_Jun_12_0946,Yes-No Task,2,JOSU26,
Yes-No Task,7,0,7,0,1.5,-1,Miss,0.535543614998,True,-1,stimulus_JOSU26_Yes-No Task_2019_Jun_12_0946_233,-1,True,2019_Jun_12_0946,Yes-No Task,2,JOSU26,
Yes-No Task,8,0,8,0,8.7,-1,Hit,0.467197204474,True,-1,stimulus_JOSU26_Yes-No Task_2019_Jun_12_0946_234,-1,True,2019_Jun_12_0946,Yes-No Task,2,JOSU26,
Yes-No Task,9,0,9,0,8.7,-1,Hit,0.398740767036,True,-1,stimulus_JOSU26_Yes-No Task_2019_Jun_12_0946_235,-1,True,2019_Jun_12_0946,Yes-No Task,2,JOSU26,
Yes-No Task,10,0,10,0,5,-1,Hit,0.600787513424,True,-1,stimulus_JOSU26_Yes-No Task_2019_Jun_12_0946_236,-1,True,2019_Jun_12_0946,Yes-No Task,2,JOSU26,
Yes-No Task,11,0,11,0,4,-1,Hit,0.40241147764,True,-1,stimulus_JOSU26_Yes-No Task_2019_Jun_12_0946_237,-1,True,2019_Jun_12_0946,Yes-No Task,2,JOSU26,
Yes-No Task,12,0,12,0,6.7,-1,Hit,0.431642915122,True,-1,stimulus_JOSU26_Yes-No Task_2019_Jun_12_0946_238,-1,True,2019_Jun_12_0946,Yes-No Task,2,JOSU26,
Yes-No Task,13,0,13,0,1.5,-1,Correct Rejection,0.566147104371,False,-1,stimulus_JOSU26_Yes-No Task_2019_Jun_12_0946_239,-1,True,2019_Jun_12_0946,Yes-No Task,2,JOSU26,
Yes-No Task,14,0,14,0,5,-1,Hit,0.43526436016,True,-1,stimulus_JOSU26_Yes-No Task_2019_Jun_12_0946_240,-1,True,2019_Jun_12_0946,Yes-No Task,2,JOSU26,
Yes-No Task,15,0,15,0,5.8,-1,False Alarm,0.468507674057,False,-1,stimulus_JOSU26_Yes-No Task_2019_Jun_12_0946_241,-1,True,2019_Jun_12_0946,Yes-No Task,2,JOSU26,
Yes-No Task,16,0,16,0,5.8,-1,Hit,0.433070390951,True,-1,stimulus_JOSU26_Yes-No Task_2019_Jun_12_0946_242,-1,True,2019_Jun_12_0946,Yes-No Task,2,JOSU26,
Yes-No Task,17,0,17,0,5,-1,Hit,0.565121144522,True,-1,stimulus_JOSU26_Yes-No Task_2019_Jun_12_0946_243,-1,True,2019_Jun_12_0946,Yes-No Task,2,JOSU26,
Yes-No Task,18,0,18,0,4,-1,Hit,0.659624808468,True,-1,stimulus_JOSU26_Yes-No Task_2019_Jun_12_0946_244,-1,True,2019_Jun_12_0946,Yes-No Task,2,JOSU26,
Yes-No Task,19,0,19,0,3,-1,Correct Rejection,0.500063224696,False,-1,stimulus_JOSU26_Yes-No Task_2019_Jun_12_0946_245,-1,True,2019_Jun_12_0946,Yes-No Task,2,JOSU26,
Yes-No Task,20,0,20,0,5.8,-1,Miss,0.635991604999,True,-1,stimulus_JOSU26_Yes-No Task_2019_Jun_12_0946_246,-1,True,2019_Jun_12_0946,Yes-No Task,2,JOSU26,
Yes-No Task,21,0,21,0,1.5,-1,Correct Rejection,0.529845206998,False,-1,stimulus_JOSU26_Yes-No Task_2019_Jun_12_0946_247,-1,True,2019_Jun_12_0946,Yes-No Task,2,JOSU26,
Yes-No Task,22,0,22,0,6.7,-1,Hit,0.498690351378,True,-1,stimulus_JOSU26_Yes-No Task_2019_Jun_12_0946_248,-1,True,2019_Jun_12_0946,Yes-No Task,2,JOSU26,
Yes-No Task,23,0,23,0,4,-1,Hit,0.436519816052,True,-1,stimulus_JOSU26_Yes-No Task_2019_Jun_12_0946_249,-1,True,2019_Jun_12_0946,Yes-No Task,2,JOSU26,
Yes-No Task,24,0,24,0,5,-1,Correct Rejection,0.537173901685,False,-1,stimulus_JOSU26_Yes-No Task_2019_Jun_12_0946_250,-1,True,2019_Jun_12_0946,Yes-No Task,2,JOSU26,
Yes-No Task,25,0,25,0,8.7,-1,Hit,0.433744921349,True,-1,stimulus_JOSU26_Yes-No Task_2019_Jun_12_0946_251,-1,True,2019_Jun_12_0946,Yes-No Task,2,JOSU26,
Yes-No Task,26,0,26,0,1.5,-1,Correct Rejection,0.538043852895,False,-1,stimulus_JOSU26_Yes-No Task_2019_Jun_12_0946_252,-1,True,2019_Jun_12_0946,Yes-No Task,2,JOSU26,
Yes-No Task,27,0,27,0,5.8,-1,Correct Rejection,0.634359676391,False,-1,stimulus_JOSU26_Yes-No Task_2019_Jun_12_0946_253,-1,True,2019_Jun_12_0946,Yes-No Task,2,JOSU26,
Yes-No Task,28,0,28,0,7.6,-1,Hit,0.558710846119,True,-1,stimulus_JOSU26_Yes-No Task_2019_Jun_12_0946_254,-1,True,2019_Jun_12_0946,Yes-No Task,2,JOSU26,
Yes-No Task,29,0,29,0,6.7,-1,Miss,0.601343805902,True,-1,stimulus_JOSU26_Yes-No Task_2019_Jun_12_0946_255,-1,True,2019_Jun_12_0946,Yes-No Task,2,JOSU26,
Yes-No Task,30,0,30,0,3,-1,Miss,0.733179021627,True,-1,stimulus_JOSU26_Yes-No Task_2019_Jun_12_0946_256,-1,True,2019_Jun_12_0946,Yes-No Task,2,JOSU26,
Yes-No Task,31,0,31,0,7.6,-1,Hit,0.568057795521,True,-1,stimulus_JOSU26_Yes-No Task_2019_Jun_12_0946_257,-1,True,2019_Jun_12_0946,Yes-No Task,2,JOSU26,
Yes-No Task,32,0,32,0,8.7,-1,Hit,0.468451428693,True,-1,stimulus_JOSU26_Yes-No Task_2019_Jun_12_0946_258,-1,True,2019_Jun_12_0946,Yes-No Task,2,JOSU26,
Yes-No Task,33,0,33,0,1.5,-1,Correct Rejection,0.634647881147,False,-1,stimulus_JOSU26_Yes-No Task_2019_Jun_12_0946_259,-1,True,2019_Jun_12_0946,Yes-No Task,2,JOSU26,
Yes-No Task,34,0,34,0,5,-1,Correct Rejection,0.468840628397,False,-1,stimulus_JOSU26_Yes-No Task_2019_Jun_12_0946_260,-1,True,2019_Jun_12_0946,Yes-No Task,2,JOSU26,
Yes-No Task,35,0,35,0,7.6,-1,Correct Rejection,0.658398911357,False,-1,stimulus_JOSU26_Yes-No Task_2019_Jun_12_0946_261,-1,True,2019_Jun_12_0946,Yes-No Task,2,JOSU26,
Yes-No Task,36,0,36,0,3,-1,Correct Rejection,0.568686344661,False,-1,stimulus_JOSU26_Yes-No Task_2019_Jun_12_0946_262,-1,True,2019_Jun_12_0946,Yes-No Task,2,JOSU26,
Yes-No Task,37,0,37,0,1.5,-1,Hit,0.534506570548,True,-1,stimulus_JOSU26_Yes-No Task_2019_Jun_12_0946_263,-1,True,2019_Jun_12_0946,Yes-No Task,2,JOSU26,
Yes-No Task,38,0,38,0,4,-1,Correct Rejection,0.565506238956,False,-1,stimulus_JOSU26_Yes-No Task_2019_Jun_12_0946_264,-1,True,2019_Jun_12_0946,Yes-No Task,2,JOSU26,
Yes-No Task,39,0,39,0,8.7,-1,Hit,0.435558723286,True,-1,stimulus_JOSU26_Yes-No Task_2019_Jun_12_0946_265,-1,True,2019_Jun_12_0946,Yes-No Task,2,JOSU26,
Yes-No Task,40,0,40,0,5.8,-1,Hit,0.470548919402,True,-1,stimulus_JOSU26_Yes-No Task_2019_Jun_12_0946_266,-1,True,2019_Jun_12_0946,Yes-No Task,2,JOSU26,
Yes-No Task,41,0,41,0,8.7,-1,False Alarm,0.835064751562,False,-1,stimulus_JOSU26_Yes-No Task_2019_Jun_12_0946_267,-1,True,2019_Jun_12_0946,Yes-No Task,2,JOSU26,
Yes-No Task,42,0,42,0,4,-1,Hit,0.43398755556,True,-1,stimulus_JOSU26_Yes-No Task_2019_Jun_12_0946_268,-1,True,2019_Jun_12_0946,Yes-No Task,2,JOSU26,
Yes-No Task,43,0,43,0,8.7,-1,Correct Rejection,0.500640865881,False,-1,stimulus_JOSU26_Yes-No Task_2019_Jun_12_0946_269,-1,True,2019_Jun_12_0946,Yes-No Task,2,JOSU26,
Yes-No Task,44,0,44,0,7.6,-1,Hit,0.43411605712,True,-1,stimulus_JOSU26_Yes-No Task_2019_Jun_12_0946_270,-1,True,2019_Jun_12_0946,Yes-No Task,2,JOSU26,
Yes-No Task,45,0,45,0,3,-1,False Alarm,0.537561869714,False,-1,stimulus_JOSU26_Yes-No Task_2019_Jun_12_0946_271,-1,True,2019_Jun_12_0946,Yes-No Task,2,JOSU26,
Yes-No Task,46,0,46,0,6.7,-1,Hit,0.467016152572,True,-1,stimulus_JOSU26_Yes-No Task_2019_Jun_12_0946_272,-1,True,2019_Jun_12_0946,Yes-No Task,2,JOSU26,
Yes-No Task,47,0,47,0,6.7,-1,Hit,0.631705071777,True,-1,stimulus_JOSU26_Yes-No Task_2019_Jun_12_0946_273,-1,True,2019_Jun_12_0946,Yes-No Task,2,JOSU26,
Yes-No Task,48,0,48,0,5,-1,Correct Rejection,0.56936785439,False,-1,stimulus_JOSU26_Yes-No Task_2019_Jun_12_0946_274,-1,True,2019_Jun_12_0946,Yes-No Task,2,JOSU26,
Yes-No Task,49,0,49,0,3,-1,False Alarm,0.66988030076,False,-1,stimulus_JOSU26_Yes-No Task_2019_Jun_12_0946_275,-1,True,2019_Jun_12_0946,Yes-No Task,2,JOSU26,
Yes-No Task,50,0,50,0,7.6,-1,False Alarm,0.460373073351,False,-1,stimulus_JOSU26_Yes-No Task_2019_Jun_12_0946_276,-1,True,2019_Jun_12_0946,Yes-No Task,2,JOSU26,
Yes-No Task,51,0,51,0,4,-1,Miss,0.768382292707,True,-1,stimulus_JOSU26_Yes-No Task_2019_Jun_12_0946_277,-1,True,2019_Jun_12_0946,Yes-No Task,2,JOSU26,
Yes-No Task,52,0,52,0,5,-1,Hit,0.531769035384,True,-1,stimulus_JOSU26_Yes-No Task_2019_Jun_12_0946_278,-1,True,2019_Jun_12_0946,Yes-No Task,2,JOSU26,
Yes-No Task,53,0,53,0,7.6,-1,Hit,0.401697534602,True,-1,stimulus_JOSU26_Yes-No Task_2019_Jun_12_0946_279,-1,True,2019_Jun_12_0946,Yes-No Task,2,JOSU26,
Yes-No Task,54,0,54,0,4,-1,False Alarm,0.635363056324,False,-1,stimulus_JOSU26_Yes-No Task_2019_Jun_12_0946_280,-1,True,2019_Jun_12_0946,Yes-No Task,2,JOSU26,
Yes-No Task,55,0,55,0,7.6,-1,Hit,0.434248663951,True,-1,stimulus_JOSU26_Yes-No Task_2019_Jun_12_0946_281,-1,True,2019_Jun_12_0946,Yes-No Task,2,JOSU26,
Yes-No Task,56,0,56,0,6.7,-1,False Alarm,0.500737754628,False,-1,stimulus_JOSU26_Yes-No Task_2019_Jun_12_0946_282,-1,True,2019_Jun_12_0946,Yes-No Task,2,JOSU26,
Yes-No Task,57,0,57,0,3,-1,Miss,0.632505230606,True,-1,stimulus_JOSU26_Yes-No Task_2019_Jun_12_0946_283,-1,True,2019_Jun_12_0946,Yes-No Task,2,JOSU26,
Yes-No Task,58,0,58,0,4,-1,Correct Rejection,0.665431601461,False,-1,stimulus_JOSU26_Yes-No Task_2019_Jun_12_0946_284,-1,True,2019_Jun_12_0946,Yes-No Task,2,JOSU26,
Yes-No Task,59,0,59,0,7.6,-1,Hit,0.468135717791,True,-1,stimulus_JOSU26_Yes-No Task_2019_Jun_12_0946_285,-1,True,2019_Jun_12_0946,Yes-No Task,2,JOSU26,
Yes-No Task,60,0,60,0,4,-1,Hit,0.435428579338,True,-1,stimulus_JOSU26_Yes-No Task_2019_Jun_12_0946_286,-1,True,2019_Jun_12_0946,Yes-No Task,2,JOSU26,
Yes-No Task,61,0,61,0,4,-1,Correct Rejection,0.567574990448,False,-1,stimulus_JOSU26_Yes-No Task_2019_Jun_12_0946_287,-1,True,2019_Jun_12_0946,Yes-No Task,2,JOSU26,
Yes-No Task,62,0,62,0,7.6,-1,Hit,0.402500155848,True,-1,stimulus_JOSU26_Yes-No Task_2019_Jun_12_0946_288,-1,True,2019_Jun_12_0946,Yes-No Task,2,JOSU26,
Yes-No Task,63,0,63,0,4,-1,False Alarm,0.468021995388,False,-1,stimulus_JOSU26_Yes-No Task_2019_Jun_12_0946_289,-1,True,2019_Jun_12_0946,Yes-No Task,2,JOSU26,
Yes-No Task,64,0,64,0,5.8,-1,Correct Rejection,0.501262845937,False,-1,stimulus_JOSU26_Yes-No Task_2019_Jun_12_0946_290,-1,True,2019_Jun_12_0946,Yes-No Task,2,JOSU26,
Yes-No Task,65,0,65,0,6.7,-1,Correct Rejection,0.46944577666,False,-1,stimulus_JOSU26_Yes-No Task_2019_Jun_12_0946_291,-1,True,2019_Jun_12_0946,Yes-No Task,2,JOSU26,
Yes-No Task,66,0,66,0,4,-1,Correct Rejection,0.602305309847,False,-1,stimulus_JOSU26_Yes-No Task_2019_Jun_12_0946_292,-1,True,2019_Jun_12_0946,Yes-No Task,2,JOSU26,
Yes-No Task,67,0,67,0,4,-1,Miss,0.570399151184,True,-1,stimulus_JOSU26_Yes-No Task_2019_Jun_12_0946_293,-1,True,2019_Jun_12_0946,Yes-No Task,2,JOSU26,
Yes-No Task,68,0,68,0,6.7,-1,Miss,0.542503227014,True,-1,stimulus_JOSU26_Yes-No Task_2019_Jun_12_0946_294,-1,True,2019_Jun_12_0946,Yes-No Task,2,JOSU26,
Yes-No Task,69,0,69,0,6.7,-1,Correct Rejection,0.600095329341,False,-1,stimulus_JOSU26_Yes-No Task_2019_Jun_12_0946_295,-1,True,2019_Jun_12_0946,Yes-No Task,2,JOSU26,
Yes-No Task,70,0,70,0,6.7,-1,Correct Rejection,0.467663176823,False,-1,stimulus_JOSU26_Yes-No Task_2019_Jun_12_0946_296,-1,True,2019_Jun_12_0946,Yes-No Task,2,JOSU26,
Yes-No Task,71,0,71,0,7.6,-1,Correct Rejection,0.505969780032,False,-1,stimulus_JOSU26_Yes-No Task_2019_Jun_12_0946_297,-1,True,2019_Jun_12_0946,Yes-No Task,2,JOSU26,
Yes-No Task,72,0,72,0,5,-1,Hit,0.402081396896,True,-1,stimulus_JOSU26_Yes-No Task_2019_Jun_12_0946_298,-1,True,2019_Jun_12_0946,Yes-No Task,2,JOSU26,
Yes-No Task,73,0,73,0,3,-1,Correct Rejection,0.6246370757,False,-1,stimulus_JOSU26_Yes-No Task_2019_Jun_12_0946_299,-1,True,2019_Jun_12_0946,Yes-No Task,2,JOSU26,
Yes-No Task,74,0,74,0,3,-1,Hit,0.501494805794,True,-1,stimulus_JOSU26_Yes-No Task_2019_Jun_12_0946_300,-1,True,2019_Jun_12_0946,Yes-No Task,2,JOSU26,
Yes-No Task,0,0,0,0,6.7,-1,Correct Rejection,0.567547073122,False,-1,stimulus_JOSU26_Yes-No Task_2019_Jun_12_0946_301,-1,True,2019_Jun_12_0946,Yes-No Task,2,JOSU26,
Yes-No Task,1,0,1,0,3,-1,Correct Rejection,0.53376224637,False,-1,stimulus_JOSU26_Yes-No Task_2019_Jun_12_0946_302,-1,True,2019_Jun_12_0946,Yes-No Task,2,JOSU26,
Yes-No Task,2,0,2,0,5,-1,Hit,0.60141688399,True,-1,stimulus_JOSU26_Yes-No Task_2019_Jun_12_0946_303,-1,True,2019_Jun_12_0946,Yes-No Task,2,JOSU26,
Yes-No Task,3,0,3,0,4,-1,Hit,0.401552611031,True,-1,stimulus_JOSU26_Yes-No Task_2019_Jun_12_0946_304,-1,True,2019_Jun_12_0946,Yes-No Task,2,JOSU26,
Yes-No Task,4,0,4,0,5,-1,Hit,0.43517198693,True,-1,stimulus_JOSU26_Yes-No Task_2019_Jun_12_0946_305,-1,True,2019_Jun_12_0946,Yes-No Task,2,JOSU26,
Yes-No Task,5,0,5,0,7.6,-1,False Alarm,0.370017587673,False,-1,stimulus_JOSU26_Yes-No Task_2019_Jun_12_0946_306,-1,True,2019_Jun_12_0946,Yes-No Task,2,JOSU26,
Yes-No Task,6,0,6,0,8.7,-1,False Alarm,0.435194156598,False,-1,stimulus_JOSU26_Yes-No Task_2019_Jun_12_0946_307,-1,True,2019_Jun_12_0946,Yes-No Task,2,JOSU26,
Yes-No Task,7,0,7,0,5,-1,Correct Rejection,0.465463870205,False,-1,stimulus_JOSU26_Yes-No Task_2019_Jun_12_0946_308,-1,True,2019_Jun_12_0946,Yes-No Task,2,JOSU26,
Yes-No Task,8,0,8,0,6.7,-1,Correct Rejection,0.504089059308,False,-1,stimulus_JOSU26_Yes-No Task_2019_Jun_12_0946_309,-1,True,2019_Jun_12_0946,Yes-No Task,2,JOSU26,
Yes-No Task,9,0,9,0,6.7,-1,Hit,0.469225722365,True,-1,stimulus_JOSU26_Yes-No Task_2019_Jun_12_0946_310,-1,True,2019_Jun_12_0946,Yes-No Task,2,JOSU26,
Yes-No Task,10,0,10,0,8.7,-1,Correct Rejection,0.535721792839,False,-1,stimulus_JOSU26_Yes-No Task_2019_Jun_12_0946_311,-1,True,2019_Jun_12_0946,Yes-No Task,2,JOSU26,
Yes-No Task,11,0,11,0,5,-1,Hit,0.433867675252,True,-1,stimulus_JOSU26_Yes-No Task_2019_Jun_12_0946_312,-1,True,2019_Jun_12_0946,Yes-No Task,2,JOSU26,
Yes-No Task,12,0,12,0,4,-1,Hit,0.401223351248,True,-1,stimulus_JOSU26_Yes-No Task_2019_Jun_12_0946_313,-1,True,2019_Jun_12_0946,Yes-No Task,2,JOSU26,
Yes-No Task,13,0,13,0,5,-1,Hit,0.536693971138,True,-1,stimulus_JOSU26_Yes-No Task_2019_Jun_12_0946_314,-1,True,2019_Jun_12_0946,Yes-No Task,2,JOSU26,
Yes-No Task,14,0,14,0,1.5,-1,False Alarm,0.434499919415,False,-1,stimulus_JOSU26_Yes-No Task_2019_Jun_12_0946_315,-1,True,2019_Jun_12_0946,Yes-No Task,2,JOSU26,
Yes-No Task,15,0,15,0,6.7,-1,Hit,0.439841971733,True,-1,stimulus_JOSU26_Yes-No Task_2019_Jun_12_0946_316,-1,True,2019_Jun_12_0946,Yes-No Task,2,JOSU26,
Yes-No Task,16,0,16,0,6.7,-1,Miss,0.668693816755,True,-1,stimulus_JOSU26_Yes-No Task_2019_Jun_12_0946_317,-1,True,2019_Jun_12_0946,Yes-No Task,2,JOSU26,
Yes-No Task,17,0,17,0,7.6,-1,Hit,0.40146762738,True,-1,stimulus_JOSU26_Yes-No Task_2019_Jun_12_0946_318,-1,True,2019_Jun_12_0946,Yes-No Task,2,JOSU26,
Yes-No Task,18,0,18,0,3,-1,Miss,0.537387797143,True,-1,stimulus_JOSU26_Yes-No Task_2019_Jun_12_0946_319,-1,True,2019_Jun_12_0946,Yes-No Task,2,JOSU26,
Yes-No Task,19,0,19,0,6.7,-1,Correct Rejection,0.535651589278,False,-1,stimulus_JOSU26_Yes-No Task_2019_Jun_12_0946_320,-1,True,2019_Jun_12_0946,Yes-No Task,2,JOSU26,
Yes-No Task,20,0,20,0,4,-1,Hit,0.402974338736,True,-1,stimulus_JOSU26_Yes-No Task_2019_Jun_12_0946_321,-1,True,2019_Jun_12_0946,Yes-No Task,2,JOSU26,
Yes-No Task,21,0,21,0,6.7,-1,Hit,0.533681368455,True,-1,stimulus_JOSU26_Yes-No Task_2019_Jun_12_0946_322,-1,True,2019_Jun_12_0946,Yes-No Task,2,JOSU26,
Yes-No Task,22,0,22,0,8.7,-1,Hit,0.432072348427,True,-1,stimulus_JOSU26_Yes-No Task_2019_Jun_12_0946_323,-1,True,2019_Jun_12_0946,Yes-No Task,2,JOSU26,
Yes-No Task,23,0,23,0,1.5,-1,Hit,0.570268596988,True,-1,stimulus_JOSU26_Yes-No Task_2019_Jun_12_0946_324,-1,True,2019_Jun_12_0946,Yes-No Task,2,JOSU26,
Yes-No Task,24,0,24,0,4,-1,Hit,0.536710392684,True,-1,stimulus_JOSU26_Yes-No Task_2019_Jun_12_0946_325,-1,True,2019_Jun_12_0946,Yes-No Task,2,JOSU26,
Yes-No Task,25,0,25,0,8.7,-1,Hit,0.566421761177,True,-1,stimulus_JOSU26_Yes-No Task_2019_Jun_12_0946_326,-1,True,2019_Jun_12_0946,Yes-No Task,2,JOSU26,
Yes-No Task,26,0,26,0,4,-1,Correct Rejection,0.669051814359,False,-1,stimulus_JOSU26_Yes-No Task_2019_Jun_12_0946_327,-1,True,2019_Jun_12_0946,Yes-No Task,2,JOSU26,
Yes-No Task,27,0,27,0,4,-1,Hit,0.601879160851,True,-1,stimulus_JOSU26_Yes-No Task_2019_Jun_12_0946_328,-1,True,2019_Jun_12_0946,Yes-No Task,2,JOSU26,
Yes-No Task,28,0,28,0,7.6,-1,Correct Rejection,0.731633719057,False,-1,stimulus_JOSU26_Yes-No Task_2019_Jun_12_0946_329,-1,True,2019_Jun_12_0946,Yes-No Task,2,JOSU26,
Yes-No Task,29,0,29,0,5,-1,Miss,0.566602402367,True,-1,stimulus_JOSU26_Yes-No Task_2019_Jun_12_0946_330,-1,True,2019_Jun_12_0946,Yes-No Task,2,JOSU26,
Yes-No Task,30,0,30,0,6.7,-1,Correct Rejection,0.534350973088,False,-1,stimulus_JOSU26_Yes-No Task_2019_Jun_12_0946_331,-1,True,2019_Jun_12_0946,Yes-No Task,2,JOSU26,
Yes-No Task,31,0,31,0,3,-1,Hit,0.701058557257,True,-1,stimulus_JOSU26_Yes-No Task_2019_Jun_12_0946_332,-1,True,2019_Jun_12_0946,Yes-No Task,2,JOSU26,
Yes-No Task,32,0,32,0,7.6,-1,Hit,0.532411543652,True,-1,stimulus_JOSU26_Yes-No Task_2019_Jun_12_0946_333,-1,True,2019_Jun_12_0946,Yes-No Task,2,JOSU26,
Yes-No Task,33,0,33,0,3,-1,Hit,0.669136387296,True,-1,stimulus_JOSU26_Yes-No Task_2019_Jun_12_0946_334,-1,True,2019_Jun_12_0946,Yes-No Task,2,JOSU26,
Yes-No Task,34,0,34,0,8.7,-1,Hit,0.533034345135,True,-1,stimulus_JOSU26_Yes-No Task_2019_Jun_12_0946_335,-1,True,2019_Jun_12_0946,Yes-No Task,2,JOSU26,
Yes-No Task,35,0,35,0,7.6,-1,Hit,0.603545165155,True,-1,stimulus_JOSU26_Yes-No Task_2019_Jun_12_0946_336,-1,True,2019_Jun_12_0946,Yes-No Task,2,JOSU26,
Yes-No Task,36,0,36,0,3,-1,Correct Rejection,0.767696266528,False,-1,stimulus_JOSU26_Yes-No Task_2019_Jun_12_0946_337,-1,True,2019_Jun_12_0946,Yes-No Task,2,JOSU26,
Yes-No Task,37,0,37,0,1.5,-1,Correct Rejection,0.836625655647,False,-1,stimulus_JOSU26_Yes-No Task_2019_Jun_12_0946_338,-1,True,2019_Jun_12_0946,Yes-No Task,2,JOSU26,
Yes-No Task,38,0,38,0,3,-1,Miss,0.531632733531,True,-1,stimulus_JOSU26_Yes-No Task_2019_Jun_12_0946_339,-1,True,2019_Jun_12_0946,Yes-No Task,2,JOSU26,
Yes-No Task,39,0,39,0,6.7,-1,Miss,0.669450456742,True,-1,stimulus_JOSU26_Yes-No Task_2019_Jun_12_0946_340,-1,True,2019_Jun_12_0946,Yes-No Task,2,JOSU26,
Yes-No Task,40,0,40,0,4,-1,Hit,0.603771377355,True,-1,stimulus_JOSU26_Yes-No Task_2019_Jun_12_0946_341,-1,True,2019_Jun_12_0946,Yes-No Task,2,JOSU26,
Yes-No Task,41,0,41,0,7.6,-1,Hit,0.508215478621,True,-1,stimulus_JOSU26_Yes-No Task_2019_Jun_12_0946_342,-1,True,2019_Jun_12_0946,Yes-No Task,2,JOSU26,
Yes-No Task,42,0,42,0,5.8,-1,Correct Rejection,0.603750028647,False,-1,stimulus_JOSU26_Yes-No Task_2019_Jun_12_0946_343,-1,True,2019_Jun_12_0946,Yes-No Task,2,JOSU26,
Yes-No Task,43,0,43,0,4,-1,Correct Rejection,0.599266022444,False,-1,stimulus_JOSU26_Yes-No Task_2019_Jun_12_0946_344,-1,True,2019_Jun_12_0946,Yes-No Task,2,JOSU26,
Yes-No Task,44,0,44,0,3,-1,Hit,0.568865754176,True,-1,stimulus_JOSU26_Yes-No Task_2019_Jun_12_0946_345,-1,True,2019_Jun_12_0946,Yes-No Task,2,JOSU26,
Yes-No Task,45,0,45,0,4,-1,Hit,0.632705578115,True,-1,stimulus_JOSU26_Yes-No Task_2019_Jun_12_0946_346,-1,True,2019_Jun_12_0946,Yes-No Task,2,JOSU26,
Yes-No Task,46,0,46,0,6.7,-1,Hit,0.532700158656,True,-1,stimulus_JOSU26_Yes-No Task_2019_Jun_12_0946_347,-1,True,2019_Jun_12_0946,Yes-No Task,2,JOSU26,
Yes-No Task,47,0,47,0,4,-1,Correct Rejection,0.73672164185,False,-1,stimulus_JOSU26_Yes-No Task_2019_Jun_12_0946_348,-1,True,2019_Jun_12_0946,Yes-No Task,2,JOSU26,
Yes-No Task,48,0,48,0,6.7,-1,Correct Rejection,0.693237205036,False,-1,stimulus_JOSU26_Yes-No Task_2019_Jun_12_0946_349,-1,True,2019_Jun_12_0946,Yes-No Task,2,JOSU26,
Yes-No Task,49,0,49,0,4,-1,Correct Rejection,0.636353708338,False,-1,stimulus_JOSU26_Yes-No Task_2019_Jun_12_0946_350,-1,True,2019_Jun_12_0946,Yes-No Task,2,JOSU26,
Yes-No Task,50,0,50,0,6.7,-1,Correct Rejection,0.734474712051,False,-1,stimulus_JOSU26_Yes-No Task_2019_Jun_12_0946_351,-1,True,2019_Jun_12_0946,Yes-No Task,2,JOSU26,
Yes-No Task,51,0,51,0,8.7,-1,Hit,0.534875653218,True,-1,stimulus_JOSU26_Yes-No Task_2019_Jun_12_0946_352,-1,True,2019_Jun_12_0946,Yes-No Task,2,JOSU26,
Yes-No Task,52,0,52,0,3,-1,Correct Rejection,0.534474136773,False,-1,stimulus_JOSU26_Yes-No Task_2019_Jun_12_0946_353,-1,True,2019_Jun_12_0946,Yes-No Task,2,JOSU26,
Yes-No Task,53,0,53,0,1.5,-1,Correct Rejection,0.533685063478,False,-1,stimulus_JOSU26_Yes-No Task_2019_Jun_12_0946_354,-1,True,2019_Jun_12_0946,Yes-No Task,2,JOSU26,
Yes-No Task,54,0,54,0,5,-1,Correct Rejection,0.634986993857,False,-1,stimulus_JOSU26_Yes-No Task_2019_Jun_12_0946_355,-1,True,2019_Jun_12_0946,Yes-No Task,2,JOSU26,
Yes-No Task,55,0,55,0,8.7,-1,Correct Rejection,0.534219186287,False,-1,stimulus_JOSU26_Yes-No Task_2019_Jun_12_0946_356,-1,True,2019_Jun_12_0946,Yes-No Task,2,JOSU26,
Yes-No Task,56,0,56,0,8.7,-1,Hit,0.499316847883,True,-1,stimulus_JOSU26_Yes-No Task_2019_Jun_12_0946_357,-1,True,2019_Jun_12_0946,Yes-No Task,2,JOSU26,
Yes-No Task,57,0,57,0,4,-1,False Alarm,0.634939780924,False,-1,stimulus_JOSU26_Yes-No Task_2019_Jun_12_0946_358,-1,True,2019_Jun_12_0946,Yes-No Task,2,JOSU26,
Yes-No Task,58,0,58,0,4,-1,False Alarm,0.665624969173,False,-1,stimulus_JOSU26_Yes-No Task_2019_Jun_12_0946_359,-1,True,2019_Jun_12_0946,Yes-No Task,2,JOSU26,
Yes-No Task,59,0,59,0,8.7,-1,No Answer,-1,False,-1,stimulus_JOSU26_Yes-No Task_2019_Jun_12_0946_360,-1,True,2019_Jun_12_0946,Yes-No Task,2,JOSU26,
Yes-No Task,60,0,60,0,8.7,-1,No Answer,-1,False,-1,stimulus_JOSU26_Yes-No Task_2019_Jun_12_0946_361,-1,True,2019_Jun_12_0946,Yes-No Task,2,JOSU26,
Yes-No Task,61,0,61,0,8.7,-1,Correct Rejection,0.630425803829,False,-1,stimulus_JOSU26_Yes-No Task_2019_Jun_12_0946_362,-1,True,2019_Jun_12_0946,Yes-No Task,2,JOSU26,
Yes-No Task,62,0,62,0,1.5,-1,Miss,0.500002463348,True,-1,stimulus_JOSU26_Yes-No Task_2019_Jun_12_0946_363,-1,True,2019_Jun_12_0946,Yes-No Task,2,JOSU26,
Yes-No Task,63,0,63,0,3,-1,Hit,0.704795776866,True,-1,stimulus_JOSU26_Yes-No Task_2019_Jun_12_0946_364,-1,True,2019_Jun_12_0946,Yes-No Task,2,JOSU26,
Yes-No Task,64,0,64,0,5,-1,Hit,0.499235969968,True,-1,stimulus_JOSU26_Yes-No Task_2019_Jun_12_0946_365,-1,True,2019_Jun_12_0946,Yes-No Task,2,JOSU26,
Yes-No Task,65,0,65,0,5,-1,Correct Rejection,0.597678021528,False,-1,stimulus_JOSU26_Yes-No Task_2019_Jun_12_0946_366,-1,True,2019_Jun_12_0946,Yes-No Task,2,JOSU26,
Yes-No Task,66,0,66,0,4,-1,Miss,0.60380339995,True,-1,stimulus_JOSU26_Yes-No Task_2019_Jun_12_0946_367,-1,True,2019_Jun_12_0946,Yes-No Task,2,JOSU26,
Yes-No Task,67,0,67,0,5,-1,False Alarm,0.630973885767,False,-1,stimulus_JOSU26_Yes-No Task_2019_Jun_12_0946_368,-1,True,2019_Jun_12_0946,Yes-No Task,2,JOSU26,
Yes-No Task,68,0,68,0,5.8,-1,Hit,0.535137993749,True,-1,stimulus_JOSU26_Yes-No Task_2019_Jun_12_0946_369,-1,True,2019_Jun_12_0946,Yes-No Task,2,JOSU26,
Yes-No Task,69,0,69,0,5.8,-1,False Alarm,0.533110707067,False,-1,stimulus_JOSU26_Yes-No Task_2019_Jun_12_0946_370,-1,True,2019_Jun_12_0946,Yes-No Task,2,JOSU26,
Yes-No Task,70,0,70,0,7.6,-1,Hit,0.501627001911,True,-1,stimulus_JOSU26_Yes-No Task_2019_Jun_12_0946_371,-1,True,2019_Jun_12_0946,Yes-No Task,2,JOSU26,
Yes-No Task,71,0,71,0,6.7,-1,False Alarm,0.627625455149,False,-1,stimulus_JOSU26_Yes-No Task_2019_Jun_12_0946_372,-1,True,2019_Jun_12_0946,Yes-No Task,2,JOSU26,
Yes-No Task,72,0,72,0,8.7,-1,No Answer,-1,True,-1,stimulus_JOSU26_Yes-No Task_2019_Jun_12_0946_373,-1,True,2019_Jun_12_0946,Yes-No Task,2,JOSU26,
Yes-No Task,73,0,73,0,6.7,-1,Hit,0.606423518155,True,-1,stimulus_JOSU26_Yes-No Task_2019_Jun_12_0946_374,-1,True,2019_Jun_12_0946,Yes-No Task,2,JOSU26,
Yes-No Task,74,0,74,0,7.6,-1,Correct Rejection,0.634499262553,False,-1,stimulus_JOSU26_Yes-No Task_2019_Jun_12_0946_375,-1,True,2019_Jun_12_0946,Yes-No Task,2,JOSU26,
Yes-No Task,0,0,0,0,8.7,-1,Hit,0.566994475666,True,-1,stimulus_JOSU26_Yes-No Task_2019_Jun_12_0946_376,-1,True,2019_Jun_12_0946,Yes-No Task,2,JOSU26,
Yes-No Task,1,0,1,0,3,-1,Miss,0.499954839703,True,-1,stimulus_JOSU26_Yes-No Task_2019_Jun_12_0946_377,-1,True,2019_Jun_12_0946,Yes-No Task,2,JOSU26,
Yes-No Task,2,0,2,0,5,-1,Hit,0.501908227801,True,-1,stimulus_JOSU26_Yes-No Task_2019_Jun_12_0946_378,-1,True,2019_Jun_12_0946,Yes-No Task,2,JOSU26,
Yes-No Task,3,0,3,0,7.6,-1,Correct Rejection,0.667125112377,False,-1,stimulus_JOSU26_Yes-No Task_2019_Jun_12_0946_379,-1,True,2019_Jun_12_0946,Yes-No Task,2,JOSU26,
Yes-No Task,4,0,4,0,6.7,-1,Correct Rejection,0.499939239118,False,-1,stimulus_JOSU26_Yes-No Task_2019_Jun_12_0946_380,-1,True,2019_Jun_12_0946,Yes-No Task,2,JOSU26,
Yes-No Task,5,0,5,0,6.7,-1,Hit,0.468720748555,True,-1,stimulus_JOSU26_Yes-No Task_2019_Jun_12_0946_381,-1,True,2019_Jun_12_0946,Yes-No Task,2,JOSU26,
Yes-No Task,6,0,6,0,5.8,-1,Correct Rejection,0.500711890403,False,-1,stimulus_JOSU26_Yes-No Task_2019_Jun_12_0946_382,-1,True,2019_Jun_12_0946,Yes-No Task,2,JOSU26,
Yes-No Task,7,0,7,0,4,-1,Miss,0.768080950249,True,-1,stimulus_JOSU26_Yes-No Task_2019_Jun_12_0946_383,-1,True,2019_Jun_12_0946,Yes-No Task,2,JOSU26,
Yes-No Task,8,0,8,0,1.5,-1,Correct Rejection,0.503151367418,False,-1,stimulus_JOSU26_Yes-No Task_2019_Jun_12_0946_384,-1,True,2019_Jun_12_0946,Yes-No Task,2,JOSU26,
Yes-No Task,9,0,9,0,1.5,-1,Correct Rejection,0.533903885633,False,-1,stimulus_JOSU26_Yes-No Task_2019_Jun_12_0946_385,-1,True,2019_Jun_12_0946,Yes-No Task,2,JOSU26,
Yes-No Task,10,0,10,0,5.8,-1,Hit,0.591616689228,True,-1,stimulus_JOSU26_Yes-No Task_2019_Jun_12_0946_386,-1,True,2019_Jun_12_0946,Yes-No Task,2,JOSU26,
Yes-No Task,11,0,11,0,4,-1,False Alarm,0.437544544693,False,-1,stimulus_JOSU26_Yes-No Task_2019_Jun_12_0946_387,-1,True,2019_Jun_12_0946,Yes-No Task,2,JOSU26,
Yes-No Task,12,0,12,0,4,-1,Hit,0.433937469032,True,-1,stimulus_JOSU26_Yes-No Task_2019_Jun_12_0946_388,-1,True,2019_Jun_12_0946,Yes-No Task,2,JOSU26,
Yes-No Task,13,0,13,0,4,-1,False Alarm,0.466535810847,False,-1,stimulus_JOSU26_Yes-No Task_2019_Jun_12_0946_389,-1,True,2019_Jun_12_0946,Yes-No Task,2,JOSU26,
Yes-No Task,14,0,14,0,8.7,-1,False Alarm,0.465761106927,False,-1,stimulus_JOSU26_Yes-No Task_2019_Jun_12_0946_390,-1,True,2019_Jun_12_0946,Yes-No Task,2,JOSU26,
Yes-No Task,15,0,15,0,1.5,-1,Correct Rejection,0.503557810094,False,-1,stimulus_JOSU26_Yes-No Task_2019_Jun_12_0946_391,-1,True,2019_Jun_12_0946,Yes-No Task,2,JOSU26,
Yes-No Task,16,0,16,0,8.7,-1,Correct Rejection,0.538019631058,False,-1,stimulus_JOSU26_Yes-No Task_2019_Jun_12_0946_392,-1,True,2019_Jun_12_0946,Yes-No Task,2,JOSU26,
Yes-No Task,17,0,17,0,6.7,-1,Correct Rejection,0.531953782309,False,-1,stimulus_JOSU26_Yes-No Task_2019_Jun_12_0946_393,-1,True,2019_Jun_12_0946,Yes-No Task,2,JOSU26,
Yes-No Task,18,0,18,0,5,-1,Hit,0.603924100753,True,-1,stimulus_JOSU26_Yes-No Task_2019_Jun_12_0946_394,-1,True,2019_Jun_12_0946,Yes-No Task,2,JOSU26,
Yes-No Task,19,0,19,0,8.7,-1,Correct Rejection,0.60173629038,False,-1,stimulus_JOSU26_Yes-No Task_2019_Jun_12_0946_395,-1,True,2019_Jun_12_0946,Yes-No Task,2,JOSU26,
Yes-No Task,20,0,20,0,8.7,-1,Correct Rejection,0.564341513906,False,-1,stimulus_JOSU26_Yes-No Task_2019_Jun_12_0946_396,-1,True,2019_Jun_12_0946,Yes-No Task,2,JOSU26,
Yes-No Task,21,0,21,0,8.7,-1,Correct Rejection,0.526561232749,False,-1,stimulus_JOSU26_Yes-No Task_2019_Jun_12_0946_397,-1,True,2019_Jun_12_0946,Yes-No Task,2,JOSU26,
Yes-No Task,22,0,22,0,5.8,-1,Correct Rejection,0.669041550718,False,-1,stimulus_JOSU26_Yes-No Task_2019_Jun_12_0946_398,-1,True,2019_Jun_12_0946,Yes-No Task,2,JOSU26,
Yes-No Task,23,0,23,0,6.7,-1,Hit,0.669165947009,True,-1,stimulus_JOSU26_Yes-No Task_2019_Jun_12_0946_399,-1,True,2019_Jun_12_0946,Yes-No Task,2,JOSU26,
Yes-No Task,24,0,24,0,8.7,-1,Hit,0.598995060194,True,-1,stimulus_JOSU26_Yes-No Task_2019_Jun_12_0946_400,-1,True,2019_Jun_12_0946,Yes-No Task,2,JOSU26,
Yes-No Task,25,0,25,0,5,-1,Hit,0.535855221096,True,-1,stimulus_JOSU26_Yes-No Task_2019_Jun_12_0946_401,-1,True,2019_Jun_12_0946,Yes-No Task,2,JOSU26,
Yes-No Task,26,0,26,0,3,-1,Correct Rejection,0.566522345413,False,-1,stimulus_JOSU26_Yes-No Task_2019_Jun_12_0946_402,-1,True,2019_Jun_12_0946,Yes-No Task,2,JOSU26,
Yes-No Task,27,0,27,0,5,-1,Correct Rejection,0.500438875984,False,-1,stimulus_JOSU26_Yes-No Task_2019_Jun_12_0946_403,-1,True,2019_Jun_12_0946,Yes-No Task,2,JOSU26,
Yes-No Task,28,0,28,0,5,-1,False Alarm,0.801773814019,False,-1,stimulus_JOSU26_Yes-No Task_2019_Jun_12_0946_404,-1,True,2019_Jun_12_0946,Yes-No Task,2,JOSU26,
Yes-No Task,29,0,29,0,8.7,-1,Correct Rejection,0.50022087479,False,-1,stimulus_JOSU26_Yes-No Task_2019_Jun_12_0946_405,-1,True,2019_Jun_12_0946,Yes-No Task,2,JOSU26,
Yes-No Task,30,0,30,0,5.8,-1,Correct Rejection,0.669649982825,False,-1,stimulus_JOSU26_Yes-No Task_2019_Jun_12_0946_406,-1,True,2019_Jun_12_0946,Yes-No Task,2,JOSU26,
Yes-No Task,31,0,31,0,6.7,-1,Correct Rejection,0.49981443258,False,-1,stimulus_JOSU26_Yes-No Task_2019_Jun_12_0946_407,-1,True,2019_Jun_12_0946,Yes-No Task,2,JOSU26,
Yes-No Task,32,0,32,0,5.8,-1,Hit,0.633817752823,True,-1,stimulus_JOSU26_Yes-No Task_2019_Jun_12_0946_408,-1,True,2019_Jun_12_0946,Yes-No Task,2,JOSU26,
Yes-No Task,33,0,33,0,7.6,-1,Hit,0.671412876807,True,-1,stimulus_JOSU26_Yes-No Task_2019_Jun_12_0946_409,-1,True,2019_Jun_12_0946,Yes-No Task,2,JOSU26,
Yes-No Task,34,0,34,0,5.8,-1,Correct Rejection,0.567276932765,False,-1,stimulus_JOSU26_Yes-No Task_2019_Jun_12_0946_410,-1,True,2019_Jun_12_0946,Yes-No Task,2,JOSU26,
Yes-No Task,35,0,35,0,8.7,-1,Hit,0.561008683871,True,-1,stimulus_JOSU26_Yes-No Task_2019_Jun_12_0946_411,-1,True,2019_Jun_12_0946,Yes-No Task,2,JOSU26,
Yes-No Task,36,0,36,0,6.7,-1,Hit,0.624827980064,True,-1,stimulus_JOSU26_Yes-No Task_2019_Jun_12_0946_412,-1,True,2019_Jun_12_0946,Yes-No Task,2,JOSU26,
Yes-No Task,37,0,37,0,5.8,-1,Correct Rejection,0.602330353577,False,-1,stimulus_JOSU26_Yes-No Task_2019_Jun_12_0946_413,-1,True,2019_Jun_12_0946,Yes-No Task,2,JOSU26,
Yes-No Task,38,0,38,0,8.7,-1,Hit,0.567576632835,True,-1,stimulus_JOSU26_Yes-No Task_2019_Jun_12_0946_414,-1,True,2019_Jun_12_0946,Yes-No Task,2,JOSU26,
Yes-No Task,39,0,39,0,8.7,-1,Hit,0.500304626767,True,-1,stimulus_JOSU26_Yes-No Task_2019_Jun_12_0946_415,-1,True,2019_Jun_12_0946,Yes-No Task,2,JOSU26,
Yes-No Task,40,0,40,0,6.7,-1,Correct Rejection,0.569154369179,False,-1,stimulus_JOSU26_Yes-No Task_2019_Jun_12_0946_416,-1,True,2019_Jun_12_0946,Yes-No Task,2,JOSU26,
Yes-No Task,41,0,41,0,8.7,-1,Correct Rejection,0.535829356872,False,-1,stimulus_JOSU26_Yes-No Task_2019_Jun_12_0946_417,-1,True,2019_Jun_12_0946,Yes-No Task,2,JOSU26,
Yes-No Task,42,0,42,0,8.7,-1,False Alarm,0.803322812542,False,-1,stimulus_JOSU26_Yes-No Task_2019_Jun_12_0946_418,-1,True,2019_Jun_12_0946,Yes-No Task,2,JOSU26,
Yes-No Task,43,0,43,0,5.8,-1,Hit,0.467059259769,True,-1,stimulus_JOSU26_Yes-No Task_2019_Jun_12_0946_419,-1,True,2019_Jun_12_0946,Yes-No Task,2,JOSU26,
Yes-No Task,44,0,44,0,7.6,-1,Hit,0.536879538558,True,-1,stimulus_JOSU26_Yes-No Task_2019_Jun_12_0946_420,-1,True,2019_Jun_12_0946,Yes-No Task,2,JOSU26,
Yes-No Task,45,0,45,0,5.8,-1,Correct Rejection,0.735873449128,False,-1,stimulus_JOSU26_Yes-No Task_2019_Jun_12_0946_421,-1,True,2019_Jun_12_0946,Yes-No Task,2,JOSU26,
Yes-No Task,46,0,46,0,6.7,-1,Hit,0.590832952876,True,-1,stimulus_JOSU26_Yes-No Task_2019_Jun_12_0946_422,-1,True,2019_Jun_12_0946,Yes-No Task,2,JOSU26,
Yes-No Task,47,0,47,0,8.7,-1,Hit,0.53155308729,True,-1,stimulus_JOSU26_Yes-No Task_2019_Jun_12_0946_423,-1,True,2019_Jun_12_0946,Yes-No Task,2,JOSU26,
Yes-No Task,48,0,48,0,6.7,-1,Correct Rejection,0.532558109146,False,-1,stimulus_JOSU26_Yes-No Task_2019_Jun_12_0946_424,-1,True,2019_Jun_12_0946,Yes-No Task,2,JOSU26,
Yes-No Task,49,0,49,0,8.7,-1,Hit,0.601383629255,True,-1,stimulus_JOSU26_Yes-No Task_2019_Jun_12_0946_425,-1,True,2019_Jun_12_0946,Yes-No Task,2,JOSU26,
Yes-No Task,50,0,50,0,3,-1,Correct Rejection,0.462943514809,False,-1,stimulus_JOSU26_Yes-No Task_2019_Jun_12_0946_426,-1,True,2019_Jun_12_0946,Yes-No Task,2,JOSU26,
Yes-No Task,51,0,51,0,8.7,-1,Correct Rejection,0.566599528305,False,-1,stimulus_JOSU26_Yes-No Task_2019_Jun_12_0946_427,-1,True,2019_Jun_12_0946,Yes-No Task,2,JOSU26,
Yes-No Task,52,0,52,0,1.5,-1,Correct Rejection,0.467817132361,False,-1,stimulus_JOSU26_Yes-No Task_2019_Jun_12_0946_428,-1,True,2019_Jun_12_0946,Yes-No Task,2,JOSU26,
Yes-No Task,53,0,53,0,3,-1,Miss,0.60027597053,True,-1,stimulus_JOSU26_Yes-No Task_2019_Jun_12_0946_429,-1,True,2019_Jun_12_0946,Yes-No Task,2,JOSU26,
Yes-No Task,54,0,54,0,7.6,-1,Hit,0.568959769327,True,-1,stimulus_JOSU26_Yes-No Task_2019_Jun_12_0946_430,-1,True,2019_Jun_12_0946,Yes-No Task,2,JOSU26,
Yes-No Task,55,0,55,0,3,-1,Hit,0.801385435741,True,-1,stimulus_JOSU26_Yes-No Task_2019_Jun_12_0946_431,-1,True,2019_Jun_12_0946,Yes-No Task,2,JOSU26,
Yes-No Task,56,0,56,0,1.5,-1,Miss,0.525370642543,True,-1,stimulus_JOSU26_Yes-No Task_2019_Jun_12_0946_432,-1,True,2019_Jun_12_0946,Yes-No Task,2,JOSU26,
Yes-No Task,57,0,57,0,5.8,-1,Hit,0.664862581063,True,-1,stimulus_JOSU26_Yes-No Task_2019_Jun_12_0946_433,-1,True,2019_Jun_12_0946,Yes-No Task,2,JOSU26,
Yes-No Task,58,0,58,0,6.7,-1,Correct Rejection,0.603695426136,False,-1,stimulus_JOSU26_Yes-No Task_2019_Jun_12_0946_434,-1,True,2019_Jun_12_0946,Yes-No Task,2,JOSU26,
Yes-No Task,59,0,59,0,5.8,-1,False Alarm,0.602172292303,False,-1,stimulus_JOSU26_Yes-No Task_2019_Jun_12_0946_435,-1,True,2019_Jun_12_0946,Yes-No Task,2,JOSU26,
Yes-No Task,60,0,60,0,5,-1,Correct Rejection,0.49967115093,False,-1,stimulus_JOSU26_Yes-No Task_2019_Jun_12_0946_436,-1,True,2019_Jun_12_0946,Yes-No Task,2,JOSU26,
Yes-No Task,61,0,61,0,8.7,-1,Hit,0.569928663317,True,-1,stimulus_JOSU26_Yes-No Task_2019_Jun_12_0946_437,-1,True,2019_Jun_12_0946,Yes-No Task,2,JOSU26,
Yes-No Task,62,0,62,0,7.6,-1,Correct Rejection,0.602485540323,False,-1,stimulus_JOSU26_Yes-No Task_2019_Jun_12_0946_438,-1,True,2019_Jun_12_0946,Yes-No Task,2,JOSU26,
Yes-No Task,63,0,63,0,7.6,-1,Hit,0.52548025921,True,-1,stimulus_JOSU26_Yes-No Task_2019_Jun_12_0946_439,-1,True,2019_Jun_12_0946,Yes-No Task,2,JOSU26,
Yes-No Task,64,0,64,0,3,-1,Hit,0.535121161025,True,-1,stimulus_JOSU26_Yes-No Task_2019_Jun_12_0946_440,-1,True,2019_Jun_12_0946,Yes-No Task,2,JOSU26,
Yes-No Task,65,0,65,0,8.7,-1,Hit,0.503133713733,True,-1,stimulus_JOSU26_Yes-No Task_2019_Jun_12_0946_441,-1,True,2019_Jun_12_0946,Yes-No Task,2,JOSU26,
Yes-No Task,66,0,66,0,3,-1,False Alarm,0.534370678943,False,-1,stimulus_JOSU26_Yes-No Task_2019_Jun_12_0946_442,-1,True,2019_Jun_12_0946,Yes-No Task,2,JOSU26,
Yes-No Task,67,0,67,0,3,-1,Miss,0.836158862337,True,-1,stimulus_JOSU26_Yes-No Task_2019_Jun_12_0946_443,-1,True,2019_Jun_12_0946,Yes-No Task,2,JOSU26,
Yes-No Task,68,0,68,0,8.7,-1,Hit,0.666335628368,True,-1,stimulus_JOSU26_Yes-No Task_2019_Jun_12_0946_444,-1,True,2019_Jun_12_0946,Yes-No Task,2,JOSU26,
Yes-No Task,69,0,69,0,1.5,-1,Correct Rejection,0.73102405481,False,-1,stimulus_JOSU26_Yes-No Task_2019_Jun_12_0946_445,-1,True,2019_Jun_12_0946,Yes-No Task,2,JOSU26,
Yes-No Task,70,0,70,0,7.6,-1,Hit,0.566370853223,True,-1,stimulus_JOSU26_Yes-No Task_2019_Jun_12_0946_446,-1,True,2019_Jun_12_0946,Yes-No Task,2,JOSU26,
Yes-No Task,71,0,71,0,5,-1,Miss,0.601892708801,True,-1,stimulus_JOSU26_Yes-No Task_2019_Jun_12_0946_447,-1,True,2019_Jun_12_0946,Yes-No Task,2,JOSU26,
Yes-No Task,72,0,72,0,6.7,-1,Hit,0.564158408903,True,-1,stimulus_JOSU26_Yes-No Task_2019_Jun_12_0946_448,-1,True,2019_Jun_12_0946,Yes-No Task,2,JOSU26,
Yes-No Task,73,0,73,0,3,-1,Correct Rejection,0.636443618685,False,-1,stimulus_JOSU26_Yes-No Task_2019_Jun_12_0946_449,-1,True,2019_Jun_12_0946,Yes-No Task,2,JOSU26,
Yes-No Task,74,0,74,0,1.5,-1,Hit,0.667000305373,True,-1,stimulus_JOSU26_Yes-No Task_2019_Jun_12_0946_450,-1,True,2019_Jun_12_0946,Yes-No Task,2,JOSU26,
Yes-No Task,0,0,0,0,6.7,-1,Correct Rejection,0.701680537779,False,-1,stimulus_JOSU26_Yes-No Task_2019_Jun_12_0946_451,-1,True,2019_Jun_12_0946,Yes-No Task,2,JOSU26,
Yes-No Task,1,0,1,0,5.8,-1,Correct Rejection,0.567317577079,False,-1,stimulus_JOSU26_Yes-No Task_2019_Jun_12_0946_452,-1,True,2019_Jun_12_0946,Yes-No Task,2,JOSU26,
Yes-No Task,2,0,2,0,5,-1,Correct Rejection,0.52287163632,False,-1,stimulus_JOSU26_Yes-No Task_2019_Jun_12_0946_453,-1,True,2019_Jun_12_0946,Yes-No Task,2,JOSU26,
Yes-No Task,3,0,3,0,3,-1,Correct Rejection,0.468105747364,False,-1,stimulus_JOSU26_Yes-No Task_2019_Jun_12_0946_454,-1,True,2019_Jun_12_0946,Yes-No Task,2,JOSU26,
Yes-No Task,4,0,4,0,3,-1,Hit,0.634374456014,True,-1,stimulus_JOSU26_Yes-No Task_2019_Jun_12_0946_455,-1,True,2019_Jun_12_0946,Yes-No Task,2,JOSU26,
Yes-No Task,5,0,5,0,4,-1,Correct Rejection,0.598621871788,False,-1,stimulus_JOSU26_Yes-No Task_2019_Jun_12_0946_456,-1,True,2019_Jun_12_0946,Yes-No Task,2,JOSU26,
Yes-No Task,6,0,6,0,3,-1,Hit,0.501145840157,True,-1,stimulus_JOSU26_Yes-No Task_2019_Jun_12_0946_457,-1,True,2019_Jun_12_0946,Yes-No Task,2,JOSU26,
Yes-No Task,7,0,7,0,3,-1,Hit,0.467502651736,True,-1,stimulus_JOSU26_Yes-No Task_2019_Jun_12_0946_458,-1,True,2019_Jun_12_0946,Yes-No Task,2,JOSU26,
Yes-No Task,8,0,8,0,3,-1,Hit,0.466996446252,True,-1,stimulus_JOSU26_Yes-No Task_2019_Jun_12_0946_459,-1,True,2019_Jun_12_0946,Yes-No Task,2,JOSU26,
Yes-No Task,9,0,9,0,7.6,-1,Correct Rejection,0.633693356533,False,-1,stimulus_JOSU26_Yes-No Task_2019_Jun_12_0946_460,-1,True,2019_Jun_12_0946,Yes-No Task,2,JOSU26,
Yes-No Task,10,0,10,0,5,-1,Hit,0.504619076848,True,-1,stimulus_JOSU26_Yes-No Task_2019_Jun_12_0946_461,-1,True,2019_Jun_12_0946,Yes-No Task,2,JOSU26,
Yes-No Task,11,0,11,0,3,-1,Hit,0.467343359254,True,-1,stimulus_JOSU26_Yes-No Task_2019_Jun_12_0946_462,-1,True,2019_Jun_12_0946,Yes-No Task,2,JOSU26,
Yes-No Task,12,0,12,0,5.8,-1,Correct Rejection,0.499889562838,False,-1,stimulus_JOSU26_Yes-No Task_2019_Jun_12_0946_463,-1,True,2019_Jun_12_0946,Yes-No Task,2,JOSU26,
Yes-No Task,13,0,13,0,8.7,-1,Correct Rejection,0.4687975212,False,-1,stimulus_JOSU26_Yes-No Task_2019_Jun_12_0946_464,-1,True,2019_Jun_12_0946,Yes-No Task,2,JOSU26,
Yes-No Task,14,0,14,0,5,-1,False Alarm,0.498784777708,False,-1,stimulus_JOSU26_Yes-No Task_2019_Jun_12_0946_465,-1,True,2019_Jun_12_0946,Yes-No Task,2,JOSU26,
Yes-No Task,15,0,15,0,5.8,-1,False Alarm,0.45739536779,False,-1,stimulus_JOSU26_Yes-No Task_2019_Jun_12_0946_466,-1,True,2019_Jun_12_0946,Yes-No Task,2,JOSU26,
Yes-No Task,16,0,16,0,5.8,-1,Hit,0.502424697392,True,-1,stimulus_JOSU26_Yes-No Task_2019_Jun_12_0946_467,-1,True,2019_Jun_12_0946,Yes-No Task,2,JOSU26,
Yes-No Task,17,0,17,0,3,-1,False Alarm,0.599521793425,False,-1,stimulus_JOSU26_Yes-No Task_2019_Jun_12_0946_468,-1,True,2019_Jun_12_0946,Yes-No Task,2,JOSU26,
Yes-No Task,18,0,18,0,4,-1,False Alarm,0.497094961815,False,-1,stimulus_JOSU26_Yes-No Task_2019_Jun_12_0946_469,-1,True,2019_Jun_12_0946,Yes-No Task,2,JOSU26,
Yes-No Task,19,0,19,0,3,-1,Hit,0.502501880284,True,-1,stimulus_JOSU26_Yes-No Task_2019_Jun_12_0946_470,-1,True,2019_Jun_12_0946,Yes-No Task,2,JOSU26,
Yes-No Task,20,0,20,0,1.5,-1,False Alarm,0.62610971136,False,-1,stimulus_JOSU26_Yes-No Task_2019_Jun_12_0946_471,-1,True,2019_Jun_12_0946,Yes-No Task,2,JOSU26,
Yes-No Task,21,0,21,0,3,-1,False Alarm,0.497895941138,False,-1,stimulus_JOSU26_Yes-No Task_2019_Jun_12_0946_472,-1,True,2019_Jun_12_0946,Yes-No Task,2,JOSU26,
Yes-No Task,22,0,22,0,6.7,-1,False Alarm,0.503676458262,False,-1,stimulus_JOSU26_Yes-No Task_2019_Jun_12_0946_473,-1,True,2019_Jun_12_0946,Yes-No Task,2,JOSU26,
Yes-No Task,23,0,23,0,3,-1,Correct Rejection,0.603067287244,False,-1,stimulus_JOSU26_Yes-No Task_2019_Jun_12_0946_474,-1,True,2019_Jun_12_0946,Yes-No Task,2,JOSU26,
Yes-No Task,24,0,24,0,4,-1,Hit,0.532241576351,True,-1,stimulus_JOSU26_Yes-No Task_2019_Jun_12_0946_475,-1,True,2019_Jun_12_0946,Yes-No Task,2,JOSU26,
Yes-No Task,25,0,25,0,5.8,-1,Correct Rejection,0.535401154775,False,-1,stimulus_JOSU26_Yes-No Task_2019_Jun_12_0946_476,-1,True,2019_Jun_12_0946,Yes-No Task,2,JOSU26,
Yes-No Task,26,0,26,0,3,-1,Correct Rejection,0.636069198605,False,-1,stimulus_JOSU26_Yes-No Task_2019_Jun_12_0946_477,-1,True,2019_Jun_12_0946,Yes-No Task,2,JOSU26,
Yes-No Task,27,0,27,0,1.5,-1,Correct Rejection,0.465661343653,False,-1,stimulus_JOSU26_Yes-No Task_2019_Jun_12_0946_478,-1,True,2019_Jun_12_0946,Yes-No Task,2,JOSU26,
Yes-No Task,28,0,28,0,5.8,-1,Correct Rejection,0.701678074431,False,-1,stimulus_JOSU26_Yes-No Task_2019_Jun_12_0946_479,-1,True,2019_Jun_12_0946,Yes-No Task,2,JOSU26,
Yes-No Task,29,0,29,0,3,-1,Miss,0.733769390266,True,-1,stimulus_JOSU26_Yes-No Task_2019_Jun_12_0946_480,-1,True,2019_Jun_12_0946,Yes-No Task,2,JOSU26,
Yes-No Task,30,0,30,0,7.6,-1,False Alarm,0.800508915447,False,-1,stimulus_JOSU26_Yes-No Task_2019_Jun_12_0946_481,-1,True,2019_Jun_12_0946,Yes-No Task,2,JOSU26,
Yes-No Task,31,0,31,0,1.5,-1,False Alarm,0.665792473126,False,-1,stimulus_JOSU26_Yes-No Task_2019_Jun_12_0946_482,-1,True,2019_Jun_12_0946,Yes-No Task,2,JOSU26,
Yes-No Task,32,0,32,0,6.7,-1,False Alarm,0.571183708962,False,-1,stimulus_JOSU26_Yes-No Task_2019_Jun_12_0946_483,-1,True,2019_Jun_12_0946,Yes-No Task,2,JOSU26,
Yes-No Task,33,0,33,0,5,-1,Hit,0.664065296762,True,-1,stimulus_JOSU26_Yes-No Task_2019_Jun_12_0946_484,-1,True,2019_Jun_12_0946,Yes-No Task,2,JOSU26,
Yes-No Task,34,0,34,0,5,-1,Miss,0.695847880561,True,-1,stimulus_JOSU26_Yes-No Task_2019_Jun_12_0946_485,-1,True,2019_Jun_12_0946,Yes-No Task,2,JOSU26,
Yes-No Task,35,0,35,0,6.7,-1,False Alarm,0.600443474483,False,-1,stimulus_JOSU26_Yes-No Task_2019_Jun_12_0946_486,-1,True,2019_Jun_12_0946,Yes-No Task,2,JOSU26,
Yes-No Task,36,0,36,0,6.7,-1,Correct Rejection,0.870464675128,False,-1,stimulus_JOSU26_Yes-No Task_2019_Jun_12_0946_487,-1,True,2019_Jun_12_0946,Yes-No Task,2,JOSU26,
Yes-No Task,37,0,37,0,5.8,-1,Hit,0.605317501817,True,-1,stimulus_JOSU26_Yes-No Task_2019_Jun_12_0946_488,-1,True,2019_Jun_12_0946,Yes-No Task,2,JOSU26,
Yes-No Task,38,0,38,0,6.7,-1,No Answer,-1,False,-1,stimulus_JOSU26_Yes-No Task_2019_Jun_12_0946_489,-1,True,2019_Jun_12_0946,Yes-No Task,2,JOSU26,
Yes-No Task,39,0,39,0,3,-1,False Alarm,0.635012037121,False,-1,stimulus_JOSU26_Yes-No Task_2019_Jun_12_0946_490,-1,True,2019_Jun_12_0946,Yes-No Task,2,JOSU26,
Yes-No Task,40,0,40,0,1.5,-1,Miss,0.537162816618,True,-1,stimulus_JOSU26_Yes-No Task_2019_Jun_12_0946_491,-1,True,2019_Jun_12_0946,Yes-No Task,2,JOSU26,
Yes-No Task,41,0,41,0,3,-1,Hit,0.531664756592,True,-1,stimulus_JOSU26_Yes-No Task_2019_Jun_12_0946_492,-1,True,2019_Jun_12_0946,Yes-No Task,2,JOSU26,
Yes-No Task,42,0,42,0,5,-1,Correct Rejection,0.503254415467,False,-1,stimulus_JOSU26_Yes-No Task_2019_Jun_12_0946_493,-1,True,2019_Jun_12_0946,Yes-No Task,2,JOSU26,
Yes-No Task,43,0,43,0,6.7,-1,Correct Rejection,0.467753496952,False,-1,stimulus_JOSU26_Yes-No Task_2019_Jun_12_0946_494,-1,True,2019_Jun_12_0946,Yes-No Task,2,JOSU26,
Yes-No Task,44,0,44,0,6.7,-1,Hit,0.632925221231,True,-1,stimulus_JOSU26_Yes-No Task_2019_Jun_12_0946_495,-1,True,2019_Jun_12_0946,Yes-No Task,2,JOSU26,
Yes-No Task,45,0,45,0,3,-1,Hit,0.636831176002,True,-1,stimulus_JOSU26_Yes-No Task_2019_Jun_12_0946_496,-1,True,2019_Jun_12_0946,Yes-No Task,2,JOSU26,
Yes-No Task,46,0,46,0,3,-1,Correct Rejection,0.401034499053,False,-1,stimulus_JOSU26_Yes-No Task_2019_Jun_12_0946_497,-1,True,2019_Jun_12_0946,Yes-No Task,2,JOSU26,
Yes-No Task,47,0,47,0,8.7,-1,Hit,0.567956800573,True,-1,stimulus_JOSU26_Yes-No Task_2019_Jun_12_0946_498,-1,True,2019_Jun_12_0946,Yes-No Task,2,JOSU26,
Yes-No Task,48,0,48,0,5.8,-1,Correct Rejection,0.669229581952,False,-1,stimulus_JOSU26_Yes-No Task_2019_Jun_12_0946_499,-1,True,2019_Jun_12_0946,Yes-No Task,2,JOSU26,
Yes-No Task,49,0,49,0,5.8,-1,False Alarm,0.554253935814,False,-1,stimulus_JOSU26_Yes-No Task_2019_Jun_12_0946_500,-1,True,2019_Jun_12_0946,Yes-No Task,2,JOSU26,
Yes-No Task,50,0,50,0,7.6,-1,Correct Rejection,0.558366806712,False,-1,stimulus_JOSU26_Yes-No Task_2019_Jun_12_0946_501,-1,True,2019_Jun_12_0946,Yes-No Task,2,JOSU26,
Yes-No Task,51,0,51,0,5.8,-1,Correct Rejection,0.569346916396,False,-1,stimulus_JOSU26_Yes-No Task_2019_Jun_12_0946_502,-1,True,2019_Jun_12_0946,Yes-No Task,2,JOSU26,
Yes-No Task,52,0,52,0,8.7,-1,Hit,0.566722282209,True,-1,stimulus_JOSU26_Yes-No Task_2019_Jun_12_0946_503,-1,True,2019_Jun_12_0946,Yes-No Task,2,JOSU26,
Yes-No Task,53,0,53,0,3,-1,False Alarm,0.503845193889,False,-1,stimulus_JOSU26_Yes-No Task_2019_Jun_12_0946_504,-1,True,2019_Jun_12_0946,Yes-No Task,2,JOSU26,
Yes-No Task,54,0,54,0,5.8,-1,False Alarm,0.601755585987,False,-1,stimulus_JOSU26_Yes-No Task_2019_Jun_12_0946_505,-1,True,2019_Jun_12_0946,Yes-No Task,2,JOSU26,
Yes-No Task,55,0,55,0,8.7,-1,Hit,0.60096363863,True,-1,stimulus_JOSU26_Yes-No Task_2019_Jun_12_0946_506,-1,True,2019_Jun_12_0946,Yes-No Task,2,JOSU26,
Yes-No Task,56,0,56,0,6.7,-1,Hit,0.533756499179,True,-1,stimulus_JOSU26_Yes-No Task_2019_Jun_12_0946_507,-1,True,2019_Jun_12_0946,Yes-No Task,2,JOSU26,
Yes-No Task,57,0,57,0,3,-1,Correct Rejection,0.460029033944,False,-1,stimulus_JOSU26_Yes-No Task_2019_Jun_12_0946_508,-1,True,2019_Jun_12_0946,Yes-No Task,2,JOSU26,
Yes-No Task,58,0,58,0,3,-1,False Alarm,0.600038673729,False,-1,stimulus_JOSU26_Yes-No Task_2019_Jun_12_0946_509,-1,True,2019_Jun_12_0946,Yes-No Task,2,JOSU26,
Yes-No Task,59,0,59,0,4,-1,Correct Rejection,0.599769353867,False,-1,stimulus_JOSU26_Yes-No Task_2019_Jun_12_0946_510,-1,True,2019_Jun_12_0946,Yes-No Task,2,JOSU26,
Yes-No Task,60,0,60,0,7.6,-1,Hit,0.538502845913,True,-1,stimulus_JOSU26_Yes-No Task_2019_Jun_12_0946_511,-1,True,2019_Jun_12_0946,Yes-No Task,2,JOSU26,
Yes-No Task,61,0,61,0,8.7,-1,Correct Rejection,0.633138295729,False,-1,stimulus_JOSU26_Yes-No Task_2019_Jun_12_0946_512,-1,True,2019_Jun_12_0946,Yes-No Task,2,JOSU26,
Yes-No Task,62,0,62,0,4,-1,Miss,0.8682891801,True,-1,stimulus_JOSU26_Yes-No Task_2019_Jun_12_0946_513,-1,True,2019_Jun_12_0946,Yes-No Task,2,JOSU26,
Yes-No Task,63,0,63,0,4,-1,Correct Rejection,0.498781492934,False,-1,stimulus_JOSU26_Yes-No Task_2019_Jun_12_0946_514,-1,True,2019_Jun_12_0946,Yes-No Task,2,JOSU26,
Yes-No Task,64,0,64,0,4,-1,Correct Rejection,0.737930295523,False,-1,stimulus_JOSU26_Yes-No Task_2019_Jun_12_0946_515,-1,True,2019_Jun_12_0946,Yes-No Task,2,JOSU26,
Yes-No Task,65,0,65,0,7.6,-1,Hit,0.500660571735,True,-1,stimulus_JOSU26_Yes-No Task_2019_Jun_12_0946_516,-1,True,2019_Jun_12_0946,Yes-No Task,2,JOSU26,
Yes-No Task,66,0,66,0,7.6,-1,Correct Rejection,0.405046786182,False,-1,stimulus_JOSU26_Yes-No Task_2019_Jun_12_0946_517,-1,True,2019_Jun_12_0946,Yes-No Task,2,JOSU26,
Yes-No Task,67,0,67,0,7.6,-1,Correct Rejection,0.501026370563,False,-1,stimulus_JOSU26_Yes-No Task_2019_Jun_12_0946_518,-1,True,2019_Jun_12_0946,Yes-No Task,2,JOSU26,
Yes-No Task,68,0,68,0,6.7,-1,Correct Rejection,0.434901846573,False,-1,stimulus_JOSU26_Yes-No Task_2019_Jun_12_0946_519,-1,True,2019_Jun_12_0946,Yes-No Task,2,JOSU26,
Yes-No Task,69,0,69,0,5,-1,False Alarm,0.633421984036,False,-1,stimulus_JOSU26_Yes-No Task_2019_Jun_12_0946_520,-1,True,2019_Jun_12_0946,Yes-No Task,2,JOSU26,
Yes-No Task,70,0,70,0,1.5,-1,Hit,0.502640234772,True,-1,stimulus_JOSU26_Yes-No Task_2019_Jun_12_0946_521,-1,True,2019_Jun_12_0946,Yes-No Task,2,JOSU26,
Yes-No Task,71,0,71,0,1.5,-1,Correct Rejection,0.503587369807,False,-1,stimulus_JOSU26_Yes-No Task_2019_Jun_12_0946_522,-1,True,2019_Jun_12_0946,Yes-No Task,2,JOSU26,
Yes-No Task,72,0,72,0,5.8,-1,Hit,0.530581730418,True,-1,stimulus_JOSU26_Yes-No Task_2019_Jun_12_0946_523,-1,True,2019_Jun_12_0946,Yes-No Task,2,JOSU26,
Yes-No Task,73,0,73,0,6.7,-1,Correct Rejection,0.536916077137,False,-1,stimulus_JOSU26_Yes-No Task_2019_Jun_12_0946_524,-1,True,2019_Jun_12_0946,Yes-No Task,2,JOSU26,
Yes-No Task,74,0,74,0,4,-1,Hit,0.733669216279,True,-1,stimulus_JOSU26_Yes-No Task_2019_Jun_12_0946_525,-1,True,2019_Jun_12_0946,Yes-No Task,2,JOSU26,
Yes-No Task,0,0,0,0,7.6,-1,Miss,0.634401141666,True,-1,stimulus_JOSU26_Yes-No Task_2019_Jun_12_0946_526,-1,True,2019_Jun_12_0946,Yes-No Task,2,JOSU26,
Yes-No Task,1,0,1,0,6.7,-1,Miss,0.534121065866,True,-1,stimulus_JOSU26_Yes-No Task_2019_Jun_12_0946_527,-1,True,2019_Jun_12_0946,Yes-No Task,2,JOSU26,
Yes-No Task,2,0,2,0,3,-1,Correct Rejection,0.53242221754,False,-1,stimulus_JOSU26_Yes-No Task_2019_Jun_12_0946_528,-1,True,2019_Jun_12_0946,Yes-No Task,2,JOSU26,
Yes-No Task,3,0,3,0,5,-1,Correct Rejection,0.499703584239,False,-1,stimulus_JOSU26_Yes-No Task_2019_Jun_12_0946_529,-1,True,2019_Jun_12_0946,Yes-No Task,2,JOSU26,
Yes-No Task,4,0,4,0,4,-1,Miss,0.467416026164,True,-1,stimulus_JOSU26_Yes-No Task_2019_Jun_12_0946_530,-1,True,2019_Jun_12_0946,Yes-No Task,2,JOSU26,
Yes-No Task,5,0,5,0,5.8,-1,Hit,0.534767268226,True,-1,stimulus_JOSU26_Yes-No Task_2019_Jun_12_0946_531,-1,True,2019_Jun_12_0946,Yes-No Task,2,JOSU26,
Yes-No Task,6,0,6,0,4,-1,Correct Rejection,0.500424917322,False,-1,stimulus_JOSU26_Yes-No Task_2019_Jun_12_0946_532,-1,True,2019_Jun_12_0946,Yes-No Task,2,JOSU26,
Yes-No Task,7,0,7,0,6.7,-1,Hit,0.431642504409,True,-1,stimulus_JOSU26_Yes-No Task_2019_Jun_12_0946_533,-1,True,2019_Jun_12_0946,Yes-No Task,2,JOSU26,
Yes-No Task,8,0,8,0,5,-1,Correct Rejection,0.400203960016,False,-1,stimulus_JOSU26_Yes-No Task_2019_Jun_12_0946_534,-1,True,2019_Jun_12_0946,Yes-No Task,2,JOSU26,
Yes-No Task,9,0,9,0,7.6,-1,Correct Rejection,0.468286388554,False,-1,stimulus_JOSU26_Yes-No Task_2019_Jun_12_0946_535,-1,True,2019_Jun_12_0946,Yes-No Task,2,JOSU26,
Yes-No Task,10,0,10,0,6.7,-1,Correct Rejection,0.502848383039,False,-1,stimulus_JOSU26_Yes-No Task_2019_Jun_12_0946_536,-1,True,2019_Jun_12_0946,Yes-No Task,2,JOSU26,
Yes-No Task,11,0,11,0,5,-1,Correct Rejection,0.568558664061,False,-1,stimulus_JOSU26_Yes-No Task_2019_Jun_12_0946_537,-1,True,2019_Jun_12_0946,Yes-No Task,2,JOSU26,
Yes-No Task,12,0,12,0,8.7,-1,Hit,0.434254411608,True,-1,stimulus_JOSU26_Yes-No Task_2019_Jun_12_0946_538,-1,True,2019_Jun_12_0946,Yes-No Task,2,JOSU26,
Yes-No Task,13,0,13,0,4,-1,Correct Rejection,0.670643509366,False,-1,stimulus_JOSU26_Yes-No Task_2019_Jun_12_0946_539,-1,True,2019_Jun_12_0946,Yes-No Task,2,JOSU26,
Yes-No Task,14,0,14,0,8.7,-1,Hit,0.565186011139,True,-1,stimulus_JOSU26_Yes-No Task_2019_Jun_12_0946_540,-1,True,2019_Jun_12_0946,Yes-No Task,2,JOSU26,
Yes-No Task,15,0,15,0,7.6,-1,Hit,0.467289988417,True,-1,stimulus_JOSU26_Yes-No Task_2019_Jun_12_0946_541,-1,True,2019_Jun_12_0946,Yes-No Task,2,JOSU26,
Yes-No Task,16,0,16,0,7.6,-1,Hit,0.635817532893,True,-1,stimulus_JOSU26_Yes-No Task_2019_Jun_12_0946_542,-1,True,2019_Jun_12_0946,Yes-No Task,2,JOSU26,
Yes-No Task,17,0,17,0,5,-1,Correct Rejection,0.599098518491,False,-1,stimulus_JOSU26_Yes-No Task_2019_Jun_12_0946_543,-1,True,2019_Jun_12_0946,Yes-No Task,2,JOSU26,
Yes-No Task,18,0,18,0,5,-1,Correct Rejection,0.568405940197,False,-1,stimulus_JOSU26_Yes-No Task_2019_Jun_12_0946_544,-1,True,2019_Jun_12_0946,Yes-No Task,2,JOSU26,
Yes-No Task,19,0,19,0,8.7,-1,Hit,0.559401798528,True,-1,stimulus_JOSU26_Yes-No Task_2019_Jun_12_0946_545,-1,True,2019_Jun_12_0946,Yes-No Task,2,JOSU26,
Yes-No Task,20,0,20,0,5,-1,Correct Rejection,0.566498123109,False,-1,stimulus_JOSU26_Yes-No Task_2019_Jun_12_0946_546,-1,True,2019_Jun_12_0946,Yes-No Task,2,JOSU26,
Yes-No Task,21,0,21,0,8.7,-1,Correct Rejection,0.436763681937,False,-1,stimulus_JOSU26_Yes-No Task_2019_Jun_12_0946_547,-1,True,2019_Jun_12_0946,Yes-No Task,2,JOSU26,
Yes-No Task,22,0,22,0,1.5,-1,Miss,0.502622581553,True,-1,stimulus_JOSU26_Yes-No Task_2019_Jun_12_0946_548,-1,True,2019_Jun_12_0946,Yes-No Task,2,JOSU26,
Yes-No Task,23,0,23,0,1.5,-1,Correct Rejection,0.468787257094,False,-1,stimulus_JOSU26_Yes-No Task_2019_Jun_12_0946_549,-1,True,2019_Jun_12_0946,Yes-No Task,2,JOSU26,
Yes-No Task,24,0,24,0,5.8,-1,False Alarm,0.538210946135,False,-1,stimulus_JOSU26_Yes-No Task_2019_Jun_12_0946_550,-1,True,2019_Jun_12_0946,Yes-No Task,2,JOSU26,
Yes-No Task,25,0,25,0,5,-1,Correct Rejection,0.501731692348,False,-1,stimulus_JOSU26_Yes-No Task_2019_Jun_12_0946_551,-1,True,2019_Jun_12_0946,Yes-No Task,2,JOSU26,
Yes-No Task,26,0,26,0,7.6,-1,False Alarm,0.636314296164,False,-1,stimulus_JOSU26_Yes-No Task_2019_Jun_12_0946_552,-1,True,2019_Jun_12_0946,Yes-No Task,2,JOSU26,
Yes-No Task,27,0,27,0,8.7,-1,Correct Rejection,0.603735249024,False,-1,stimulus_JOSU26_Yes-No Task_2019_Jun_12_0946_553,-1,True,2019_Jun_12_0946,Yes-No Task,2,JOSU26,
Yes-No Task,28,0,28,0,5.8,-1,Correct Rejection,0.457054612692,False,-1,stimulus_JOSU26_Yes-No Task_2019_Jun_12_0946_554,-1,True,2019_Jun_12_0946,Yes-No Task,2,JOSU26,
Yes-No Task,29,0,29,0,8.7,-1,Hit,0.526702461299,True,-1,stimulus_JOSU26_Yes-No Task_2019_Jun_12_0946_555,-1,True,2019_Jun_12_0946,Yes-No Task,2,JOSU26,
Yes-No Task,30,0,30,0,6.7,-1,Hit,0.532625439111,True,-1,stimulus_JOSU26_Yes-No Task_2019_Jun_12_0946_556,-1,True,2019_Jun_12_0946,Yes-No Task,2,JOSU26,
Yes-No Task,31,0,31,0,7.6,-1,Correct Rejection,0.501977199689,False,-1,stimulus_JOSU26_Yes-No Task_2019_Jun_12_0946_557,-1,True,2019_Jun_12_0946,Yes-No Task,2,JOSU26,
Yes-No Task,32,0,32,0,4,-1,Correct Rejection,0.466486956459,False,-1,stimulus_JOSU26_Yes-No Task_2019_Jun_12_0946_558,-1,True,2019_Jun_12_0946,Yes-No Task,2,JOSU26,
Yes-No Task,33,0,33,0,1.5,-1,Miss,0.52368780598,True,-1,stimulus_JOSU26_Yes-No Task_2019_Jun_12_0946_559,-1,True,2019_Jun_12_0946,Yes-No Task,2,JOSU26,
Yes-No Task,34,0,34,0,5,-1,Correct Rejection,0.535796102136,False,-1,stimulus_JOSU26_Yes-No Task_2019_Jun_12_0946_560,-1,True,2019_Jun_12_0946,Yes-No Task,2,JOSU26,
Yes-No Task,35,0,35,0,1.5,-1,False Alarm,0.574570730794,False,-1,stimulus_JOSU26_Yes-No Task_2019_Jun_12_0946_561,-1,True,2019_Jun_12_0946,Yes-No Task,2,JOSU26,
Yes-No Task,36,0,36,0,3,-1,Correct Rejection,0.500270961784,False,-1,stimulus_JOSU26_Yes-No Task_2019_Jun_12_0946_562,-1,True,2019_Jun_12_0946,Yes-No Task,2,JOSU26,
Yes-No Task,37,0,37,0,1.5,-1,Miss,0.534718823619,True,-1,stimulus_JOSU26_Yes-No Task_2019_Jun_12_0946_563,-1,True,2019_Jun_12_0946,Yes-No Task,2,JOSU26,
Yes-No Task,38,0,38,0,6.7,-1,Hit,0.700163562316,True,-1,stimulus_JOSU26_Yes-No Task_2019_Jun_12_0946_564,-1,True,2019_Jun_12_0946,Yes-No Task,2,JOSU26,
Yes-No Task,39,0,39,0,3,-1,Correct Rejection,0.434998324607,False,-1,stimulus_JOSU26_Yes-No Task_2019_Jun_12_0946_565,-1,True,2019_Jun_12_0946,Yes-No Task,2,JOSU26,
Yes-No Task,40,0,40,0,7.6,-1,Hit,0.501656972338,True,-1,stimulus_JOSU26_Yes-No Task_2019_Jun_12_0946_566,-1,True,2019_Jun_12_0946,Yes-No Task,2,JOSU26,
Yes-No Task,41,0,41,0,3,-1,Correct Rejection,0.562927175313,False,-1,stimulus_JOSU26_Yes-No Task_2019_Jun_12_0946_567,-1,True,2019_Jun_12_0946,Yes-No Task,2,JOSU26,
Yes-No Task,42,0,42,0,7.6,-1,Correct Rejection,0.499600536656,False,-1,stimulus_JOSU26_Yes-No Task_2019_Jun_12_0946_568,-1,True,2019_Jun_12_0946,Yes-No Task,2,JOSU26,
Yes-No Task,43,0,43,0,8.7,-1,False Alarm,0.537582396995,False,-1,stimulus_JOSU26_Yes-No Task_2019_Jun_12_0946_569,-1,True,2019_Jun_12_0946,Yes-No Task,2,JOSU26,
Yes-No Task,44,0,44,0,5,-1,Correct Rejection,0.600704582874,False,-1,stimulus_JOSU26_Yes-No Task_2019_Jun_12_0946_570,-1,True,2019_Jun_12_0946,Yes-No Task,2,JOSU26,
Yes-No Task,45,0,45,0,1.5,-1,Hit,0.500812474638,True,-1,stimulus_JOSU26_Yes-No Task_2019_Jun_12_0946_571,-1,True,2019_Jun_12_0946,Yes-No Task,2,JOSU26,
Yes-No Task,46,0,46,0,4,-1,Hit,0.534773426596,True,-1,stimulus_JOSU26_Yes-No Task_2019_Jun_12_0946_572,-1,True,2019_Jun_12_0946,Yes-No Task,2,JOSU26,
Yes-No Task,47,0,47,0,3,-1,Correct Rejection,0.701859946828,False,-1,stimulus_JOSU26_Yes-No Task_2019_Jun_12_0946_573,-1,True,2019_Jun_12_0946,Yes-No Task,2,JOSU26,
Yes-No Task,48,0,48,0,6.7,-1,Hit,0.56913137855,True,-1,stimulus_JOSU26_Yes-No Task_2019_Jun_12_0946_574,-1,True,2019_Jun_12_0946,Yes-No Task,2,JOSU26,
Yes-No Task,49,0,49,0,1.5,-1,Miss,0.792632549535,True,-1,stimulus_JOSU26_Yes-No Task_2019_Jun_12_0946_575,-1,True,2019_Jun_12_0946,Yes-No Task,2,JOSU26,
Yes-No Task,50,0,50,0,5,-1,Correct Rejection,0.565746409353,False,-1,stimulus_JOSU26_Yes-No Task_2019_Jun_12_0946_576,-1,True,2019_Jun_12_0946,Yes-No Task,2,JOSU26,
Yes-No Task,51,0,51,0,7.6,-1,Correct Rejection,0.469287305139,False,-1,stimulus_JOSU26_Yes-No Task_2019_Jun_12_0946_577,-1,True,2019_Jun_12_0946,Yes-No Task,2,JOSU26,
Yes-No Task,52,0,52,0,8.7,-1,Hit,0.570508357137,True,-1,stimulus_JOSU26_Yes-No Task_2019_Jun_12_0946_578,-1,True,2019_Jun_12_0946,Yes-No Task,2,JOSU26,
Yes-No Task,53,0,53,0,7.6,-1,Correct Rejection,0.503377989866,False,-1,stimulus_JOSU26_Yes-No Task_2019_Jun_12_0946_579,-1,True,2019_Jun_12_0946,Yes-No Task,2,JOSU26,
Yes-No Task,54,0,54,0,5,-1,Correct Rejection,0.501833918504,False,-1,stimulus_JOSU26_Yes-No Task_2019_Jun_12_0946_580,-1,True,2019_Jun_12_0946,Yes-No Task,2,JOSU26,
Yes-No Task,55,0,55,0,8.7,-1,Hit,0.499128406402,True,-1,stimulus_JOSU26_Yes-No Task_2019_Jun_12_0946_581,-1,True,2019_Jun_12_0946,Yes-No Task,2,JOSU26,
Yes-No Task,56,0,56,0,8.7,-1,Hit,0.535764900502,True,-1,stimulus_JOSU26_Yes-No Task_2019_Jun_12_0946_582,-1,True,2019_Jun_12_0946,Yes-No Task,2,JOSU26,
Yes-No Task,57,0,57,0,3,-1,Correct Rejection,0.568580423016,False,-1,stimulus_JOSU26_Yes-No Task_2019_Jun_12_0946_583,-1,True,2019_Jun_12_0946,Yes-No Task,2,JOSU26,
Yes-No Task,58,0,58,0,5.8,-1,Correct Rejection,0.498400093988,False,-1,stimulus_JOSU26_Yes-No Task_2019_Jun_12_0946_584,-1,True,2019_Jun_12_0946,Yes-No Task,2,JOSU26,
Yes-No Task,59,0,59,0,4,-1,Miss,0.567322914489,True,-1,stimulus_JOSU26_Yes-No Task_2019_Jun_12_0946_585,-1,True,2019_Jun_12_0946,Yes-No Task,2,JOSU26,
Yes-No Task,60,0,60,0,8.7,-1,Correct Rejection,0.535273474641,False,-1,stimulus_JOSU26_Yes-No Task_2019_Jun_12_0946_586,-1,True,2019_Jun_12_0946,Yes-No Task,2,JOSU26,
Yes-No Task,61,0,61,0,5,-1,Miss,0.575138108339,True,-1,stimulus_JOSU26_Yes-No Task_2019_Jun_12_0946_587,-1,True,2019_Jun_12_0946,Yes-No Task,2,JOSU26,
Yes-No Task,62,0,62,0,4,-1,Correct Rejection,0.465024583973,False,-1,stimulus_JOSU26_Yes-No Task_2019_Jun_12_0946_588,-1,True,2019_Jun_12_0946,Yes-No Task,2,JOSU26,
Yes-No Task,63,0,63,0,4,-1,Correct Rejection,0.490320506506,False,-1,stimulus_JOSU26_Yes-No Task_2019_Jun_12_0946_589,-1,True,2019_Jun_12_0946,Yes-No Task,2,JOSU26,
Yes-No Task,64,0,64,0,5,-1,Miss,0.498842664529,True,-1,stimulus_JOSU26_Yes-No Task_2019_Jun_12_0946_590,-1,True,2019_Jun_12_0946,Yes-No Task,2,JOSU26,
Yes-No Task,65,0,65,0,6.7,-1,Hit,0.500079235993,True,-1,stimulus_JOSU26_Yes-No Task_2019_Jun_12_0946_591,-1,True,2019_Jun_12_0946,Yes-No Task,2,JOSU26,
Yes-No Task,66,0,66,0,5,-1,Correct Rejection,0.471248082817,False,-1,stimulus_JOSU26_Yes-No Task_2019_Jun_12_0946_592,-1,True,2019_Jun_12_0946,Yes-No Task,2,JOSU26,
Yes-No Task,67,0,67,0,8.7,-1,Hit,0.434747890569,True,-1,stimulus_JOSU26_Yes-No Task_2019_Jun_12_0946_593,-1,True,2019_Jun_12_0946,Yes-No Task,2,JOSU26,
Yes-No Task,68,0,68,0,4,-1,Correct Rejection,0.566917703487,False,-1,stimulus_JOSU26_Yes-No Task_2019_Jun_12_0946_594,-1,True,2019_Jun_12_0946,Yes-No Task,2,JOSU26,
Yes-No Task,69,0,69,0,1.5,-1,Correct Rejection,0.400736030657,False,-1,stimulus_JOSU26_Yes-No Task_2019_Jun_12_0946_595,-1,True,2019_Jun_12_0946,Yes-No Task,2,JOSU26,
Yes-No Task,70,0,70,0,6.7,-1,Hit,0.636075356975,True,-1,stimulus_JOSU26_Yes-No Task_2019_Jun_12_0946_596,-1,True,2019_Jun_12_0946,Yes-No Task,2,JOSU26,
Yes-No Task,71,0,71,0,1.5,-1,Correct Rejection,0.566530556418,False,-1,stimulus_JOSU26_Yes-No Task_2019_Jun_12_0946_597,-1,True,2019_Jun_12_0946,Yes-No Task,2,JOSU26,
Yes-No Task,72,0,72,0,7.6,-1,Hit,0.640526520088,True,-1,stimulus_JOSU26_Yes-No Task_2019_Jun_12_0946_598,-1,True,2019_Jun_12_0946,Yes-No Task,2,JOSU26,
Yes-No Task,73,0,73,0,1.5,-1,Correct Rejection,0.466497630347,False,-1,stimulus_JOSU26_Yes-No Task_2019_Jun_12_0946_599,-1,True,2019_Jun_12_0946,Yes-No Task,2,JOSU26,
Yes-No Task,74,0,74,0,5,-1,Correct Rejection,0.431506613269,False,-1,stimulus_JOSU26_Yes-No Task_2019_Jun_12_0946_600,-1,True,2019_Jun_12_0946,Yes-No Task,2,JOSU26,
