Task,trials.thisRepN,trials.thisTrialN,trials.thisN,trials.thisIndex,signal_intensity,constant Value,response,time_response,signal_on_stimuluspos1,signal_on_stimuluspos2,stimulus_name_pos1,stimulus_name_pos2,random_intensity,date,expName,session,participant,
Yes-No Task,0,0,0,0,8.7,-1,Correct Rejection,0.533984764013,False,-1,stimulus_JOSU26_Yes-No Task_2019_Jun_13_0920_1,-1,False,2019_Jun_13_0920,Yes-No Task,,JOSU26,
Yes-No Task,1,0,1,0,8.7,-1,Hit,0.525856321212,True,-1,stimulus_JOSU26_Yes-No Task_2019_Jun_13_0920_2,-1,False,2019_Jun_13_0920,Yes-No Task,,JOSU26,
Yes-No Task,2,0,2,0,8.7,-1,Correct Rejection,0.567181274761,False,-1,stimulus_JOSU26_Yes-No Task_2019_Jun_13_0920_3,-1,False,2019_Jun_13_0920,Yes-No Task,,JOSU26,
Yes-No Task,3,0,3,0,8.7,-1,Miss,0.801324674394,True,-1,stimulus_JOSU26_Yes-No Task_2019_Jun_13_0920_4,-1,False,2019_Jun_13_0920,Yes-No Task,,JOSU26,
Yes-No Task,4,0,4,0,8.7,-1,Correct Rejection,0.571193972602,False,-1,stimulus_JOSU26_Yes-No Task_2019_Jun_13_0920_5,-1,False,2019_Jun_13_0920,Yes-No Task,,JOSU26,
Yes-No Task,5,0,5,0,8.7,-1,Hit,0.533483073581,True,-1,stimulus_JOSU26_Yes-No Task_2019_Jun_13_0920_6,-1,False,2019_Jun_13_0920,Yes-No Task,,JOSU26,
Yes-No Task,6,0,6,0,8.7,-1,Hit,0.53007306112,True,-1,stimulus_JOSU26_Yes-No Task_2019_Jun_13_0920_7,-1,False,2019_Jun_13_0920,Yes-No Task,,JOSU26,
Yes-No Task,7,0,7,0,8.7,-1,Correct Rejection,0.567291712388,False,-1,stimulus_JOSU26_Yes-No Task_2019_Jun_13_0920_8,-1,False,2019_Jun_13_0920,Yes-No Task,,JOSU26,
Yes-No Task,8,0,8,0,8.7,-1,Hit,0.533541782293,True,-1,stimulus_JOSU26_Yes-No Task_2019_Jun_13_0920_9,-1,False,2019_Jun_13_0920,Yes-No Task,,JOSU26,
Yes-No Task,9,0,9,0,8.7,-1,Correct Rejection,0.466560443863,False,-1,stimulus_JOSU26_Yes-No Task_2019_Jun_13_0920_10,-1,False,2019_Jun_13_0920,Yes-No Task,,JOSU26,
Yes-No Task,10,0,10,0,8.7,-1,Hit,0.502466162667,True,-1,stimulus_JOSU26_Yes-No Task_2019_Jun_13_0920_11,-1,False,2019_Jun_13_0920,Yes-No Task,,JOSU26,
Yes-No Task,11,0,11,0,8.7,-1,Correct Rejection,0.435550101567,False,-1,stimulus_JOSU26_Yes-No Task_2019_Jun_13_0920_12,-1,False,2019_Jun_13_0920,Yes-No Task,,JOSU26,
Yes-No Task,12,0,12,0,8.7,-1,Hit,0.43610967882,True,-1,stimulus_JOSU26_Yes-No Task_2019_Jun_13_0920_13,-1,False,2019_Jun_13_0920,Yes-No Task,,JOSU26,
Yes-No Task,13,0,13,0,8.7,-1,Hit,0.466903662309,True,-1,stimulus_JOSU26_Yes-No Task_2019_Jun_13_0920_14,-1,False,2019_Jun_13_0920,Yes-No Task,,JOSU26,
Yes-No Task,14,0,14,0,8.7,-1,Correct Rejection,0.498975271825,False,-1,stimulus_JOSU26_Yes-No Task_2019_Jun_13_0920_15,-1,False,2019_Jun_13_0920,Yes-No Task,,JOSU26,
Yes-No Task,15,0,15,0,8.7,-1,Correct Rejection,0.533171878196,False,-1,stimulus_JOSU26_Yes-No Task_2019_Jun_13_0920_16,-1,False,2019_Jun_13_0920,Yes-No Task,,JOSU26,
Yes-No Task,16,0,16,0,8.7,-1,Hit,0.492281284183,True,-1,stimulus_JOSU26_Yes-No Task_2019_Jun_13_0920_17,-1,False,2019_Jun_13_0920,Yes-No Task,,JOSU26,
Yes-No Task,17,0,17,0,8.7,-1,Hit,0.435332100838,True,-1,stimulus_JOSU26_Yes-No Task_2019_Jun_13_0920_18,-1,False,2019_Jun_13_0920,Yes-No Task,,JOSU26,
Yes-No Task,18,0,18,0,8.7,-1,Correct Rejection,0.53532971954,False,-1,stimulus_JOSU26_Yes-No Task_2019_Jun_13_0920_19,-1,False,2019_Jun_13_0920,Yes-No Task,,JOSU26,
Yes-No Task,19,0,19,0,8.7,-1,Correct Rejection,0.434662496671,False,-1,stimulus_JOSU26_Yes-No Task_2019_Jun_13_0920_20,-1,False,2019_Jun_13_0920,Yes-No Task,,JOSU26,
Yes-No Task,20,0,20,0,8.7,-1,Correct Rejection,0.45971865952,False,-1,stimulus_JOSU26_Yes-No Task_2019_Jun_13_0920_21,-1,False,2019_Jun_13_0920,Yes-No Task,,JOSU26,
Yes-No Task,21,0,21,0,8.7,-1,Hit,0.467697252054,True,-1,stimulus_JOSU26_Yes-No Task_2019_Jun_13_0920_22,-1,False,2019_Jun_13_0920,Yes-No Task,,JOSU26,
Yes-No Task,22,0,22,0,8.7,-1,Correct Rejection,0.500440929085,False,-1,stimulus_JOSU26_Yes-No Task_2019_Jun_13_0920_23,-1,False,2019_Jun_13_0920,Yes-No Task,,JOSU26,
Yes-No Task,23,0,23,0,8.7,-1,Hit,0.520319669042,True,-1,stimulus_JOSU26_Yes-No Task_2019_Jun_13_0920_24,-1,False,2019_Jun_13_0920,Yes-No Task,,JOSU26,
Yes-No Task,24,0,24,0,8.7,-1,False Alarm,0.533166131005,False,-1,stimulus_JOSU26_Yes-No Task_2019_Jun_13_0920_25,-1,False,2019_Jun_13_0920,Yes-No Task,,JOSU26,
Yes-No Task,25,0,25,0,8.7,-1,Correct Rejection,0.524768368807,False,-1,stimulus_JOSU26_Yes-No Task_2019_Jun_13_0920_26,-1,False,2019_Jun_13_0920,Yes-No Task,,JOSU26,
Yes-No Task,26,0,26,0,8.7,-1,Correct Rejection,0.525921187829,False,-1,stimulus_JOSU26_Yes-No Task_2019_Jun_13_0920_27,-1,False,2019_Jun_13_0920,Yes-No Task,,JOSU26,
Yes-No Task,27,0,27,0,8.7,-1,Hit,0.474038988817,True,-1,stimulus_JOSU26_Yes-No Task_2019_Jun_13_0920_28,-1,False,2019_Jun_13_0920,Yes-No Task,,JOSU26,
Yes-No Task,28,0,28,0,8.7,-1,Hit,0.466287019197,True,-1,stimulus_JOSU26_Yes-No Task_2019_Jun_13_0920_29,-1,False,2019_Jun_13_0920,Yes-No Task,,JOSU26,
Yes-No Task,29,0,29,0,8.7,-1,Hit,0.502776947804,True,-1,stimulus_JOSU26_Yes-No Task_2019_Jun_13_0920_30,-1,False,2019_Jun_13_0920,Yes-No Task,,JOSU26,
Yes-No Task,30,0,30,0,8.7,-1,Correct Rejection,0.433595071081,False,-1,stimulus_JOSU26_Yes-No Task_2019_Jun_13_0920_31,-1,False,2019_Jun_13_0920,Yes-No Task,,JOSU26,
Yes-No Task,31,0,31,0,8.7,-1,Hit,0.433091739658,True,-1,stimulus_JOSU26_Yes-No Task_2019_Jun_13_0920_32,-1,False,2019_Jun_13_0920,Yes-No Task,,JOSU26,
Yes-No Task,32,0,32,0,8.7,-1,Correct Rejection,0.5694717234,False,-1,stimulus_JOSU26_Yes-No Task_2019_Jun_13_0920_33,-1,False,2019_Jun_13_0920,Yes-No Task,,JOSU26,
Yes-No Task,33,0,33,0,8.7,-1,Correct Rejection,0.633794351481,False,-1,stimulus_JOSU26_Yes-No Task_2019_Jun_13_0920_34,-1,False,2019_Jun_13_0920,Yes-No Task,,JOSU26,
Yes-No Task,34,0,34,0,8.7,-1,Hit,0.59699528059,True,-1,stimulus_JOSU26_Yes-No Task_2019_Jun_13_0920_35,-1,False,2019_Jun_13_0920,Yes-No Task,,JOSU26,
Yes-No Task,35,0,35,0,8.7,-1,False Alarm,0.666102847084,False,-1,stimulus_JOSU26_Yes-No Task_2019_Jun_13_0920_36,-1,False,2019_Jun_13_0920,Yes-No Task,,JOSU26,
Yes-No Task,36,0,36,0,8.7,-1,Hit,0.60106217023,True,-1,stimulus_JOSU26_Yes-No Task_2019_Jun_13_0920_37,-1,False,2019_Jun_13_0920,Yes-No Task,,JOSU26,
Yes-No Task,37,0,37,0,8.7,-1,Hit,0.425913305487,True,-1,stimulus_JOSU26_Yes-No Task_2019_Jun_13_0920_38,-1,False,2019_Jun_13_0920,Yes-No Task,,JOSU26,
Yes-No Task,38,0,38,0,8.7,-1,Correct Rejection,0.600895898417,False,-1,stimulus_JOSU26_Yes-No Task_2019_Jun_13_0920_39,-1,False,2019_Jun_13_0920,Yes-No Task,,JOSU26,
Yes-No Task,39,0,39,0,8.7,-1,Hit,0.403108999133,True,-1,stimulus_JOSU26_Yes-No Task_2019_Jun_13_0920_40,-1,False,2019_Jun_13_0920,Yes-No Task,,JOSU26,
Yes-No Task,40,0,40,0,8.7,-1,False Alarm,0.732811991591,False,-1,stimulus_JOSU26_Yes-No Task_2019_Jun_13_0920_41,-1,False,2019_Jun_13_0920,Yes-No Task,,JOSU26,
Yes-No Task,41,0,41,0,8.7,-1,Hit,0.469794331584,True,-1,stimulus_JOSU26_Yes-No Task_2019_Jun_13_0920_42,-1,False,2019_Jun_13_0920,Yes-No Task,,JOSU26,
Yes-No Task,42,0,42,0,8.7,-1,Hit,0.435113278218,True,-1,stimulus_JOSU26_Yes-No Task_2019_Jun_13_0920_43,-1,False,2019_Jun_13_0920,Yes-No Task,,JOSU26,
Yes-No Task,43,0,43,0,8.7,-1,Correct Rejection,0.430902286433,False,-1,stimulus_JOSU26_Yes-No Task_2019_Jun_13_0920_44,-1,False,2019_Jun_13_0920,Yes-No Task,,JOSU26,
Yes-No Task,44,0,44,0,8.7,-1,Correct Rejection,0.434846011456,False,-1,stimulus_JOSU26_Yes-No Task_2019_Jun_13_0920_45,-1,False,2019_Jun_13_0920,Yes-No Task,,JOSU26,
Yes-No Task,45,0,45,0,8.7,-1,Correct Rejection,0.435073044617,False,-1,stimulus_JOSU26_Yes-No Task_2019_Jun_13_0920_46,-1,False,2019_Jun_13_0920,Yes-No Task,,JOSU26,
Yes-No Task,46,0,46,0,8.7,-1,Correct Rejection,0.459634497296,False,-1,stimulus_JOSU26_Yes-No Task_2019_Jun_13_0920_47,-1,False,2019_Jun_13_0920,Yes-No Task,,JOSU26,
Yes-No Task,47,0,47,0,8.7,-1,Miss,0.399352894165,True,-1,stimulus_JOSU26_Yes-No Task_2019_Jun_13_0920_48,-1,False,2019_Jun_13_0920,Yes-No Task,,JOSU26,
Yes-No Task,48,0,48,0,8.7,-1,Hit,0.468136128038,True,-1,stimulus_JOSU26_Yes-No Task_2019_Jun_13_0920_49,-1,False,2019_Jun_13_0920,Yes-No Task,,JOSU26,
Yes-No Task,49,0,49,0,8.7,-1,Correct Rejection,0.472897254862,False,-1,stimulus_JOSU26_Yes-No Task_2019_Jun_13_0920_50,-1,False,2019_Jun_13_0920,Yes-No Task,,JOSU26,
Yes-No Task,50,0,50,0,8.7,-1,Hit,0.467492388561,True,-1,stimulus_JOSU26_Yes-No Task_2019_Jun_13_0920_51,-1,False,2019_Jun_13_0920,Yes-No Task,,JOSU26,
Yes-No Task,51,0,51,0,8.7,-1,Hit,0.434417809825,True,-1,stimulus_JOSU26_Yes-No Task_2019_Jun_13_0920_52,-1,False,2019_Jun_13_0920,Yes-No Task,,JOSU26,
Yes-No Task,52,0,52,0,8.7,-1,Hit,0.434172712732,True,-1,stimulus_JOSU26_Yes-No Task_2019_Jun_13_0920_53,-1,False,2019_Jun_13_0920,Yes-No Task,,JOSU26,
Yes-No Task,53,0,53,0,8.7,-1,Correct Rejection,0.468075366691,False,-1,stimulus_JOSU26_Yes-No Task_2019_Jun_13_0920_54,-1,False,2019_Jun_13_0920,Yes-No Task,,JOSU26,
Yes-No Task,54,0,54,0,8.7,-1,Hit,0.401941400021,True,-1,stimulus_JOSU26_Yes-No Task_2019_Jun_13_0920_55,-1,False,2019_Jun_13_0920,Yes-No Task,,JOSU26,
Yes-No Task,55,0,55,0,8.7,-1,Correct Rejection,0.437755976804,False,-1,stimulus_JOSU26_Yes-No Task_2019_Jun_13_0920_56,-1,False,2019_Jun_13_0920,Yes-No Task,,JOSU26,
Yes-No Task,56,0,56,0,8.7,-1,Hit,0.433477654587,True,-1,stimulus_JOSU26_Yes-No Task_2019_Jun_13_0920_57,-1,False,2019_Jun_13_0920,Yes-No Task,,JOSU26,
Yes-No Task,57,0,57,0,8.7,-1,Hit,0.401511966716,True,-1,stimulus_JOSU26_Yes-No Task_2019_Jun_13_0920_58,-1,False,2019_Jun_13_0920,Yes-No Task,,JOSU26,
Yes-No Task,58,0,58,0,8.7,-1,False Alarm,0.438217022456,False,-1,stimulus_JOSU26_Yes-No Task_2019_Jun_13_0920_59,-1,False,2019_Jun_13_0920,Yes-No Task,,JOSU26,
Yes-No Task,59,0,59,0,8.7,-1,Correct Rejection,0.667217895854,False,-1,stimulus_JOSU26_Yes-No Task_2019_Jun_13_0920_60,-1,False,2019_Jun_13_0920,Yes-No Task,,JOSU26,
Yes-No Task,60,0,60,0,8.7,-1,Hit,0.467332685366,True,-1,stimulus_JOSU26_Yes-No Task_2019_Jun_13_0920_61,-1,False,2019_Jun_13_0920,Yes-No Task,,JOSU26,
Yes-No Task,61,0,61,0,8.7,-1,False Alarm,0.500662214123,False,-1,stimulus_JOSU26_Yes-No Task_2019_Jun_13_0920_62,-1,False,2019_Jun_13_0920,Yes-No Task,,JOSU26,
Yes-No Task,62,0,62,0,8.7,-1,Correct Rejection,0.567513818853,False,-1,stimulus_JOSU26_Yes-No Task_2019_Jun_13_0920_63,-1,False,2019_Jun_13_0920,Yes-No Task,,JOSU26,
Yes-No Task,63,0,63,0,8.7,-1,Hit,0.502850025427,True,-1,stimulus_JOSU26_Yes-No Task_2019_Jun_13_0920_64,-1,False,2019_Jun_13_0920,Yes-No Task,,JOSU26,
Yes-No Task,64,0,64,0,8.7,-1,Correct Rejection,0.602281908505,False,-1,stimulus_JOSU26_Yes-No Task_2019_Jun_13_0920_65,-1,False,2019_Jun_13_0920,Yes-No Task,,JOSU26,
Yes-No Task,65,0,65,0,8.7,-1,Hit,0.53561381856,True,-1,stimulus_JOSU26_Yes-No Task_2019_Jun_13_0920_66,-1,False,2019_Jun_13_0920,Yes-No Task,,JOSU26,
Yes-No Task,66,0,66,0,8.7,-1,Correct Rejection,0.634137569461,False,-1,stimulus_JOSU26_Yes-No Task_2019_Jun_13_0920_67,-1,False,2019_Jun_13_0920,Yes-No Task,,JOSU26,
Yes-No Task,67,0,67,0,8.7,-1,Correct Rejection,0.501495216042,False,-1,stimulus_JOSU26_Yes-No Task_2019_Jun_13_0920_68,-1,False,2019_Jun_13_0920,Yes-No Task,,JOSU26,
Yes-No Task,68,0,68,0,8.7,-1,No Answer,-1,True,-1,stimulus_JOSU26_Yes-No Task_2019_Jun_13_0920_69,-1,False,2019_Jun_13_0920,Yes-No Task,,JOSU26,
Yes-No Task,69,0,69,0,8.7,-1,Hit,0.602936732583,True,-1,stimulus_JOSU26_Yes-No Task_2019_Jun_13_0920_70,-1,False,2019_Jun_13_0920,Yes-No Task,,JOSU26,
Yes-No Task,70,0,70,0,8.7,-1,Correct Rejection,0.566711197607,False,-1,stimulus_JOSU26_Yes-No Task_2019_Jun_13_0920_71,-1,False,2019_Jun_13_0920,Yes-No Task,,JOSU26,
Yes-No Task,71,0,71,0,8.7,-1,Hit,0.667313964106,True,-1,stimulus_JOSU26_Yes-No Task_2019_Jun_13_0920_72,-1,False,2019_Jun_13_0920,Yes-No Task,,JOSU26,
Yes-No Task,72,0,72,0,8.7,-1,Hit,0.544088763651,True,-1,stimulus_JOSU26_Yes-No Task_2019_Jun_13_0920_73,-1,False,2019_Jun_13_0920,Yes-No Task,,JOSU26,
Yes-No Task,73,0,73,0,8.7,-1,Hit,0.531701295171,True,-1,stimulus_JOSU26_Yes-No Task_2019_Jun_13_0920_74,-1,False,2019_Jun_13_0920,Yes-No Task,,JOSU26,
Yes-No Task,74,0,74,0,8.7,-1,Correct Rejection,0.805953193922,False,-1,stimulus_JOSU26_Yes-No Task_2019_Jun_13_0920_75,-1,False,2019_Jun_13_0920,Yes-No Task,,JOSU26,
Yes-No Task,0,0,0,0,7.6,-1,Correct Rejection,0.568731504492,False,-1,stimulus_JOSU26_Yes-No Task_2019_Jun_13_0920_76,-1,False,2019_Jun_13_0920,Yes-No Task,,JOSU26,
Yes-No Task,1,0,1,0,7.6,-1,Hit,0.501661899034,True,-1,stimulus_JOSU26_Yes-No Task_2019_Jun_13_0920_77,-1,False,2019_Jun_13_0920,Yes-No Task,,JOSU26,
Yes-No Task,2,0,2,0,7.6,-1,Hit,0.600519425701,True,-1,stimulus_JOSU26_Yes-No Task_2019_Jun_13_0920_78,-1,False,2019_Jun_13_0920,Yes-No Task,,JOSU26,
Yes-No Task,3,0,3,0,7.6,-1,Hit,0.400696207769,True,-1,stimulus_JOSU26_Yes-No Task_2019_Jun_13_0920_79,-1,False,2019_Jun_13_0920,Yes-No Task,,JOSU26,
Yes-No Task,4,0,4,0,7.6,-1,Hit,0.43388368655,True,-1,stimulus_JOSU26_Yes-No Task_2019_Jun_13_0920_80,-1,False,2019_Jun_13_0920,Yes-No Task,,JOSU26,
Yes-No Task,5,0,5,0,7.6,-1,Correct Rejection,0.503587369341,False,-1,stimulus_JOSU26_Yes-No Task_2019_Jun_13_0920_81,-1,False,2019_Jun_13_0920,Yes-No Task,,JOSU26,
Yes-No Task,6,0,6,0,7.6,-1,Hit,0.499711795244,True,-1,stimulus_JOSU26_Yes-No Task_2019_Jun_13_0920_82,-1,False,2019_Jun_13_0920,Yes-No Task,,JOSU26,
Yes-No Task,7,0,7,0,7.6,-1,Hit,0.43772559613,True,-1,stimulus_JOSU26_Yes-No Task_2019_Jun_13_0920_83,-1,False,2019_Jun_13_0920,Yes-No Task,,JOSU26,
Yes-No Task,8,0,8,0,7.6,-1,Hit,0.4719111179,True,-1,stimulus_JOSU26_Yes-No Task_2019_Jun_13_0920_84,-1,False,2019_Jun_13_0920,Yes-No Task,,JOSU26,
Yes-No Task,9,0,9,0,7.6,-1,Hit,0.400611634832,True,-1,stimulus_JOSU26_Yes-No Task_2019_Jun_13_0920_85,-1,False,2019_Jun_13_0920,Yes-No Task,,JOSU26,
Yes-No Task,10,0,10,0,7.6,-1,Hit,0.433644747827,True,-1,stimulus_JOSU26_Yes-No Task_2019_Jun_13_0920_86,-1,False,2019_Jun_13_0920,Yes-No Task,,JOSU26,
Yes-No Task,11,0,11,0,7.6,-1,Hit,0.433443579357,True,-1,stimulus_JOSU26_Yes-No Task_2019_Jun_13_0920_87,-1,False,2019_Jun_13_0920,Yes-No Task,,JOSU26,
Yes-No Task,12,0,12,0,7.6,-1,Hit,0.425391909201,True,-1,stimulus_JOSU26_Yes-No Task_2019_Jun_13_0920_88,-1,False,2019_Jun_13_0920,Yes-No Task,,JOSU26,
Yes-No Task,13,0,13,0,7.6,-1,Hit,0.43501433637,True,-1,stimulus_JOSU26_Yes-No Task_2019_Jun_13_0920_89,-1,False,2019_Jun_13_0920,Yes-No Task,,JOSU26,
Yes-No Task,14,0,14,0,7.6,-1,Hit,0.365460914094,True,-1,stimulus_JOSU26_Yes-No Task_2019_Jun_13_0920_90,-1,False,2019_Jun_13_0920,Yes-No Task,,JOSU26,
Yes-No Task,15,0,15,0,7.6,-1,Correct Rejection,0.561953355093,False,-1,stimulus_JOSU26_Yes-No Task_2019_Jun_13_0920_91,-1,False,2019_Jun_13_0920,Yes-No Task,,JOSU26,
Yes-No Task,16,0,16,0,7.6,-1,False Alarm,0.493382374756,False,-1,stimulus_JOSU26_Yes-No Task_2019_Jun_13_0920_92,-1,False,2019_Jun_13_0920,Yes-No Task,,JOSU26,
Yes-No Task,17,0,17,0,7.6,-1,Correct Rejection,0.536429577973,False,-1,stimulus_JOSU26_Yes-No Task_2019_Jun_13_0920_93,-1,False,2019_Jun_13_0920,Yes-No Task,,JOSU26,
Yes-No Task,18,0,18,0,7.6,-1,Correct Rejection,0.467177497689,False,-1,stimulus_JOSU26_Yes-No Task_2019_Jun_13_0920_94,-1,False,2019_Jun_13_0920,Yes-No Task,,JOSU26,
Yes-No Task,19,0,19,0,7.6,-1,Correct Rejection,0.467957129236,False,-1,stimulus_JOSU26_Yes-No Task_2019_Jun_13_0920_95,-1,False,2019_Jun_13_0920,Yes-No Task,,JOSU26,
Yes-No Task,20,0,20,0,7.6,-1,Hit,0.434972460382,True,-1,stimulus_JOSU26_Yes-No Task_2019_Jun_13_0920_96,-1,False,2019_Jun_13_0920,Yes-No Task,,JOSU26,
Yes-No Task,21,0,21,0,7.6,-1,Correct Rejection,0.49876671331,False,-1,stimulus_JOSU26_Yes-No Task_2019_Jun_13_0920_97,-1,False,2019_Jun_13_0920,Yes-No Task,,JOSU26,
Yes-No Task,22,0,22,0,7.6,-1,Correct Rejection,0.465902745724,False,-1,stimulus_JOSU26_Yes-No Task_2019_Jun_13_0920_98,-1,False,2019_Jun_13_0920,Yes-No Task,,JOSU26,
Yes-No Task,23,0,23,0,7.6,-1,Correct Rejection,0.600898771547,False,-1,stimulus_JOSU26_Yes-No Task_2019_Jun_13_0920_99,-1,False,2019_Jun_13_0920,Yes-No Task,,JOSU26,
Yes-No Task,24,0,24,0,7.6,-1,Miss,0.433175491169,True,-1,stimulus_JOSU26_Yes-No Task_2019_Jun_13_0920_100,-1,False,2019_Jun_13_0920,Yes-No Task,,JOSU26,
Yes-No Task,25,0,25,0,7.6,-1,Hit,0.599438452162,True,-1,stimulus_JOSU26_Yes-No Task_2019_Jun_13_0920_101,-1,False,2019_Jun_13_0920,Yes-No Task,,JOSU26,
Yes-No Task,26,0,26,0,7.6,-1,Miss,0.525511050597,True,-1,stimulus_JOSU26_Yes-No Task_2019_Jun_13_0920_102,-1,False,2019_Jun_13_0920,Yes-No Task,,JOSU26,
Yes-No Task,27,0,27,0,7.6,-1,Correct Rejection,0.500701216049,False,-1,stimulus_JOSU26_Yes-No Task_2019_Jun_13_0920_103,-1,False,2019_Jun_13_0920,Yes-No Task,,JOSU26,
Yes-No Task,28,0,28,0,7.6,-1,Correct Rejection,0.459265824873,False,-1,stimulus_JOSU26_Yes-No Task_2019_Jun_13_0920_104,-1,False,2019_Jun_13_0920,Yes-No Task,,JOSU26,
Yes-No Task,29,0,29,0,7.6,-1,Miss,0.567850878928,True,-1,stimulus_JOSU26_Yes-No Task_2019_Jun_13_0920_105,-1,False,2019_Jun_13_0920,Yes-No Task,,JOSU26,
Yes-No Task,30,0,30,0,7.6,-1,Correct Rejection,0.534587859176,False,-1,stimulus_JOSU26_Yes-No Task_2019_Jun_13_0920_106,-1,False,2019_Jun_13_0920,Yes-No Task,,JOSU26,
Yes-No Task,31,0,31,0,7.6,-1,Hit,0.469789815601,True,-1,stimulus_JOSU26_Yes-No Task_2019_Jun_13_0920_107,-1,False,2019_Jun_13_0920,Yes-No Task,,JOSU26,
Yes-No Task,32,0,32,0,7.6,-1,Correct Rejection,0.535392122343,False,-1,stimulus_JOSU26_Yes-No Task_2019_Jun_13_0920_108,-1,False,2019_Jun_13_0920,Yes-No Task,,JOSU26,
Yes-No Task,33,0,33,0,7.6,-1,Hit,0.537599639967,True,-1,stimulus_JOSU26_Yes-No Task_2019_Jun_13_0920_109,-1,False,2019_Jun_13_0920,Yes-No Task,,JOSU26,
Yes-No Task,34,0,34,0,7.6,-1,Hit,0.502037139609,True,-1,stimulus_JOSU26_Yes-No Task_2019_Jun_13_0920_110,-1,False,2019_Jun_13_0920,Yes-No Task,,JOSU26,
Yes-No Task,35,0,35,0,7.6,-1,Correct Rejection,0.531906158663,False,-1,stimulus_JOSU26_Yes-No Task_2019_Jun_13_0920_111,-1,False,2019_Jun_13_0920,Yes-No Task,,JOSU26,
Yes-No Task,36,0,36,0,7.6,-1,Correct Rejection,0.493282200769,False,-1,stimulus_JOSU26_Yes-No Task_2019_Jun_13_0920_112,-1,False,2019_Jun_13_0920,Yes-No Task,,JOSU26,
Yes-No Task,37,0,37,0,7.6,-1,Correct Rejection,0.458552292082,False,-1,stimulus_JOSU26_Yes-No Task_2019_Jun_13_0920_113,-1,False,2019_Jun_13_0920,Yes-No Task,,JOSU26,
Yes-No Task,38,0,38,0,7.6,-1,Correct Rejection,0.431719687302,False,-1,stimulus_JOSU26_Yes-No Task_2019_Jun_13_0920_114,-1,False,2019_Jun_13_0920,Yes-No Task,,JOSU26,
Yes-No Task,39,0,39,0,7.6,-1,Hit,0.535534583032,True,-1,stimulus_JOSU26_Yes-No Task_2019_Jun_13_0920_115,-1,False,2019_Jun_13_0920,Yes-No Task,,JOSU26,
Yes-No Task,40,0,40,0,7.6,-1,Hit,0.502767505124,True,-1,stimulus_JOSU26_Yes-No Task_2019_Jun_13_0920_116,-1,False,2019_Jun_13_0920,Yes-No Task,,JOSU26,
Yes-No Task,41,0,41,0,7.6,-1,Hit,0.501652867068,True,-1,stimulus_JOSU26_Yes-No Task_2019_Jun_13_0920_117,-1,False,2019_Jun_13_0920,Yes-No Task,,JOSU26,
Yes-No Task,42,0,42,0,7.6,-1,Hit,0.572079935111,True,-1,stimulus_JOSU26_Yes-No Task_2019_Jun_13_0920_118,-1,False,2019_Jun_13_0920,Yes-No Task,,JOSU26,
Yes-No Task,43,0,43,0,7.6,-1,Hit,0.469185078051,True,-1,stimulus_JOSU26_Yes-No Task_2019_Jun_13_0920_119,-1,False,2019_Jun_13_0920,Yes-No Task,,JOSU26,
Yes-No Task,44,0,44,0,7.6,-1,Correct Rejection,0.503292595968,False,-1,stimulus_JOSU26_Yes-No Task_2019_Jun_13_0920_120,-1,False,2019_Jun_13_0920,Yes-No Task,,JOSU26,
Yes-No Task,45,0,45,0,7.6,-1,Correct Rejection,0.467806457542,False,-1,stimulus_JOSU26_Yes-No Task_2019_Jun_13_0920_121,-1,False,2019_Jun_13_0920,Yes-No Task,,JOSU26,
Yes-No Task,46,0,46,0,7.6,-1,Hit,0.535916802939,True,-1,stimulus_JOSU26_Yes-No Task_2019_Jun_13_0920_122,-1,False,2019_Jun_13_0920,Yes-No Task,,JOSU26,
Yes-No Task,47,0,47,0,7.6,-1,Hit,0.534044293221,True,-1,stimulus_JOSU26_Yes-No Task_2019_Jun_13_0920_123,-1,False,2019_Jun_13_0920,Yes-No Task,,JOSU26,
Yes-No Task,48,0,48,0,7.6,-1,Hit,0.532512538135,True,-1,stimulus_JOSU26_Yes-No Task_2019_Jun_13_0920_124,-1,False,2019_Jun_13_0920,Yes-No Task,,JOSU26,
Yes-No Task,49,0,49,0,7.6,-1,Correct Rejection,0.52728297608,False,-1,stimulus_JOSU26_Yes-No Task_2019_Jun_13_0920_125,-1,False,2019_Jun_13_0920,Yes-No Task,,JOSU26,
Yes-No Task,50,0,50,0,7.6,-1,Hit,0.605597084854,True,-1,stimulus_JOSU26_Yes-No Task_2019_Jun_13_0920_126,-1,False,2019_Jun_13_0920,Yes-No Task,,JOSU26,
Yes-No Task,51,0,51,0,7.6,-1,Hit,0.499918301124,True,-1,stimulus_JOSU26_Yes-No Task_2019_Jun_13_0920_127,-1,False,2019_Jun_13_0920,Yes-No Task,,JOSU26,
Yes-No Task,52,0,52,0,7.6,-1,Hit,0.433641463518,True,-1,stimulus_JOSU26_Yes-No Task_2019_Jun_13_0920_128,-1,False,2019_Jun_13_0920,Yes-No Task,,JOSU26,
Yes-No Task,53,0,53,0,7.6,-1,Hit,0.464368938003,True,-1,stimulus_JOSU26_Yes-No Task_2019_Jun_13_0920_129,-1,False,2019_Jun_13_0920,Yes-No Task,,JOSU26,
Yes-No Task,54,0,54,0,7.6,-1,False Alarm,0.495578807313,False,-1,stimulus_JOSU26_Yes-No Task_2019_Jun_13_0920_130,-1,False,2019_Jun_13_0920,Yes-No Task,,JOSU26,
Yes-No Task,55,0,55,0,7.6,-1,Hit,0.535507486667,True,-1,stimulus_JOSU26_Yes-No Task_2019_Jun_13_0920_131,-1,False,2019_Jun_13_0920,Yes-No Task,,JOSU26,
Yes-No Task,56,0,56,0,7.6,-1,Correct Rejection,0.50562492013,False,-1,stimulus_JOSU26_Yes-No Task_2019_Jun_13_0920_132,-1,False,2019_Jun_13_0920,Yes-No Task,,JOSU26,
Yes-No Task,57,0,57,0,7.6,-1,Hit,0.532713706605,True,-1,stimulus_JOSU26_Yes-No Task_2019_Jun_13_0920_133,-1,False,2019_Jun_13_0920,Yes-No Task,,JOSU26,
Yes-No Task,58,0,58,0,7.6,-1,Hit,0.669687343296,True,-1,stimulus_JOSU26_Yes-No Task_2019_Jun_13_0920_134,-1,False,2019_Jun_13_0920,Yes-No Task,,JOSU26,
Yes-No Task,59,0,59,0,7.6,-1,Hit,0.526254552882,True,-1,stimulus_JOSU26_Yes-No Task_2019_Jun_13_0920_135,-1,False,2019_Jun_13_0920,Yes-No Task,,JOSU26,
Yes-No Task,60,0,60,0,7.6,-1,Correct Rejection,0.533868989442,False,-1,stimulus_JOSU26_Yes-No Task_2019_Jun_13_0920_136,-1,False,2019_Jun_13_0920,Yes-No Task,,JOSU26,
Yes-No Task,61,0,61,0,7.6,-1,Correct Rejection,0.536113455892,False,-1,stimulus_JOSU26_Yes-No Task_2019_Jun_13_0920_137,-1,False,2019_Jun_13_0920,Yes-No Task,,JOSU26,
Yes-No Task,62,0,62,0,7.6,-1,Hit,0.500925375149,True,-1,stimulus_JOSU26_Yes-No Task_2019_Jun_13_0920_138,-1,False,2019_Jun_13_0920,Yes-No Task,,JOSU26,
Yes-No Task,63,0,63,0,7.6,-1,False Alarm,0.366408048663,False,-1,stimulus_JOSU26_Yes-No Task_2019_Jun_13_0920_139,-1,False,2019_Jun_13_0920,Yes-No Task,,JOSU26,
Yes-No Task,64,0,64,0,7.6,-1,Hit,0.531551445369,True,-1,stimulus_JOSU26_Yes-No Task_2019_Jun_13_0920_140,-1,False,2019_Jun_13_0920,Yes-No Task,,JOSU26,
Yes-No Task,65,0,65,0,7.6,-1,Hit,0.49384424137,True,-1,stimulus_JOSU26_Yes-No Task_2019_Jun_13_0920_141,-1,False,2019_Jun_13_0920,Yes-No Task,,JOSU26,
Yes-No Task,66,0,66,0,7.6,-1,Hit,0.437484604307,True,-1,stimulus_JOSU26_Yes-No Task_2019_Jun_13_0920_142,-1,False,2019_Jun_13_0920,Yes-No Task,,JOSU26,
Yes-No Task,67,0,67,0,7.6,-1,Correct Rejection,0.497432021424,False,-1,stimulus_JOSU26_Yes-No Task_2019_Jun_13_0920_143,-1,False,2019_Jun_13_0920,Yes-No Task,,JOSU26,
Yes-No Task,68,0,68,0,7.6,-1,Miss,0.50911704218,True,-1,stimulus_JOSU26_Yes-No Task_2019_Jun_13_0920_144,-1,False,2019_Jun_13_0920,Yes-No Task,,JOSU26,
Yes-No Task,69,0,69,0,7.6,-1,False Alarm,0.699876178522,False,-1,stimulus_JOSU26_Yes-No Task_2019_Jun_13_0920_145,-1,False,2019_Jun_13_0920,Yes-No Task,,JOSU26,
Yes-No Task,70,0,70,0,7.6,-1,Correct Rejection,0.565676616039,False,-1,stimulus_JOSU26_Yes-No Task_2019_Jun_13_0920_146,-1,False,2019_Jun_13_0920,Yes-No Task,,JOSU26,
Yes-No Task,71,0,71,0,7.6,-1,Correct Rejection,0.466269365512,False,-1,stimulus_JOSU26_Yes-No Task_2019_Jun_13_0920_147,-1,False,2019_Jun_13_0920,Yes-No Task,,JOSU26,
Yes-No Task,72,0,72,0,7.6,-1,Correct Rejection,0.470290684607,False,-1,stimulus_JOSU26_Yes-No Task_2019_Jun_13_0920_148,-1,False,2019_Jun_13_0920,Yes-No Task,,JOSU26,
Yes-No Task,73,0,73,0,7.6,-1,Correct Rejection,0.534701990895,False,-1,stimulus_JOSU26_Yes-No Task_2019_Jun_13_0920_149,-1,False,2019_Jun_13_0920,Yes-No Task,,JOSU26,
Yes-No Task,74,0,74,0,7.6,-1,Correct Rejection,0.46902783867,False,-1,stimulus_JOSU26_Yes-No Task_2019_Jun_13_0920_150,-1,False,2019_Jun_13_0920,Yes-No Task,,JOSU26,
Yes-No Task,0,0,0,0,4,-1,Correct Rejection,0.600984165911,False,-1,stimulus_JOSU26_Yes-No Task_2019_Jun_13_0920_151,-1,False,2019_Jun_13_0920,Yes-No Task,,JOSU26,
Yes-No Task,1,0,1,0,4,-1,Correct Rejection,0.76802265225,False,-1,stimulus_JOSU26_Yes-No Task_2019_Jun_13_0920_152,-1,False,2019_Jun_13_0920,Yes-No Task,,JOSU26,
Yes-No Task,2,0,2,0,4,-1,Hit,0.603193735704,True,-1,stimulus_JOSU26_Yes-No Task_2019_Jun_13_0920_153,-1,False,2019_Jun_13_0920,Yes-No Task,,JOSU26,
Yes-No Task,3,0,3,0,4,-1,Hit,0.635897589382,True,-1,stimulus_JOSU26_Yes-No Task_2019_Jun_13_0920_154,-1,False,2019_Jun_13_0920,Yes-No Task,,JOSU26,
Yes-No Task,4,0,4,0,4,-1,Correct Rejection,0.533123844303,False,-1,stimulus_JOSU26_Yes-No Task_2019_Jun_13_0920_155,-1,False,2019_Jun_13_0920,Yes-No Task,,JOSU26,
Yes-No Task,5,0,5,0,4,-1,Hit,0.568049173802,True,-1,stimulus_JOSU26_Yes-No Task_2019_Jun_13_0920_156,-1,False,2019_Jun_13_0920,Yes-No Task,,JOSU26,
Yes-No Task,6,0,6,0,4,-1,Hit,0.599615398329,True,-1,stimulus_JOSU26_Yes-No Task_2019_Jun_13_0920_157,-1,False,2019_Jun_13_0920,Yes-No Task,,JOSU26,
Yes-No Task,7,0,7,0,4,-1,Correct Rejection,0.593288441189,False,-1,stimulus_JOSU26_Yes-No Task_2019_Jun_13_0920_158,-1,False,2019_Jun_13_0920,Yes-No Task,,JOSU26,
Yes-No Task,8,0,8,0,4,-1,Hit,0.625530018006,True,-1,stimulus_JOSU26_Yes-No Task_2019_Jun_13_0920_159,-1,False,2019_Jun_13_0920,Yes-No Task,,JOSU26,
Yes-No Task,9,0,9,0,4,-1,Hit,0.501968167722,True,-1,stimulus_JOSU26_Yes-No Task_2019_Jun_13_0920_160,-1,False,2019_Jun_13_0920,Yes-No Task,,JOSU26,
Yes-No Task,10,0,10,0,4,-1,Hit,0.533912096638,True,-1,stimulus_JOSU26_Yes-No Task_2019_Jun_13_0920_161,-1,False,2019_Jun_13_0920,Yes-No Task,,JOSU26,
Yes-No Task,11,0,11,0,4,-1,Hit,0.602192819584,True,-1,stimulus_JOSU26_Yes-No Task_2019_Jun_13_0920_162,-1,False,2019_Jun_13_0920,Yes-No Task,,JOSU26,
Yes-No Task,12,0,12,0,4,-1,Correct Rejection,0.835270025767,False,-1,stimulus_JOSU26_Yes-No Task_2019_Jun_13_0920_163,-1,False,2019_Jun_13_0920,Yes-No Task,,JOSU26,
Yes-No Task,13,0,13,0,4,-1,Hit,0.834554440342,True,-1,stimulus_JOSU26_Yes-No Task_2019_Jun_13_0920_164,-1,False,2019_Jun_13_0920,Yes-No Task,,JOSU26,
Yes-No Task,14,0,14,0,4,-1,Hit,0.865920317825,True,-1,stimulus_JOSU26_Yes-No Task_2019_Jun_13_0920_165,-1,False,2019_Jun_13_0920,Yes-No Task,,JOSU26,
Yes-No Task,15,0,15,0,4,-1,Hit,0.82556630997,True,-1,stimulus_JOSU26_Yes-No Task_2019_Jun_13_0920_166,-1,False,2019_Jun_13_0920,Yes-No Task,,JOSU26,
Yes-No Task,16,0,16,0,4,-1,False Alarm,0.602351291105,False,-1,stimulus_JOSU26_Yes-No Task_2019_Jun_13_0920_167,-1,False,2019_Jun_13_0920,Yes-No Task,,JOSU26,
Yes-No Task,17,0,17,0,4,-1,Hit,0.567593054846,True,-1,stimulus_JOSU26_Yes-No Task_2019_Jun_13_0920_168,-1,False,2019_Jun_13_0920,Yes-No Task,,JOSU26,
Yes-No Task,18,0,18,0,4,-1,False Alarm,0.764984185342,False,-1,stimulus_JOSU26_Yes-No Task_2019_Jun_13_0920_169,-1,False,2019_Jun_13_0920,Yes-No Task,,JOSU26,
Yes-No Task,19,0,19,0,4,-1,Hit,0.734340873547,True,-1,stimulus_JOSU26_Yes-No Task_2019_Jun_13_0920_170,-1,False,2019_Jun_13_0920,Yes-No Task,,JOSU26,
Yes-No Task,20,0,20,0,4,-1,Miss,0.557670517359,True,-1,stimulus_JOSU26_Yes-No Task_2019_Jun_13_0920_171,-1,False,2019_Jun_13_0920,Yes-No Task,,JOSU26,
Yes-No Task,21,0,21,0,4,-1,No Answer,-1,False,-1,stimulus_JOSU26_Yes-No Task_2019_Jun_13_0920_172,-1,False,2019_Jun_13_0920,Yes-No Task,,JOSU26,
Yes-No Task,22,0,22,0,4,-1,Correct Rejection,0.666059329174,False,-1,stimulus_JOSU26_Yes-No Task_2019_Jun_13_0920_173,-1,False,2019_Jun_13_0920,Yes-No Task,,JOSU26,
Yes-No Task,23,0,23,0,4,-1,Hit,0.636530244257,True,-1,stimulus_JOSU26_Yes-No Task_2019_Jun_13_0920_174,-1,False,2019_Jun_13_0920,Yes-No Task,,JOSU26,
Yes-No Task,24,0,24,0,4,-1,Correct Rejection,0.569747611415,False,-1,stimulus_JOSU26_Yes-No Task_2019_Jun_13_0920_175,-1,False,2019_Jun_13_0920,Yes-No Task,,JOSU26,
Yes-No Task,25,0,25,0,4,-1,Correct Rejection,0.771005284507,False,-1,stimulus_JOSU26_Yes-No Task_2019_Jun_13_0920_176,-1,False,2019_Jun_13_0920,Yes-No Task,,JOSU26,
Yes-No Task,26,0,26,0,4,-1,No Answer,-1,True,-1,stimulus_JOSU26_Yes-No Task_2019_Jun_13_0920_177,-1,False,2019_Jun_13_0920,Yes-No Task,,JOSU26,
Yes-No Task,27,0,27,0,4,-1,Miss,0.668984895106,True,-1,stimulus_JOSU26_Yes-No Task_2019_Jun_13_0920_178,-1,False,2019_Jun_13_0920,Yes-No Task,,JOSU26,
Yes-No Task,28,0,28,0,4,-1,Miss,0.633542275056,True,-1,stimulus_JOSU26_Yes-No Task_2019_Jun_13_0920_179,-1,False,2019_Jun_13_0920,Yes-No Task,,JOSU26,
Yes-No Task,29,0,29,0,4,-1,Miss,0.700169720687,True,-1,stimulus_JOSU26_Yes-No Task_2019_Jun_13_0920_180,-1,False,2019_Jun_13_0920,Yes-No Task,,JOSU26,
Yes-No Task,30,0,30,0,4,-1,Miss,0.634904063307,True,-1,stimulus_JOSU26_Yes-No Task_2019_Jun_13_0920_181,-1,False,2019_Jun_13_0920,Yes-No Task,,JOSU26,
Yes-No Task,31,0,31,0,4,-1,Miss,0.669060436077,True,-1,stimulus_JOSU26_Yes-No Task_2019_Jun_13_0920_182,-1,False,2019_Jun_13_0920,Yes-No Task,,JOSU26,
Yes-No Task,32,0,32,0,4,-1,Correct Rejection,0.533623070922,False,-1,stimulus_JOSU26_Yes-No Task_2019_Jun_13_0920_183,-1,False,2019_Jun_13_0920,Yes-No Task,,JOSU26,
Yes-No Task,33,0,33,0,4,-1,Correct Rejection,0.565130176488,False,-1,stimulus_JOSU26_Yes-No Task_2019_Jun_13_0920_184,-1,False,2019_Jun_13_0920,Yes-No Task,,JOSU26,
Yes-No Task,34,0,34,0,4,-1,Miss,0.602617736906,True,-1,stimulus_JOSU26_Yes-No Task_2019_Jun_13_0920_185,-1,False,2019_Jun_13_0920,Yes-No Task,,JOSU26,
Yes-No Task,35,0,35,0,4,-1,Miss,0.736186697613,True,-1,stimulus_JOSU26_Yes-No Task_2019_Jun_13_0920_186,-1,False,2019_Jun_13_0920,Yes-No Task,,JOSU26,
Yes-No Task,36,0,36,0,4,-1,Correct Rejection,0.805004007183,False,-1,stimulus_JOSU26_Yes-No Task_2019_Jun_13_0920_187,-1,False,2019_Jun_13_0920,Yes-No Task,,JOSU26,
Yes-No Task,37,0,37,0,4,-1,Hit,0.4668330485,True,-1,stimulus_JOSU26_Yes-No Task_2019_Jun_13_0920_188,-1,False,2019_Jun_13_0920,Yes-No Task,,JOSU26,
Yes-No Task,38,0,38,0,4,-1,Correct Rejection,0.633987719659,False,-1,stimulus_JOSU26_Yes-No Task_2019_Jun_13_0920_189,-1,False,2019_Jun_13_0920,Yes-No Task,,JOSU26,
Yes-No Task,39,0,39,0,4,-1,Hit,0.535535403993,True,-1,stimulus_JOSU26_Yes-No Task_2019_Jun_13_0920_190,-1,False,2019_Jun_13_0920,Yes-No Task,,JOSU26,
Yes-No Task,40,0,40,0,4,-1,False Alarm,0.55751368776,False,-1,stimulus_JOSU26_Yes-No Task_2019_Jun_13_0920_191,-1,False,2019_Jun_13_0920,Yes-No Task,,JOSU26,
Yes-No Task,41,0,41,0,4,-1,Correct Rejection,0.636067556683,False,-1,stimulus_JOSU26_Yes-No Task_2019_Jun_13_0920_192,-1,False,2019_Jun_13_0920,Yes-No Task,,JOSU26,
Yes-No Task,42,0,42,0,4,-1,False Alarm,0.525374337565,False,-1,stimulus_JOSU26_Yes-No Task_2019_Jun_13_0920_193,-1,False,2019_Jun_13_0920,Yes-No Task,,JOSU26,
Yes-No Task,43,0,43,0,4,-1,Hit,0.528785992879,True,-1,stimulus_JOSU26_Yes-No Task_2019_Jun_13_0920_194,-1,False,2019_Jun_13_0920,Yes-No Task,,JOSU26,
Yes-No Task,44,0,44,0,4,-1,Hit,0.534960636403,True,-1,stimulus_JOSU26_Yes-No Task_2019_Jun_13_0920_195,-1,False,2019_Jun_13_0920,Yes-No Task,,JOSU26,
Yes-No Task,45,0,45,0,4,-1,Hit,0.704019019846,True,-1,stimulus_JOSU26_Yes-No Task_2019_Jun_13_0920_196,-1,False,2019_Jun_13_0920,Yes-No Task,,JOSU26,
Yes-No Task,46,0,46,0,4,-1,Correct Rejection,0.601868897211,False,-1,stimulus_JOSU26_Yes-No Task_2019_Jun_13_0920_197,-1,False,2019_Jun_13_0920,Yes-No Task,,JOSU26,
Yes-No Task,47,0,47,0,4,-1,Hit,0.634333401453,True,-1,stimulus_JOSU26_Yes-No Task_2019_Jun_13_0920_198,-1,False,2019_Jun_13_0920,Yes-No Task,,JOSU26,
Yes-No Task,48,0,48,0,4,-1,Hit,0.663814451545,True,-1,stimulus_JOSU26_Yes-No Task_2019_Jun_13_0920_199,-1,False,2019_Jun_13_0920,Yes-No Task,,JOSU26,
Yes-No Task,49,0,49,0,4,-1,Hit,0.661287117749,True,-1,stimulus_JOSU26_Yes-No Task_2019_Jun_13_0920_200,-1,False,2019_Jun_13_0920,Yes-No Task,,JOSU26,
Yes-No Task,50,0,50,0,4,-1,Hit,0.533244956285,True,-1,stimulus_JOSU26_Yes-No Task_2019_Jun_13_0920_201,-1,False,2019_Jun_13_0920,Yes-No Task,,JOSU26,
Yes-No Task,51,0,51,0,4,-1,Hit,0.834593852982,True,-1,stimulus_JOSU26_Yes-No Task_2019_Jun_13_0920_202,-1,False,2019_Jun_13_0920,Yes-No Task,,JOSU26,
Yes-No Task,52,0,52,0,4,-1,False Alarm,0.599599387497,False,-1,stimulus_JOSU26_Yes-No Task_2019_Jun_13_0920_203,-1,False,2019_Jun_13_0920,Yes-No Task,,JOSU26,
Yes-No Task,53,0,53,0,4,-1,Hit,0.642205251381,True,-1,stimulus_JOSU26_Yes-No Task_2019_Jun_13_0920_204,-1,False,2019_Jun_13_0920,Yes-No Task,,JOSU26,
Yes-No Task,54,0,54,0,4,-1,Correct Rejection,0.70219372306,False,-1,stimulus_JOSU26_Yes-No Task_2019_Jun_13_0920_205,-1,False,2019_Jun_13_0920,Yes-No Task,,JOSU26,
Yes-No Task,55,0,55,0,4,-1,Hit,0.657973583788,True,-1,stimulus_JOSU26_Yes-No Task_2019_Jun_13_0920_206,-1,False,2019_Jun_13_0920,Yes-No Task,,JOSU26,
Yes-No Task,56,0,56,0,4,-1,Correct Rejection,0.605251403525,False,-1,stimulus_JOSU26_Yes-No Task_2019_Jun_13_0920_207,-1,False,2019_Jun_13_0920,Yes-No Task,,JOSU26,
Yes-No Task,57,0,57,0,4,-1,Correct Rejection,0.568021256477,False,-1,stimulus_JOSU26_Yes-No Task_2019_Jun_13_0920_208,-1,False,2019_Jun_13_0920,Yes-No Task,,JOSU26,
Yes-No Task,58,0,58,0,4,-1,Correct Rejection,0.602178861387,False,-1,stimulus_JOSU26_Yes-No Task_2019_Jun_13_0920_209,-1,False,2019_Jun_13_0920,Yes-No Task,,JOSU26,
Yes-No Task,59,0,59,0,4,-1,Correct Rejection,0.731873479206,False,-1,stimulus_JOSU26_Yes-No Task_2019_Jun_13_0920_210,-1,False,2019_Jun_13_0920,Yes-No Task,,JOSU26,
Yes-No Task,60,0,60,0,4,-1,False Alarm,0.598400586285,False,-1,stimulus_JOSU26_Yes-No Task_2019_Jun_13_0920_211,-1,False,2019_Jun_13_0920,Yes-No Task,,JOSU26,
Yes-No Task,61,0,61,0,4,-1,Correct Rejection,0.560117383953,False,-1,stimulus_JOSU26_Yes-No Task_2019_Jun_13_0920_212,-1,False,2019_Jun_13_0920,Yes-No Task,,JOSU26,
Yes-No Task,62,0,62,0,4,-1,Correct Rejection,0.724499213509,False,-1,stimulus_JOSU26_Yes-No Task_2019_Jun_13_0920_213,-1,False,2019_Jun_13_0920,Yes-No Task,,JOSU26,
Yes-No Task,63,0,63,0,4,-1,Correct Rejection,0.593951886985,False,-1,stimulus_JOSU26_Yes-No Task_2019_Jun_13_0920_214,-1,False,2019_Jun_13_0920,Yes-No Task,,JOSU26,
Yes-No Task,64,0,64,0,4,-1,Hit,0.592404942028,True,-1,stimulus_JOSU26_Yes-No Task_2019_Jun_13_0920_215,-1,False,2019_Jun_13_0920,Yes-No Task,,JOSU26,
Yes-No Task,65,0,65,0,4,-1,Hit,0.600993197877,True,-1,stimulus_JOSU26_Yes-No Task_2019_Jun_13_0920_216,-1,False,2019_Jun_13_0920,Yes-No Task,,JOSU26,
Yes-No Task,66,0,66,0,4,-1,Hit,0.536802765913,True,-1,stimulus_JOSU26_Yes-No Task_2019_Jun_13_0920_217,-1,False,2019_Jun_13_0920,Yes-No Task,,JOSU26,
Yes-No Task,67,0,67,0,4,-1,Correct Rejection,0.77014067024,False,-1,stimulus_JOSU26_Yes-No Task_2019_Jun_13_0920_218,-1,False,2019_Jun_13_0920,Yes-No Task,,JOSU26,
Yes-No Task,68,0,68,0,4,-1,Hit,0.5761221922,True,-1,stimulus_JOSU26_Yes-No Task_2019_Jun_13_0920_219,-1,False,2019_Jun_13_0920,Yes-No Task,,JOSU26,
Yes-No Task,69,0,69,0,4,-1,Hit,0.668958620168,True,-1,stimulus_JOSU26_Yes-No Task_2019_Jun_13_0920_220,-1,False,2019_Jun_13_0920,Yes-No Task,,JOSU26,
Yes-No Task,70,0,70,0,4,-1,Hit,0.573159266263,True,-1,stimulus_JOSU26_Yes-No Task_2019_Jun_13_0920_221,-1,False,2019_Jun_13_0920,Yes-No Task,,JOSU26,
Yes-No Task,71,0,71,0,4,-1,Hit,0.566275605932,True,-1,stimulus_JOSU26_Yes-No Task_2019_Jun_13_0920_222,-1,False,2019_Jun_13_0920,Yes-No Task,,JOSU26,
Yes-No Task,72,0,72,0,4,-1,Hit,0.563152566087,True,-1,stimulus_JOSU26_Yes-No Task_2019_Jun_13_0920_223,-1,False,2019_Jun_13_0920,Yes-No Task,,JOSU26,
Yes-No Task,73,0,73,0,4,-1,Correct Rejection,0.702341520227,False,-1,stimulus_JOSU26_Yes-No Task_2019_Jun_13_0920_224,-1,False,2019_Jun_13_0920,Yes-No Task,,JOSU26,
Yes-No Task,74,0,74,0,4,-1,Hit,0.725089992397,True,-1,stimulus_JOSU26_Yes-No Task_2019_Jun_13_0920_225,-1,False,2019_Jun_13_0920,Yes-No Task,,JOSU26,
Yes-No Task,0,0,0,0,3,-1,Correct Rejection,0.568664174993,False,-1,stimulus_JOSU26_Yes-No Task_2019_Jun_13_0920_226,-1,False,2019_Jun_13_0920,Yes-No Task,,JOSU26,
Yes-No Task,1,0,1,0,3,-1,Hit,0.5994265466,True,-1,stimulus_JOSU26_Yes-No Task_2019_Jun_13_0920_227,-1,False,2019_Jun_13_0920,Yes-No Task,,JOSU26,
Yes-No Task,2,0,2,0,3,-1,Correct Rejection,0.701838598587,False,-1,stimulus_JOSU26_Yes-No Task_2019_Jun_13_0920_228,-1,False,2019_Jun_13_0920,Yes-No Task,,JOSU26,
Yes-No Task,3,0,3,0,3,-1,Correct Rejection,0.601417704951,False,-1,stimulus_JOSU26_Yes-No Task_2019_Jun_13_0920_229,-1,False,2019_Jun_13_0920,Yes-No Task,,JOSU26,
Yes-No Task,4,0,4,0,3,-1,Correct Rejection,0.569987782277,False,-1,stimulus_JOSU26_Yes-No Task_2019_Jun_13_0920_230,-1,False,2019_Jun_13_0920,Yes-No Task,,JOSU26,
Yes-No Task,5,0,5,0,3,-1,Miss,0.66872994462,True,-1,stimulus_JOSU26_Yes-No Task_2019_Jun_13_0920_231,-1,False,2019_Jun_13_0920,Yes-No Task,,JOSU26,
Yes-No Task,6,0,6,0,3,-1,Correct Rejection,0.729265266564,False,-1,stimulus_JOSU26_Yes-No Task_2019_Jun_13_0920_232,-1,False,2019_Jun_13_0920,Yes-No Task,,JOSU26,
Yes-No Task,7,0,7,0,3,-1,Correct Rejection,0.664881466422,False,-1,stimulus_JOSU26_Yes-No Task_2019_Jun_13_0920_233,-1,False,2019_Jun_13_0920,Yes-No Task,,JOSU26,
Yes-No Task,8,0,8,0,3,-1,Hit,0.566208275966,True,-1,stimulus_JOSU26_Yes-No Task_2019_Jun_13_0920_234,-1,False,2019_Jun_13_0920,Yes-No Task,,JOSU26,
Yes-No Task,9,0,9,0,3,-1,False Alarm,0.790937396232,False,-1,stimulus_JOSU26_Yes-No Task_2019_Jun_13_0920_235,-1,False,2019_Jun_13_0920,Yes-No Task,,JOSU26,
Yes-No Task,10,0,10,0,3,-1,False Alarm,0.802571098786,False,-1,stimulus_JOSU26_Yes-No Task_2019_Jun_13_0920_236,-1,False,2019_Jun_13_0920,Yes-No Task,,JOSU26,
Yes-No Task,11,0,11,0,3,-1,Hit,0.595014385413,True,-1,stimulus_JOSU26_Yes-No Task_2019_Jun_13_0920_237,-1,False,2019_Jun_13_0920,Yes-No Task,,JOSU26,
Yes-No Task,12,0,12,0,3,-1,Miss,0.868272347841,True,-1,stimulus_JOSU26_Yes-No Task_2019_Jun_13_0920_238,-1,False,2019_Jun_13_0920,Yes-No Task,,JOSU26,
Yes-No Task,13,0,13,0,3,-1,False Alarm,0.792232675944,False,-1,stimulus_JOSU26_Yes-No Task_2019_Jun_13_0920_239,-1,False,2019_Jun_13_0920,Yes-No Task,,JOSU26,
Yes-No Task,14,0,14,0,3,-1,Correct Rejection,0.803764562123,False,-1,stimulus_JOSU26_Yes-No Task_2019_Jun_13_0920_240,-1,False,2019_Jun_13_0920,Yes-No Task,,JOSU26,
Yes-No Task,15,0,15,0,3,-1,No Answer,-1,False,-1,stimulus_JOSU26_Yes-No Task_2019_Jun_13_0920_241,-1,False,2019_Jun_13_0920,Yes-No Task,,JOSU26,
Yes-No Task,16,0,16,0,3,-1,No Answer,-1,True,-1,stimulus_JOSU26_Yes-No Task_2019_Jun_13_0920_242,-1,False,2019_Jun_13_0920,Yes-No Task,,JOSU26,
Yes-No Task,17,0,17,0,3,-1,Correct Rejection,0.633003225084,False,-1,stimulus_JOSU26_Yes-No Task_2019_Jun_13_0920_243,-1,False,2019_Jun_13_0920,Yes-No Task,,JOSU26,
Yes-No Task,18,0,18,0,3,-1,Miss,0.559822199866,True,-1,stimulus_JOSU26_Yes-No Task_2019_Jun_13_0920_244,-1,False,2019_Jun_13_0920,Yes-No Task,,JOSU26,
Yes-No Task,19,0,19,0,3,-1,Correct Rejection,0.757765107322,False,-1,stimulus_JOSU26_Yes-No Task_2019_Jun_13_0920_245,-1,False,2019_Jun_13_0920,Yes-No Task,,JOSU26,
Yes-No Task,20,0,20,0,3,-1,Miss,0.79277172545,True,-1,stimulus_JOSU26_Yes-No Task_2019_Jun_13_0920_246,-1,False,2019_Jun_13_0920,Yes-No Task,,JOSU26,
Yes-No Task,21,0,21,0,3,-1,Hit,0.700168489013,True,-1,stimulus_JOSU26_Yes-No Task_2019_Jun_13_0920_247,-1,False,2019_Jun_13_0920,Yes-No Task,,JOSU26,
Yes-No Task,22,0,22,0,3,-1,No Answer,-1,False,-1,stimulus_JOSU26_Yes-No Task_2019_Jun_13_0920_248,-1,False,2019_Jun_13_0920,Yes-No Task,,JOSU26,
Yes-No Task,23,0,23,0,3,-1,Miss,0.736938410904,True,-1,stimulus_JOSU26_Yes-No Task_2019_Jun_13_0920_249,-1,False,2019_Jun_13_0920,Yes-No Task,,JOSU26,
Yes-No Task,24,0,24,0,3,-1,Correct Rejection,0.768313731067,False,-1,stimulus_JOSU26_Yes-No Task_2019_Jun_13_0920_250,-1,False,2019_Jun_13_0920,Yes-No Task,,JOSU26,
Yes-No Task,25,0,25,0,3,-1,Hit,0.673331778962,True,-1,stimulus_JOSU26_Yes-No Task_2019_Jun_13_0920_251,-1,False,2019_Jun_13_0920,Yes-No Task,,JOSU26,
Yes-No Task,26,0,26,0,3,-1,Hit,0.534651493654,True,-1,stimulus_JOSU26_Yes-No Task_2019_Jun_13_0920_252,-1,False,2019_Jun_13_0920,Yes-No Task,,JOSU26,
Yes-No Task,27,0,27,0,3,-1,Correct Rejection,0.63506089244,False,-1,stimulus_JOSU26_Yes-No Task_2019_Jun_13_0920_253,-1,False,2019_Jun_13_0920,Yes-No Task,,JOSU26,
Yes-No Task,28,0,28,0,3,-1,Hit,0.799376623705,True,-1,stimulus_JOSU26_Yes-No Task_2019_Jun_13_0920_254,-1,False,2019_Jun_13_0920,Yes-No Task,,JOSU26,
Yes-No Task,29,0,29,0,3,-1,No Answer,-1,False,-1,stimulus_JOSU26_Yes-No Task_2019_Jun_13_0920_255,-1,False,2019_Jun_13_0920,Yes-No Task,,JOSU26,
Yes-No Task,30,0,30,0,3,-1,Miss,0.626744008623,True,-1,stimulus_JOSU26_Yes-No Task_2019_Jun_13_0920_256,-1,False,2019_Jun_13_0920,Yes-No Task,,JOSU26,
Yes-No Task,31,0,31,0,3,-1,Miss,0.602422726806,True,-1,stimulus_JOSU26_Yes-No Task_2019_Jun_13_0920_257,-1,False,2019_Jun_13_0920,Yes-No Task,,JOSU26,
Yes-No Task,32,0,32,0,3,-1,Correct Rejection,0.777198403142,False,-1,stimulus_JOSU26_Yes-No Task_2019_Jun_13_0920_258,-1,False,2019_Jun_13_0920,Yes-No Task,,JOSU26,
Yes-No Task,33,0,33,0,3,-1,Hit,0.636387784034,True,-1,stimulus_JOSU26_Yes-No Task_2019_Jun_13_0920_259,-1,False,2019_Jun_13_0920,Yes-No Task,,JOSU26,
Yes-No Task,34,0,34,0,3,-1,Hit,0.671889112331,True,-1,stimulus_JOSU26_Yes-No Task_2019_Jun_13_0920_260,-1,False,2019_Jun_13_0920,Yes-No Task,,JOSU26,
Yes-No Task,35,0,35,0,3,-1,Correct Rejection,0.634106367826,False,-1,stimulus_JOSU26_Yes-No Task_2019_Jun_13_0920_261,-1,False,2019_Jun_13_0920,Yes-No Task,,JOSU26,
Yes-No Task,36,0,36,0,3,-1,No Answer,-1,True,-1,stimulus_JOSU26_Yes-No Task_2019_Jun_13_0920_262,-1,False,2019_Jun_13_0920,Yes-No Task,,JOSU26,
Yes-No Task,37,0,37,0,3,-1,No Answer,-1,True,-1,stimulus_JOSU26_Yes-No Task_2019_Jun_13_0920_263,-1,False,2019_Jun_13_0920,Yes-No Task,,JOSU26,
Yes-No Task,38,0,38,0,3,-1,Correct Rejection,0.571324116085,False,-1,stimulus_JOSU26_Yes-No Task_2019_Jun_13_0920_264,-1,False,2019_Jun_13_0920,Yes-No Task,,JOSU26,
Yes-No Task,39,0,39,0,3,-1,Hit,0.499453150202,True,-1,stimulus_JOSU26_Yes-No Task_2019_Jun_13_0920_265,-1,False,2019_Jun_13_0920,Yes-No Task,,JOSU26,
Yes-No Task,40,0,40,0,3,-1,Hit,0.525093112141,True,-1,stimulus_JOSU26_Yes-No Task_2019_Jun_13_0920_266,-1,False,2019_Jun_13_0920,Yes-No Task,,JOSU26,
Yes-No Task,41,0,41,0,3,-1,Hit,0.494414082263,True,-1,stimulus_JOSU26_Yes-No Task_2019_Jun_13_0920_267,-1,False,2019_Jun_13_0920,Yes-No Task,,JOSU26,
Yes-No Task,42,0,42,0,3,-1,Hit,0.710772125982,True,-1,stimulus_JOSU26_Yes-No Task_2019_Jun_13_0920_268,-1,False,2019_Jun_13_0920,Yes-No Task,,JOSU26,
Yes-No Task,43,0,43,0,3,-1,Correct Rejection,0.63834691979,False,-1,stimulus_JOSU26_Yes-No Task_2019_Jun_13_0920_269,-1,False,2019_Jun_13_0920,Yes-No Task,,JOSU26,
Yes-No Task,44,0,44,0,3,-1,Miss,0.571725632064,True,-1,stimulus_JOSU26_Yes-No Task_2019_Jun_13_0920_270,-1,False,2019_Jun_13_0920,Yes-No Task,,JOSU26,
Yes-No Task,45,0,45,0,3,-1,Hit,0.60098334495,True,-1,stimulus_JOSU26_Yes-No Task_2019_Jun_13_0920_271,-1,False,2019_Jun_13_0920,Yes-No Task,,JOSU26,
Yes-No Task,46,0,46,0,3,-1,Correct Rejection,0.825382384472,False,-1,stimulus_JOSU26_Yes-No Task_2019_Jun_13_0920_272,-1,False,2019_Jun_13_0920,Yes-No Task,,JOSU26,
Yes-No Task,47,0,47,0,3,-1,Hit,0.632645227015,True,-1,stimulus_JOSU26_Yes-No Task_2019_Jun_13_0920_273,-1,False,2019_Jun_13_0920,Yes-No Task,,JOSU26,
Yes-No Task,48,0,48,0,3,-1,Hit,0.604355176911,True,-1,stimulus_JOSU26_Yes-No Task_2019_Jun_13_0920_274,-1,False,2019_Jun_13_0920,Yes-No Task,,JOSU26,
Yes-No Task,49,0,49,0,3,-1,Hit,0.49260684941,True,-1,stimulus_JOSU26_Yes-No Task_2019_Jun_13_0920_275,-1,False,2019_Jun_13_0920,Yes-No Task,,JOSU26,
Yes-No Task,50,0,50,0,3,-1,Hit,0.668704080395,True,-1,stimulus_JOSU26_Yes-No Task_2019_Jun_13_0920_276,-1,False,2019_Jun_13_0920,Yes-No Task,,JOSU26,
Yes-No Task,51,0,51,0,3,-1,Correct Rejection,0.568384181242,False,-1,stimulus_JOSU26_Yes-No Task_2019_Jun_13_0920_277,-1,False,2019_Jun_13_0920,Yes-No Task,,JOSU26,
Yes-No Task,52,0,52,0,3,-1,Correct Rejection,0.69002918154,False,-1,stimulus_JOSU26_Yes-No Task_2019_Jun_13_0920_278,-1,False,2019_Jun_13_0920,Yes-No Task,,JOSU26,
Yes-No Task,53,0,53,0,3,-1,False Alarm,0.569261933211,False,-1,stimulus_JOSU26_Yes-No Task_2019_Jun_13_0920_279,-1,False,2019_Jun_13_0920,Yes-No Task,,JOSU26,
Yes-No Task,54,0,54,0,3,-1,Hit,0.603216726799,True,-1,stimulus_JOSU26_Yes-No Task_2019_Jun_13_0920_280,-1,False,2019_Jun_13_0920,Yes-No Task,,JOSU26,
Yes-No Task,55,0,55,0,3,-1,Miss,0.63961961912,True,-1,stimulus_JOSU26_Yes-No Task_2019_Jun_13_0920_281,-1,False,2019_Jun_13_0920,Yes-No Task,,JOSU26,
Yes-No Task,56,0,56,0,3,-1,Hit,0.600681592245,True,-1,stimulus_JOSU26_Yes-No Task_2019_Jun_13_0920_282,-1,False,2019_Jun_13_0920,Yes-No Task,,JOSU26,
Yes-No Task,57,0,57,0,3,-1,Hit,0.531691442244,True,-1,stimulus_JOSU26_Yes-No Task_2019_Jun_13_0920_283,-1,False,2019_Jun_13_0920,Yes-No Task,,JOSU26,
Yes-No Task,58,0,58,0,3,-1,Correct Rejection,0.500287383795,False,-1,stimulus_JOSU26_Yes-No Task_2019_Jun_13_0920_284,-1,False,2019_Jun_13_0920,Yes-No Task,,JOSU26,
Yes-No Task,59,0,59,0,3,-1,Hit,0.692639036104,True,-1,stimulus_JOSU26_Yes-No Task_2019_Jun_13_0920_285,-1,False,2019_Jun_13_0920,Yes-No Task,,JOSU26,
Yes-No Task,60,0,60,0,3,-1,False Alarm,0.691673016641,False,-1,stimulus_JOSU26_Yes-No Task_2019_Jun_13_0920_286,-1,False,2019_Jun_13_0920,Yes-No Task,,JOSU26,
Yes-No Task,61,0,61,0,3,-1,Hit,0.537781923544,True,-1,stimulus_JOSU26_Yes-No Task_2019_Jun_13_0920_287,-1,False,2019_Jun_13_0920,Yes-No Task,,JOSU26,
Yes-No Task,62,0,62,0,3,-1,Correct Rejection,0.668144913856,False,-1,stimulus_JOSU26_Yes-No Task_2019_Jun_13_0920_288,-1,False,2019_Jun_13_0920,Yes-No Task,,JOSU26,
Yes-No Task,63,0,63,0,3,-1,Correct Rejection,0.565971800126,False,-1,stimulus_JOSU26_Yes-No Task_2019_Jun_13_0920_289,-1,False,2019_Jun_13_0920,Yes-No Task,,JOSU26,
Yes-No Task,64,0,64,0,3,-1,Miss,0.568411277141,True,-1,stimulus_JOSU26_Yes-No Task_2019_Jun_13_0920_290,-1,False,2019_Jun_13_0920,Yes-No Task,,JOSU26,
Yes-No Task,65,0,65,0,3,-1,Hit,0.567585665267,True,-1,stimulus_JOSU26_Yes-No Task_2019_Jun_13_0920_291,-1,False,2019_Jun_13_0920,Yes-No Task,,JOSU26,
Yes-No Task,66,0,66,0,3,-1,False Alarm,0.835889132228,False,-1,stimulus_JOSU26_Yes-No Task_2019_Jun_13_0920_292,-1,False,2019_Jun_13_0920,Yes-No Task,,JOSU26,
Yes-No Task,67,0,67,0,3,-1,False Alarm,0.699803101365,False,-1,stimulus_JOSU26_Yes-No Task_2019_Jun_13_0920_293,-1,False,2019_Jun_13_0920,Yes-No Task,,JOSU26,
Yes-No Task,68,0,68,0,3,-1,Correct Rejection,0.667124290951,False,-1,stimulus_JOSU26_Yes-No Task_2019_Jun_13_0920_294,-1,False,2019_Jun_13_0920,Yes-No Task,,JOSU26,
Yes-No Task,69,0,69,0,3,-1,Hit,0.558190681506,True,-1,stimulus_JOSU26_Yes-No Task_2019_Jun_13_0920_295,-1,False,2019_Jun_13_0920,Yes-No Task,,JOSU26,
Yes-No Task,70,0,70,0,3,-1,Hit,0.770746639464,True,-1,stimulus_JOSU26_Yes-No Task_2019_Jun_13_0920_296,-1,False,2019_Jun_13_0920,Yes-No Task,,JOSU26,
Yes-No Task,71,0,71,0,3,-1,Hit,0.734247268178,True,-1,stimulus_JOSU26_Yes-No Task_2019_Jun_13_0920_297,-1,False,2019_Jun_13_0920,Yes-No Task,,JOSU26,
Yes-No Task,72,0,72,0,3,-1,Miss,0.700801554136,True,-1,stimulus_JOSU26_Yes-No Task_2019_Jun_13_0920_298,-1,False,2019_Jun_13_0920,Yes-No Task,,JOSU26,
Yes-No Task,73,0,73,0,3,-1,Miss,0.692072479986,True,-1,stimulus_JOSU26_Yes-No Task_2019_Jun_13_0920_299,-1,False,2019_Jun_13_0920,Yes-No Task,,JOSU26,
Yes-No Task,74,0,74,0,3,-1,Hit,0.567641499452,True,-1,stimulus_JOSU26_Yes-No Task_2019_Jun_13_0920_300,-1,False,2019_Jun_13_0920,Yes-No Task,,JOSU26,
Yes-No Task,0,0,0,0,5,-1,Correct Rejection,0.56779134972,False,-1,stimulus_JOSU26_Yes-No Task_2019_Jun_13_0920_301,-1,False,2019_Jun_13_0920,Yes-No Task,,JOSU26,
Yes-No Task,1,0,1,0,5,-1,Hit,0.726093371864,True,-1,stimulus_JOSU26_Yes-No Task_2019_Jun_13_0920_302,-1,False,2019_Jun_13_0920,Yes-No Task,,JOSU26,
Yes-No Task,2,0,2,0,5,-1,Hit,0.671780317556,True,-1,stimulus_JOSU26_Yes-No Task_2019_Jun_13_0920_303,-1,False,2019_Jun_13_0920,Yes-No Task,,JOSU26,
Yes-No Task,3,0,3,0,5,-1,Correct Rejection,0.601984261535,False,-1,stimulus_JOSU26_Yes-No Task_2019_Jun_13_0920_304,-1,False,2019_Jun_13_0920,Yes-No Task,,JOSU26,
Yes-No Task,4,0,4,0,5,-1,Correct Rejection,0.534095201176,False,-1,stimulus_JOSU26_Yes-No Task_2019_Jun_13_0920_305,-1,False,2019_Jun_13_0920,Yes-No Task,,JOSU26,
Yes-No Task,5,0,5,0,5,-1,Miss,0.566762926523,True,-1,stimulus_JOSU26_Yes-No Task_2019_Jun_13_0920_306,-1,False,2019_Jun_13_0920,Yes-No Task,,JOSU26,
Yes-No Task,6,0,6,0,5,-1,Correct Rejection,0.605019443203,False,-1,stimulus_JOSU26_Yes-No Task_2019_Jun_13_0920_307,-1,False,2019_Jun_13_0920,Yes-No Task,,JOSU26,
Yes-No Task,7,0,7,0,5,-1,Hit,0.575927181635,True,-1,stimulus_JOSU26_Yes-No Task_2019_Jun_13_0920_308,-1,False,2019_Jun_13_0920,Yes-No Task,,JOSU26,
Yes-No Task,8,0,8,0,5,-1,False Alarm,0.504658489488,False,-1,stimulus_JOSU26_Yes-No Task_2019_Jun_13_0920_309,-1,False,2019_Jun_13_0920,Yes-No Task,,JOSU26,
Yes-No Task,9,0,9,0,5,-1,Correct Rejection,0.822465029545,False,-1,stimulus_JOSU26_Yes-No Task_2019_Jun_13_0920_310,-1,False,2019_Jun_13_0920,Yes-No Task,,JOSU26,
Yes-No Task,10,0,10,0,5,-1,Correct Rejection,0.769248959608,False,-1,stimulus_JOSU26_Yes-No Task_2019_Jun_13_0920_311,-1,False,2019_Jun_13_0920,Yes-No Task,,JOSU26,
Yes-No Task,11,0,11,0,5,-1,Hit,0.53364934586,True,-1,stimulus_JOSU26_Yes-No Task_2019_Jun_13_0920_312,-1,False,2019_Jun_13_0920,Yes-No Task,,JOSU26,
Yes-No Task,12,0,12,0,5,-1,False Alarm,0.594297568314,False,-1,stimulus_JOSU26_Yes-No Task_2019_Jun_13_0920_313,-1,False,2019_Jun_13_0920,Yes-No Task,,JOSU26,
Yes-No Task,13,0,13,0,5,-1,Hit,0.525990981143,True,-1,stimulus_JOSU26_Yes-No Task_2019_Jun_13_0920_314,-1,False,2019_Jun_13_0920,Yes-No Task,,JOSU26,
Yes-No Task,14,0,14,0,5,-1,Correct Rejection,0.568039320409,False,-1,stimulus_JOSU26_Yes-No Task_2019_Jun_13_0920_315,-1,False,2019_Jun_13_0920,Yes-No Task,,JOSU26,
Yes-No Task,15,0,15,0,5,-1,Miss,0.700525666121,True,-1,stimulus_JOSU26_Yes-No Task_2019_Jun_13_0920_316,-1,False,2019_Jun_13_0920,Yes-No Task,,JOSU26,
Yes-No Task,16,0,16,0,5,-1,False Alarm,0.637704411987,False,-1,stimulus_JOSU26_Yes-No Task_2019_Jun_13_0920_317,-1,False,2019_Jun_13_0920,Yes-No Task,,JOSU26,
Yes-No Task,17,0,17,0,5,-1,Hit,0.605619254522,True,-1,stimulus_JOSU26_Yes-No Task_2019_Jun_13_0920_318,-1,False,2019_Jun_13_0920,Yes-No Task,,JOSU26,
Yes-No Task,18,0,18,0,5,-1,Correct Rejection,0.538065612316,False,-1,stimulus_JOSU26_Yes-No Task_2019_Jun_13_0920_319,-1,False,2019_Jun_13_0920,Yes-No Task,,JOSU26,
Yes-No Task,19,0,19,0,5,-1,Hit,0.601695645601,True,-1,stimulus_JOSU26_Yes-No Task_2019_Jun_13_0920_320,-1,False,2019_Jun_13_0920,Yes-No Task,,JOSU26,
Yes-No Task,20,0,20,0,5,-1,Hit,0.592587635387,True,-1,stimulus_JOSU26_Yes-No Task_2019_Jun_13_0920_321,-1,False,2019_Jun_13_0920,Yes-No Task,,JOSU26,
Yes-No Task,21,0,21,0,5,-1,Hit,0.605165188201,True,-1,stimulus_JOSU26_Yes-No Task_2019_Jun_13_0920_322,-1,False,2019_Jun_13_0920,Yes-No Task,,JOSU26,
Yes-No Task,22,0,22,0,5,-1,Hit,0.627108575311,True,-1,stimulus_JOSU26_Yes-No Task_2019_Jun_13_0920_323,-1,False,2019_Jun_13_0920,Yes-No Task,,JOSU26,
Yes-No Task,23,0,23,0,5,-1,Hit,0.534510676283,True,-1,stimulus_JOSU26_Yes-No Task_2019_Jun_13_0920_324,-1,False,2019_Jun_13_0920,Yes-No Task,,JOSU26,
Yes-No Task,24,0,24,0,5,-1,Correct Rejection,0.633423626423,False,-1,stimulus_JOSU26_Yes-No Task_2019_Jun_13_0920_325,-1,False,2019_Jun_13_0920,Yes-No Task,,JOSU26,
Yes-No Task,25,0,25,0,5,-1,False Alarm,0.633585382719,False,-1,stimulus_JOSU26_Yes-No Task_2019_Jun_13_0920_326,-1,False,2019_Jun_13_0920,Yes-No Task,,JOSU26,
Yes-No Task,26,0,26,0,5,-1,Hit,0.536285065114,True,-1,stimulus_JOSU26_Yes-No Task_2019_Jun_13_0920_327,-1,False,2019_Jun_13_0920,Yes-No Task,,JOSU26,
Yes-No Task,27,0,27,0,5,-1,Hit,0.601052727085,True,-1,stimulus_JOSU26_Yes-No Task_2019_Jun_13_0920_328,-1,False,2019_Jun_13_0920,Yes-No Task,,JOSU26,
Yes-No Task,28,0,28,0,5,-1,Correct Rejection,0.638572720811,False,-1,stimulus_JOSU26_Yes-No Task_2019_Jun_13_0920_329,-1,False,2019_Jun_13_0920,Yes-No Task,,JOSU26,
Yes-No Task,29,0,29,0,5,-1,Hit,0.672468806617,True,-1,stimulus_JOSU26_Yes-No Task_2019_Jun_13_0920_330,-1,False,2019_Jun_13_0920,Yes-No Task,,JOSU26,
Yes-No Task,30,0,30,0,5,-1,Hit,0.567024034914,True,-1,stimulus_JOSU26_Yes-No Task_2019_Jun_13_0920_331,-1,False,2019_Jun_13_0920,Yes-No Task,,JOSU26,
Yes-No Task,31,0,31,0,5,-1,Correct Rejection,0.665843381081,False,-1,stimulus_JOSU26_Yes-No Task_2019_Jun_13_0920_332,-1,False,2019_Jun_13_0920,Yes-No Task,,JOSU26,
Yes-No Task,32,0,32,0,5,-1,Miss,0.535099812783,True,-1,stimulus_JOSU26_Yes-No Task_2019_Jun_13_0920_333,-1,False,2019_Jun_13_0920,Yes-No Task,,JOSU26,
Yes-No Task,33,0,33,0,5,-1,Hit,0.467117557768,True,-1,stimulus_JOSU26_Yes-No Task_2019_Jun_13_0920_334,-1,False,2019_Jun_13_0920,Yes-No Task,,JOSU26,
Yes-No Task,34,0,34,0,5,-1,Hit,0.500631012488,True,-1,stimulus_JOSU26_Yes-No Task_2019_Jun_13_0920_335,-1,False,2019_Jun_13_0920,Yes-No Task,,JOSU26,
Yes-No Task,35,0,35,0,5,-1,Hit,0.725467285607,True,-1,stimulus_JOSU26_Yes-No Task_2019_Jun_13_0920_336,-1,False,2019_Jun_13_0920,Yes-No Task,,JOSU26,
Yes-No Task,36,0,36,0,5,-1,Correct Rejection,0.535829356406,False,-1,stimulus_JOSU26_Yes-No Task_2019_Jun_13_0920_337,-1,False,2019_Jun_13_0920,Yes-No Task,,JOSU26,
Yes-No Task,37,0,37,0,5,-1,Hit,0.534312792122,True,-1,stimulus_JOSU26_Yes-No Task_2019_Jun_13_0920_338,-1,False,2019_Jun_13_0920,Yes-No Task,,JOSU26,
Yes-No Task,38,0,38,0,5,-1,Hit,0.59164009057,True,-1,stimulus_JOSU26_Yes-No Task_2019_Jun_13_0920_339,-1,False,2019_Jun_13_0920,Yes-No Task,,JOSU26,
Yes-No Task,39,0,39,0,5,-1,False Alarm,0.477168597281,False,-1,stimulus_JOSU26_Yes-No Task_2019_Jun_13_0920_340,-1,False,2019_Jun_13_0920,Yes-No Task,,JOSU26,
Yes-No Task,40,0,40,0,5,-1,Hit,0.568277027924,True,-1,stimulus_JOSU26_Yes-No Task_2019_Jun_13_0920_341,-1,False,2019_Jun_13_0920,Yes-No Task,,JOSU26,
Yes-No Task,41,0,41,0,5,-1,Correct Rejection,0.508114894386,False,-1,stimulus_JOSU26_Yes-No Task_2019_Jun_13_0920_342,-1,False,2019_Jun_13_0920,Yes-No Task,,JOSU26,
Yes-No Task,42,0,42,0,5,-1,Correct Rejection,0.538574281614,False,-1,stimulus_JOSU26_Yes-No Task_2019_Jun_13_0920_343,-1,False,2019_Jun_13_0920,Yes-No Task,,JOSU26,
Yes-No Task,43,0,43,0,5,-1,Hit,0.567590591498,True,-1,stimulus_JOSU26_Yes-No Task_2019_Jun_13_0920_344,-1,False,2019_Jun_13_0920,Yes-No Task,,JOSU26,
Yes-No Task,44,0,44,0,5,-1,Correct Rejection,0.766575059853,False,-1,stimulus_JOSU26_Yes-No Task_2019_Jun_13_0920_345,-1,False,2019_Jun_13_0920,Yes-No Task,,JOSU26,
Yes-No Task,45,0,45,0,5,-1,Correct Rejection,0.592459134292,False,-1,stimulus_JOSU26_Yes-No Task_2019_Jun_13_0920_346,-1,False,2019_Jun_13_0920,Yes-No Task,,JOSU26,
Yes-No Task,46,0,46,0,5,-1,Miss,0.602004788816,True,-1,stimulus_JOSU26_Yes-No Task_2019_Jun_13_0920_347,-1,False,2019_Jun_13_0920,Yes-No Task,,JOSU26,
Yes-No Task,47,0,47,0,5,-1,Miss,0.703776386101,True,-1,stimulus_JOSU26_Yes-No Task_2019_Jun_13_0920_348,-1,False,2019_Jun_13_0920,Yes-No Task,,JOSU26,
Yes-No Task,48,0,48,0,5,-1,Hit,0.659919992089,True,-1,stimulus_JOSU26_Yes-No Task_2019_Jun_13_0920_349,-1,False,2019_Jun_13_0920,Yes-No Task,,JOSU26,
Yes-No Task,49,0,49,0,5,-1,Hit,0.567751526367,True,-1,stimulus_JOSU26_Yes-No Task_2019_Jun_13_0920_350,-1,False,2019_Jun_13_0920,Yes-No Task,,JOSU26,
Yes-No Task,50,0,50,0,5,-1,Hit,0.527831058018,True,-1,stimulus_JOSU26_Yes-No Task_2019_Jun_13_0920_351,-1,False,2019_Jun_13_0920,Yes-No Task,,JOSU26,
Yes-No Task,51,0,51,0,5,-1,Hit,0.56778108608,True,-1,stimulus_JOSU26_Yes-No Task_2019_Jun_13_0920_352,-1,False,2019_Jun_13_0920,Yes-No Task,,JOSU26,
Yes-No Task,52,0,52,0,5,-1,Correct Rejection,0.634581372607,False,-1,stimulus_JOSU26_Yes-No Task_2019_Jun_13_0920_353,-1,False,2019_Jun_13_0920,Yes-No Task,,JOSU26,
Yes-No Task,53,0,53,0,5,-1,Correct Rejection,0.704057200812,False,-1,stimulus_JOSU26_Yes-No Task_2019_Jun_13_0920_354,-1,False,2019_Jun_13_0920,Yes-No Task,,JOSU26,
Yes-No Task,54,0,54,0,5,-1,Correct Rejection,0.733142483048,False,-1,stimulus_JOSU26_Yes-No Task_2019_Jun_13_0920_355,-1,False,2019_Jun_13_0920,Yes-No Task,,JOSU26,
Yes-No Task,55,0,55,0,5,-1,Miss,0.824011153542,True,-1,stimulus_JOSU26_Yes-No Task_2019_Jun_13_0920_356,-1,False,2019_Jun_13_0920,Yes-No Task,,JOSU26,
Yes-No Task,56,0,56,0,5,-1,Hit,0.634173697792,True,-1,stimulus_JOSU26_Yes-No Task_2019_Jun_13_0920_357,-1,False,2019_Jun_13_0920,Yes-No Task,,JOSU26,
Yes-No Task,57,0,57,0,5,-1,Hit,0.533644008916,True,-1,stimulus_JOSU26_Yes-No Task_2019_Jun_13_0920_358,-1,False,2019_Jun_13_0920,Yes-No Task,,JOSU26,
Yes-No Task,58,0,58,0,5,-1,Correct Rejection,0.632928915787,False,-1,stimulus_JOSU26_Yes-No Task_2019_Jun_13_0920_359,-1,False,2019_Jun_13_0920,Yes-No Task,,JOSU26,
Yes-No Task,59,0,59,0,5,-1,Correct Rejection,0.602373871487,False,-1,stimulus_JOSU26_Yes-No Task_2019_Jun_13_0920_360,-1,False,2019_Jun_13_0920,Yes-No Task,,JOSU26,
Yes-No Task,60,0,60,0,5,-1,Correct Rejection,0.691436130088,False,-1,stimulus_JOSU26_Yes-No Task_2019_Jun_13_0920_361,-1,False,2019_Jun_13_0920,Yes-No Task,,JOSU26,
Yes-No Task,61,0,61,0,5,-1,Correct Rejection,0.533931392711,False,-1,stimulus_JOSU26_Yes-No Task_2019_Jun_13_0920_362,-1,False,2019_Jun_13_0920,Yes-No Task,,JOSU26,
Yes-No Task,62,0,62,0,5,-1,Hit,0.571448102128,True,-1,stimulus_JOSU26_Yes-No Task_2019_Jun_13_0920_363,-1,False,2019_Jun_13_0920,Yes-No Task,,JOSU26,
Yes-No Task,63,0,63,0,5,-1,Correct Rejection,0.567691586446,False,-1,stimulus_JOSU26_Yes-No Task_2019_Jun_13_0920_364,-1,False,2019_Jun_13_0920,Yes-No Task,,JOSU26,
Yes-No Task,64,0,64,0,5,-1,Correct Rejection,0.67223684676,False,-1,stimulus_JOSU26_Yes-No Task_2019_Jun_13_0920_365,-1,False,2019_Jun_13_0920,Yes-No Task,,JOSU26,
Yes-No Task,65,0,65,0,5,-1,Correct Rejection,0.632193624042,False,-1,stimulus_JOSU26_Yes-No Task_2019_Jun_13_0920_366,-1,False,2019_Jun_13_0920,Yes-No Task,,JOSU26,
Yes-No Task,66,0,66,0,5,-1,Miss,0.659321824089,True,-1,stimulus_JOSU26_Yes-No Task_2019_Jun_13_0920_367,-1,False,2019_Jun_13_0920,Yes-No Task,,JOSU26,
Yes-No Task,67,0,67,0,5,-1,Hit,0.499986451585,True,-1,stimulus_JOSU26_Yes-No Task_2019_Jun_13_0920_368,-1,False,2019_Jun_13_0920,Yes-No Task,,JOSU26,
Yes-No Task,68,0,68,0,5,-1,Correct Rejection,0.591078460682,False,-1,stimulus_JOSU26_Yes-No Task_2019_Jun_13_0920_369,-1,False,2019_Jun_13_0920,Yes-No Task,,JOSU26,
Yes-No Task,69,0,69,0,5,-1,Hit,0.533234281931,True,-1,stimulus_JOSU26_Yes-No Task_2019_Jun_13_0920_370,-1,False,2019_Jun_13_0920,Yes-No Task,,JOSU26,
Yes-No Task,70,0,70,0,5,-1,False Alarm,0.533699843101,False,-1,stimulus_JOSU26_Yes-No Task_2019_Jun_13_0920_371,-1,False,2019_Jun_13_0920,Yes-No Task,,JOSU26,
Yes-No Task,71,0,71,0,5,-1,Hit,0.498300741427,True,-1,stimulus_JOSU26_Yes-No Task_2019_Jun_13_0920_372,-1,False,2019_Jun_13_0920,Yes-No Task,,JOSU26,
Yes-No Task,72,0,72,0,5,-1,Hit,0.502636129502,True,-1,stimulus_JOSU26_Yes-No Task_2019_Jun_13_0920_373,-1,False,2019_Jun_13_0920,Yes-No Task,,JOSU26,
Yes-No Task,73,0,73,0,5,-1,Hit,0.500998042524,True,-1,stimulus_JOSU26_Yes-No Task_2019_Jun_13_0920_374,-1,False,2019_Jun_13_0920,Yes-No Task,,JOSU26,
Yes-No Task,74,0,74,0,5,-1,False Alarm,0.60928093316,False,-1,stimulus_JOSU26_Yes-No Task_2019_Jun_13_0920_375,-1,False,2019_Jun_13_0920,Yes-No Task,,JOSU26,
Yes-No Task,0,0,0,0,1.5,-1,Miss,0.600734552834,True,-1,stimulus_JOSU26_Yes-No Task_2019_Jun_13_0920_376,-1,False,2019_Jun_13_0920,Yes-No Task,,JOSU26,
Yes-No Task,1,0,1,0,1.5,-1,Miss,0.50246657338,True,-1,stimulus_JOSU26_Yes-No Task_2019_Jun_13_0920_377,-1,False,2019_Jun_13_0920,Yes-No Task,,JOSU26,
Yes-No Task,2,0,2,0,1.5,-1,Miss,0.566490322817,True,-1,stimulus_JOSU26_Yes-No Task_2019_Jun_13_0920_378,-1,False,2019_Jun_13_0920,Yes-No Task,,JOSU26,
Yes-No Task,3,0,3,0,1.5,-1,Correct Rejection,0.593143106904,False,-1,stimulus_JOSU26_Yes-No Task_2019_Jun_13_0920_379,-1,False,2019_Jun_13_0920,Yes-No Task,,JOSU26,
Yes-No Task,4,0,4,0,1.5,-1,Miss,0.534331266303,True,-1,stimulus_JOSU26_Yes-No Task_2019_Jun_13_0920_380,-1,False,2019_Jun_13_0920,Yes-No Task,,JOSU26,
Yes-No Task,5,0,5,0,1.5,-1,Correct Rejection,0.59920854494,False,-1,stimulus_JOSU26_Yes-No Task_2019_Jun_13_0920_381,-1,False,2019_Jun_13_0920,Yes-No Task,,JOSU26,
Yes-No Task,6,0,6,0,1.5,-1,Correct Rejection,0.568475322798,False,-1,stimulus_JOSU26_Yes-No Task_2019_Jun_13_0920_382,-1,False,2019_Jun_13_0920,Yes-No Task,,JOSU26,
Yes-No Task,7,0,7,0,1.5,-1,Miss,0.492208617274,True,-1,stimulus_JOSU26_Yes-No Task_2019_Jun_13_0920_383,-1,False,2019_Jun_13_0920,Yes-No Task,,JOSU26,
Yes-No Task,8,0,8,0,1.5,-1,Correct Rejection,0.566748146899,False,-1,stimulus_JOSU26_Yes-No Task_2019_Jun_13_0920_384,-1,False,2019_Jun_13_0920,Yes-No Task,,JOSU26,
Yes-No Task,9,0,9,0,1.5,-1,Hit,0.532605732791,True,-1,stimulus_JOSU26_Yes-No Task_2019_Jun_13_0920_385,-1,False,2019_Jun_13_0920,Yes-No Task,,JOSU26,
Yes-No Task,10,0,10,0,1.5,-1,Correct Rejection,0.535095296334,False,-1,stimulus_JOSU26_Yes-No Task_2019_Jun_13_0920_386,-1,False,2019_Jun_13_0920,Yes-No Task,,JOSU26,
Yes-No Task,11,0,11,0,1.5,-1,Correct Rejection,0.466927063651,False,-1,stimulus_JOSU26_Yes-No Task_2019_Jun_13_0920_387,-1,False,2019_Jun_13_0920,Yes-No Task,,JOSU26,
Yes-No Task,12,0,12,0,1.5,-1,Hit,0.635041596834,True,-1,stimulus_JOSU26_Yes-No Task_2019_Jun_13_0920_388,-1,False,2019_Jun_13_0920,Yes-No Task,,JOSU26,
Yes-No Task,13,0,13,0,1.5,-1,False Alarm,0.635134380776,False,-1,stimulus_JOSU26_Yes-No Task_2019_Jun_13_0920_389,-1,False,2019_Jun_13_0920,Yes-No Task,,JOSU26,
Yes-No Task,14,0,14,0,1.5,-1,Hit,0.565760368016,True,-1,stimulus_JOSU26_Yes-No Task_2019_Jun_13_0920_390,-1,False,2019_Jun_13_0920,Yes-No Task,,JOSU26,
Yes-No Task,15,0,15,0,1.5,-1,Hit,0.659668326378,True,-1,stimulus_JOSU26_Yes-No Task_2019_Jun_13_0920_391,-1,False,2019_Jun_13_0920,Yes-No Task,,JOSU26,
Yes-No Task,16,0,16,0,1.5,-1,False Alarm,0.736851375084,False,-1,stimulus_JOSU26_Yes-No Task_2019_Jun_13_0920_392,-1,False,2019_Jun_13_0920,Yes-No Task,,JOSU26,
Yes-No Task,17,0,17,0,1.5,-1,False Alarm,0.604284973349,False,-1,stimulus_JOSU26_Yes-No Task_2019_Jun_13_0920_393,-1,False,2019_Jun_13_0920,Yes-No Task,,JOSU26,
Yes-No Task,18,0,18,0,1.5,-1,Correct Rejection,0.701031871606,False,-1,stimulus_JOSU26_Yes-No Task_2019_Jun_13_0920_394,-1,False,2019_Jun_13_0920,Yes-No Task,,JOSU26,
Yes-No Task,19,0,19,0,1.5,-1,Hit,0.569812888745,True,-1,stimulus_JOSU26_Yes-No Task_2019_Jun_13_0920_395,-1,False,2019_Jun_13_0920,Yes-No Task,,JOSU26,
Yes-No Task,20,0,20,0,1.5,-1,Hit,0.535809239373,True,-1,stimulus_JOSU26_Yes-No Task_2019_Jun_13_0920_396,-1,False,2019_Jun_13_0920,Yes-No Task,,JOSU26,
Yes-No Task,21,0,21,0,1.5,-1,Hit,0.632556138095,True,-1,stimulus_JOSU26_Yes-No Task_2019_Jun_13_0920_397,-1,False,2019_Jun_13_0920,Yes-No Task,,JOSU26,
Yes-No Task,22,0,22,0,1.5,-1,Miss,0.770878835581,True,-1,stimulus_JOSU26_Yes-No Task_2019_Jun_13_0920_398,-1,False,2019_Jun_13_0920,Yes-No Task,,JOSU26,
Yes-No Task,23,0,23,0,1.5,-1,Hit,0.834331101738,True,-1,stimulus_JOSU26_Yes-No Task_2019_Jun_13_0920_399,-1,False,2019_Jun_13_0920,Yes-No Task,,JOSU26,
Yes-No Task,24,0,24,0,1.5,-1,Miss,0.701973258518,True,-1,stimulus_JOSU26_Yes-No Task_2019_Jun_13_0920_400,-1,False,2019_Jun_13_0920,Yes-No Task,,JOSU26,
Yes-No Task,25,0,25,0,1.5,-1,No Answer,-1,True,-1,stimulus_JOSU26_Yes-No Task_2019_Jun_13_0920_401,-1,False,2019_Jun_13_0920,Yes-No Task,,JOSU26,
Yes-No Task,26,0,26,0,1.5,-1,No Answer,-1,True,-1,stimulus_JOSU26_Yes-No Task_2019_Jun_13_0920_402,-1,False,2019_Jun_13_0920,Yes-No Task,,JOSU26,
Yes-No Task,27,0,27,0,1.5,-1,Miss,0.669120786246,True,-1,stimulus_JOSU26_Yes-No Task_2019_Jun_13_0920_403,-1,False,2019_Jun_13_0920,Yes-No Task,,JOSU26,
Yes-No Task,28,0,28,0,1.5,-1,Correct Rejection,0.632594729774,False,-1,stimulus_JOSU26_Yes-No Task_2019_Jun_13_0920_404,-1,False,2019_Jun_13_0920,Yes-No Task,,JOSU26,
Yes-No Task,29,0,29,0,1.5,-1,False Alarm,0.600320309401,False,-1,stimulus_JOSU26_Yes-No Task_2019_Jun_13_0920_405,-1,False,2019_Jun_13_0920,Yes-No Task,,JOSU26,
Yes-No Task,30,0,30,0,1.5,-1,Hit,0.568802118767,True,-1,stimulus_JOSU26_Yes-No Task_2019_Jun_13_0920_406,-1,False,2019_Jun_13_0920,Yes-No Task,,JOSU26,
Yes-No Task,31,0,31,0,1.5,-1,Hit,0.566904565785,True,-1,stimulus_JOSU26_Yes-No Task_2019_Jun_13_0920_407,-1,False,2019_Jun_13_0920,Yes-No Task,,JOSU26,
Yes-No Task,32,0,32,0,1.5,-1,Miss,0.836593222339,True,-1,stimulus_JOSU26_Yes-No Task_2019_Jun_13_0920_408,-1,False,2019_Jun_13_0920,Yes-No Task,,JOSU26,
Yes-No Task,33,0,33,0,1.5,-1,False Alarm,0.801597278565,False,-1,stimulus_JOSU26_Yes-No Task_2019_Jun_13_0920_409,-1,False,2019_Jun_13_0920,Yes-No Task,,JOSU26,
Yes-No Task,34,0,34,0,1.5,-1,Hit,0.577132961713,True,-1,stimulus_JOSU26_Yes-No Task_2019_Jun_13_0920_410,-1,False,2019_Jun_13_0920,Yes-No Task,,JOSU26,
Yes-No Task,35,0,35,0,1.5,-1,No Answer,-1,True,-1,stimulus_JOSU26_Yes-No Task_2019_Jun_13_0920_411,-1,False,2019_Jun_13_0920,Yes-No Task,,JOSU26,
Yes-No Task,36,0,36,0,1.5,-1,Miss,0.66791993333,True,-1,stimulus_JOSU26_Yes-No Task_2019_Jun_13_0920_412,-1,False,2019_Jun_13_0920,Yes-No Task,,JOSU26,
Yes-No Task,37,0,37,0,1.5,-1,Hit,0.770695731509,True,-1,stimulus_JOSU26_Yes-No Task_2019_Jun_13_0920_413,-1,False,2019_Jun_13_0920,Yes-No Task,,JOSU26,
Yes-No Task,38,0,38,0,1.5,-1,Miss,0.526546862908,True,-1,stimulus_JOSU26_Yes-No Task_2019_Jun_13_0920_414,-1,False,2019_Jun_13_0920,Yes-No Task,,JOSU26,
Yes-No Task,39,0,39,0,1.5,-1,Miss,0.620034009684,True,-1,stimulus_JOSU26_Yes-No Task_2019_Jun_13_0920_415,-1,False,2019_Jun_13_0920,Yes-No Task,,JOSU26,
Yes-No Task,40,0,40,0,1.5,-1,Hit,0.537280233577,True,-1,stimulus_JOSU26_Yes-No Task_2019_Jun_13_0920_416,-1,False,2019_Jun_13_0920,Yes-No Task,,JOSU26,
Yes-No Task,41,0,41,0,1.5,-1,Hit,0.50030914275,True,-1,stimulus_JOSU26_Yes-No Task_2019_Jun_13_0920_417,-1,False,2019_Jun_13_0920,Yes-No Task,,JOSU26,
Yes-No Task,42,0,42,0,1.5,-1,False Alarm,0.714502776973,False,-1,stimulus_JOSU26_Yes-No Task_2019_Jun_13_0920_418,-1,False,2019_Jun_13_0920,Yes-No Task,,JOSU26,
Yes-No Task,43,0,43,0,1.5,-1,Hit,0.501201674342,True,-1,stimulus_JOSU26_Yes-No Task_2019_Jun_13_0920_419,-1,False,2019_Jun_13_0920,Yes-No Task,,JOSU26,
Yes-No Task,44,0,44,0,1.5,-1,Correct Rejection,0.437282204162,False,-1,stimulus_JOSU26_Yes-No Task_2019_Jun_13_0920_420,-1,False,2019_Jun_13_0920,Yes-No Task,,JOSU26,
Yes-No Task,45,0,45,0,1.5,-1,Hit,0.570176223293,True,-1,stimulus_JOSU26_Yes-No Task_2019_Jun_13_0920_421,-1,False,2019_Jun_13_0920,Yes-No Task,,JOSU26,
Yes-No Task,46,0,46,0,1.5,-1,Miss,0.601586440112,True,-1,stimulus_JOSU26_Yes-No Task_2019_Jun_13_0920_422,-1,False,2019_Jun_13_0920,Yes-No Task,,JOSU26,
Yes-No Task,47,0,47,0,1.5,-1,Hit,0.502620939631,True,-1,stimulus_JOSU26_Yes-No Task_2019_Jun_13_0920_423,-1,False,2019_Jun_13_0920,Yes-No Task,,JOSU26,
Yes-No Task,48,0,48,0,1.5,-1,Hit,0.568015508819,True,-1,stimulus_JOSU26_Yes-No Task_2019_Jun_13_0920_424,-1,False,2019_Jun_13_0920,Yes-No Task,,JOSU26,
Yes-No Task,49,0,49,0,1.5,-1,False Alarm,0.600792029407,False,-1,stimulus_JOSU26_Yes-No Task_2019_Jun_13_0920_425,-1,False,2019_Jun_13_0920,Yes-No Task,,JOSU26,
Yes-No Task,50,0,50,0,1.5,-1,Correct Rejection,0.532360635232,False,-1,stimulus_JOSU26_Yes-No Task_2019_Jun_13_0920_426,-1,False,2019_Jun_13_0920,Yes-No Task,,JOSU26,
Yes-No Task,51,0,51,0,1.5,-1,Hit,0.52621267736,True,-1,stimulus_JOSU26_Yes-No Task_2019_Jun_13_0920_427,-1,False,2019_Jun_13_0920,Yes-No Task,,JOSU26,
Yes-No Task,52,0,52,0,1.5,-1,Correct Rejection,0.594017574564,False,-1,stimulus_JOSU26_Yes-No Task_2019_Jun_13_0920_428,-1,False,2019_Jun_13_0920,Yes-No Task,,JOSU26,
Yes-No Task,53,0,53,0,1.5,-1,False Alarm,0.767064022366,False,-1,stimulus_JOSU26_Yes-No Task_2019_Jun_13_0920_429,-1,False,2019_Jun_13_0920,Yes-No Task,,JOSU26,
Yes-No Task,54,0,54,0,1.5,-1,Correct Rejection,0.558281823061,False,-1,stimulus_JOSU26_Yes-No Task_2019_Jun_13_0920_430,-1,False,2019_Jun_13_0920,Yes-No Task,,JOSU26,
Yes-No Task,55,0,55,0,1.5,-1,Hit,0.701634966768,True,-1,stimulus_JOSU26_Yes-No Task_2019_Jun_13_0920_431,-1,False,2019_Jun_13_0920,Yes-No Task,,JOSU26,
Yes-No Task,56,0,56,0,1.5,-1,Hit,0.637080789544,True,-1,stimulus_JOSU26_Yes-No Task_2019_Jun_13_0920_432,-1,False,2019_Jun_13_0920,Yes-No Task,,JOSU26,
Yes-No Task,57,0,57,0,1.5,-1,No Answer,-1,False,-1,stimulus_JOSU26_Yes-No Task_2019_Jun_13_0920_433,-1,False,2019_Jun_13_0920,Yes-No Task,,JOSU26,
Yes-No Task,58,0,58,0,1.5,-1,Correct Rejection,0.66874472471,False,-1,stimulus_JOSU26_Yes-No Task_2019_Jun_13_0920_434,-1,False,2019_Jun_13_0920,Yes-No Task,,JOSU26,
Yes-No Task,59,0,59,0,1.5,-1,Hit,0.568817309104,True,-1,stimulus_JOSU26_Yes-No Task_2019_Jun_13_0920_435,-1,False,2019_Jun_13_0920,Yes-No Task,,JOSU26,
Yes-No Task,60,0,60,0,1.5,-1,Correct Rejection,0.502437835094,False,-1,stimulus_JOSU26_Yes-No Task_2019_Jun_13_0920_436,-1,False,2019_Jun_13_0920,Yes-No Task,,JOSU26,
Yes-No Task,61,0,61,0,1.5,-1,False Alarm,0.565335861407,False,-1,stimulus_JOSU26_Yes-No Task_2019_Jun_13_0920_437,-1,False,2019_Jun_13_0920,Yes-No Task,,JOSU26,
Yes-No Task,62,0,62,0,1.5,-1,Hit,0.603151449468,True,-1,stimulus_JOSU26_Yes-No Task_2019_Jun_13_0920_438,-1,False,2019_Jun_13_0920,Yes-No Task,,JOSU26,
Yes-No Task,63,0,63,0,1.5,-1,Hit,0.533626765944,True,-1,stimulus_JOSU26_Yes-No Task_2019_Jun_13_0920_439,-1,False,2019_Jun_13_0920,Yes-No Task,,JOSU26,
Yes-No Task,64,0,64,0,1.5,-1,Hit,0.634788698982,True,-1,stimulus_JOSU26_Yes-No Task_2019_Jun_13_0920_440,-1,False,2019_Jun_13_0920,Yes-No Task,,JOSU26,
Yes-No Task,65,0,65,0,1.5,-1,Hit,0.801666661166,True,-1,stimulus_JOSU26_Yes-No Task_2019_Jun_13_0920_441,-1,False,2019_Jun_13_0920,Yes-No Task,,JOSU26,
Yes-No Task,66,0,66,0,1.5,-1,Correct Rejection,0.732166199945,False,-1,stimulus_JOSU26_Yes-No Task_2019_Jun_13_0920_442,-1,False,2019_Jun_13_0920,Yes-No Task,,JOSU26,
Yes-No Task,67,0,67,0,1.5,-1,Correct Rejection,0.734708313365,False,-1,stimulus_JOSU26_Yes-No Task_2019_Jun_13_0920_443,-1,False,2019_Jun_13_0920,Yes-No Task,,JOSU26,
Yes-No Task,68,0,68,0,1.5,-1,Correct Rejection,0.535361742135,False,-1,stimulus_JOSU26_Yes-No Task_2019_Jun_13_0920_444,-1,False,2019_Jun_13_0920,Yes-No Task,,JOSU26,
Yes-No Task,69,0,69,0,1.5,-1,Hit,0.56835667463,True,-1,stimulus_JOSU26_Yes-No Task_2019_Jun_13_0920_445,-1,False,2019_Jun_13_0920,Yes-No Task,,JOSU26,
Yes-No Task,70,0,70,0,1.5,-1,False Alarm,0.633858397137,False,-1,stimulus_JOSU26_Yes-No Task_2019_Jun_13_0920_446,-1,False,2019_Jun_13_0920,Yes-No Task,,JOSU26,
Yes-No Task,71,0,71,0,1.5,-1,Miss,0.791021148209,True,-1,stimulus_JOSU26_Yes-No Task_2019_Jun_13_0920_447,-1,False,2019_Jun_13_0920,Yes-No Task,,JOSU26,
Yes-No Task,72,0,72,0,1.5,-1,Miss,0.801363676786,True,-1,stimulus_JOSU26_Yes-No Task_2019_Jun_13_0920_448,-1,False,2019_Jun_13_0920,Yes-No Task,,JOSU26,
Yes-No Task,73,0,73,0,1.5,-1,Hit,0.664934837725,True,-1,stimulus_JOSU26_Yes-No Task_2019_Jun_13_0920_449,-1,False,2019_Jun_13_0920,Yes-No Task,,JOSU26,
Yes-No Task,74,0,74,0,1.5,-1,Hit,0.601929658093,True,-1,stimulus_JOSU26_Yes-No Task_2019_Jun_13_0920_450,-1,False,2019_Jun_13_0920,Yes-No Task,,JOSU26,
Yes-No Task,0,0,0,0,5.8,-1,Miss,0.600206177216,True,-1,stimulus_JOSU26_Yes-No Task_2019_Jun_13_0920_451,-1,False,2019_Jun_13_0920,Yes-No Task,,JOSU26,
Yes-No Task,1,0,1,0,5.8,-1,Miss,0.572493357118,True,-1,stimulus_JOSU26_Yes-No Task_2019_Jun_13_0920_452,-1,False,2019_Jun_13_0920,Yes-No Task,,JOSU26,
Yes-No Task,2,0,2,0,5.8,-1,Correct Rejection,0.53247517813,False,-1,stimulus_JOSU26_Yes-No Task_2019_Jun_13_0920_453,-1,False,2019_Jun_13_0920,Yes-No Task,,JOSU26,
Yes-No Task,3,0,3,0,5.8,-1,Correct Rejection,0.433332320768,False,-1,stimulus_JOSU26_Yes-No Task_2019_Jun_13_0920_454,-1,False,2019_Jun_13_0920,Yes-No Task,,JOSU26,
Yes-No Task,4,0,4,0,5.8,-1,Correct Rejection,0.561243928038,False,-1,stimulus_JOSU26_Yes-No Task_2019_Jun_13_0920_455,-1,False,2019_Jun_13_0920,Yes-No Task,,JOSU26,
Yes-No Task,5,0,5,0,5.8,-1,Correct Rejection,0.479679509532,False,-1,stimulus_JOSU26_Yes-No Task_2019_Jun_13_0920_456,-1,False,2019_Jun_13_0920,Yes-No Task,,JOSU26,
Yes-No Task,6,0,6,0,5.8,-1,Hit,0.630773948506,True,-1,stimulus_JOSU26_Yes-No Task_2019_Jun_13_0920_457,-1,False,2019_Jun_13_0920,Yes-No Task,,JOSU26,
Yes-No Task,7,0,7,0,5.8,-1,Hit,0.544181958307,True,-1,stimulus_JOSU26_Yes-No Task_2019_Jun_13_0920_458,-1,False,2019_Jun_13_0920,Yes-No Task,,JOSU26,
Yes-No Task,8,0,8,0,5.8,-1,Correct Rejection,0.657380752265,False,-1,stimulus_JOSU26_Yes-No Task_2019_Jun_13_0920_459,-1,False,2019_Jun_13_0920,Yes-No Task,,JOSU26,
Yes-No Task,9,0,9,0,5.8,-1,False Alarm,0.568287702277,False,-1,stimulus_JOSU26_Yes-No Task_2019_Jun_13_0920_460,-1,False,2019_Jun_13_0920,Yes-No Task,,JOSU26,
Yes-No Task,10,0,10,0,5.8,-1,Correct Rejection,0.560523826629,False,-1,stimulus_JOSU26_Yes-No Task_2019_Jun_13_0920_461,-1,False,2019_Jun_13_0920,Yes-No Task,,JOSU26,
Yes-No Task,11,0,11,0,5.8,-1,Correct Rejection,0.600340837147,False,-1,stimulus_JOSU26_Yes-No Task_2019_Jun_13_0920_462,-1,False,2019_Jun_13_0920,Yes-No Task,,JOSU26,
Yes-No Task,12,0,12,0,5.8,-1,Hit,0.573321022093,True,-1,stimulus_JOSU26_Yes-No Task_2019_Jun_13_0920_463,-1,False,2019_Jun_13_0920,Yes-No Task,,JOSU26,
Yes-No Task,13,0,13,0,5.8,-1,Miss,0.601097477134,True,-1,stimulus_JOSU26_Yes-No Task_2019_Jun_13_0920_464,-1,False,2019_Jun_13_0920,Yes-No Task,,JOSU26,
Yes-No Task,14,0,14,0,5.8,-1,Hit,0.636505200993,True,-1,stimulus_JOSU26_Yes-No Task_2019_Jun_13_0920_465,-1,False,2019_Jun_13_0920,Yes-No Task,,JOSU26,
Yes-No Task,15,0,15,0,5.8,-1,Hit,0.506754748523,True,-1,stimulus_JOSU26_Yes-No Task_2019_Jun_13_0920_466,-1,False,2019_Jun_13_0920,Yes-No Task,,JOSU26,
Yes-No Task,16,0,16,0,5.8,-1,Correct Rejection,0.633428963367,False,-1,stimulus_JOSU26_Yes-No Task_2019_Jun_13_0920_467,-1,False,2019_Jun_13_0920,Yes-No Task,,JOSU26,
Yes-No Task,17,0,17,0,5.8,-1,Hit,0.469287305139,True,-1,stimulus_JOSU26_Yes-No Task_2019_Jun_13_0920_468,-1,False,2019_Jun_13_0920,Yes-No Task,,JOSU26,
Yes-No Task,18,0,18,0,5.8,-1,Hit,0.601097887848,True,-1,stimulus_JOSU26_Yes-No Task_2019_Jun_13_0920_469,-1,False,2019_Jun_13_0920,Yes-No Task,,JOSU26,
Yes-No Task,19,0,19,0,5.8,-1,Hit,0.533087716438,True,-1,stimulus_JOSU26_Yes-No Task_2019_Jun_13_0920_470,-1,False,2019_Jun_13_0920,Yes-No Task,,JOSU26,
Yes-No Task,20,0,20,0,5.8,-1,Hit,0.599821083248,True,-1,stimulus_JOSU26_Yes-No Task_2019_Jun_13_0920_471,-1,False,2019_Jun_13_0920,Yes-No Task,,JOSU26,
Yes-No Task,21,0,21,0,5.8,-1,Hit,0.513586269226,True,-1,stimulus_JOSU26_Yes-No Task_2019_Jun_13_0920_472,-1,False,2019_Jun_13_0920,Yes-No Task,,JOSU26,
Yes-No Task,22,0,22,0,5.8,-1,False Alarm,0.770357029513,False,-1,stimulus_JOSU26_Yes-No Task_2019_Jun_13_0920_473,-1,False,2019_Jun_13_0920,Yes-No Task,,JOSU26,
Yes-No Task,23,0,23,0,5.8,-1,Correct Rejection,0.580365207046,False,-1,stimulus_JOSU26_Yes-No Task_2019_Jun_13_0920_474,-1,False,2019_Jun_13_0920,Yes-No Task,,JOSU26,
Yes-No Task,24,0,24,0,5.8,-1,False Alarm,0.699809669983,False,-1,stimulus_JOSU26_Yes-No Task_2019_Jun_13_0920_475,-1,False,2019_Jun_13_0920,Yes-No Task,,JOSU26,
Yes-No Task,25,0,25,0,5.8,-1,Miss,0.635957529303,True,-1,stimulus_JOSU26_Yes-No Task_2019_Jun_13_0920_476,-1,False,2019_Jun_13_0920,Yes-No Task,,JOSU26,
Yes-No Task,26,0,26,0,5.8,-1,Correct Rejection,0.693004013505,False,-1,stimulus_JOSU26_Yes-No Task_2019_Jun_13_0920_477,-1,False,2019_Jun_13_0920,Yes-No Task,,JOSU26,
Yes-No Task,27,0,27,0,5.8,-1,Hit,0.634385951329,True,-1,stimulus_JOSU26_Yes-No Task_2019_Jun_13_0920_478,-1,False,2019_Jun_13_0920,Yes-No Task,,JOSU26,
Yes-No Task,28,0,28,0,5.8,-1,Hit,0.568656374235,True,-1,stimulus_JOSU26_Yes-No Task_2019_Jun_13_0920_479,-1,False,2019_Jun_13_0920,Yes-No Task,,JOSU26,
Yes-No Task,29,0,29,0,5.8,-1,False Alarm,0.598793070763,False,-1,stimulus_JOSU26_Yes-No Task_2019_Jun_13_0920_480,-1,False,2019_Jun_13_0920,Yes-No Task,,JOSU26,
Yes-No Task,30,0,30,0,5.8,-1,Hit,0.525137862191,True,-1,stimulus_JOSU26_Yes-No Task_2019_Jun_13_0920_481,-1,False,2019_Jun_13_0920,Yes-No Task,,JOSU26,
Yes-No Task,31,0,31,0,5.8,-1,Hit,0.571143474896,True,-1,stimulus_JOSU26_Yes-No Task_2019_Jun_13_0920_482,-1,False,2019_Jun_13_0920,Yes-No Task,,JOSU26,
Yes-No Task,32,0,32,0,5.8,-1,Correct Rejection,0.565523071215,False,-1,stimulus_JOSU26_Yes-No Task_2019_Jun_13_0920_483,-1,False,2019_Jun_13_0920,Yes-No Task,,JOSU26,
Yes-No Task,33,0,33,0,5.8,-1,Correct Rejection,0.566212792415,False,-1,stimulus_JOSU26_Yes-No Task_2019_Jun_13_0920_484,-1,False,2019_Jun_13_0920,Yes-No Task,,JOSU26,
Yes-No Task,34,0,34,0,5.8,-1,Correct Rejection,0.643089982215,False,-1,stimulus_JOSU26_Yes-No Task_2019_Jun_13_0920_485,-1,False,2019_Jun_13_0920,Yes-No Task,,JOSU26,
Yes-No Task,35,0,35,0,5.8,-1,Hit,0.704063359182,True,-1,stimulus_JOSU26_Yes-No Task_2019_Jun_13_0920_486,-1,False,2019_Jun_13_0920,Yes-No Task,,JOSU26,
Yes-No Task,36,0,36,0,5.8,-1,Hit,0.641914993525,True,-1,stimulus_JOSU26_Yes-No Task_2019_Jun_13_0920_487,-1,False,2019_Jun_13_0920,Yes-No Task,,JOSU26,
Yes-No Task,37,0,37,0,5.8,-1,Hit,0.633238879964,True,-1,stimulus_JOSU26_Yes-No Task_2019_Jun_13_0920_488,-1,False,2019_Jun_13_0920,Yes-No Task,,JOSU26,
Yes-No Task,38,0,38,0,5.8,-1,Hit,0.594854682218,True,-1,stimulus_JOSU26_Yes-No Task_2019_Jun_13_0920_489,-1,False,2019_Jun_13_0920,Yes-No Task,,JOSU26,
Yes-No Task,39,0,39,0,5.8,-1,Correct Rejection,0.667100479361,False,-1,stimulus_JOSU26_Yes-No Task_2019_Jun_13_0920_490,-1,False,2019_Jun_13_0920,Yes-No Task,,JOSU26,
Yes-No Task,40,0,40,0,5.8,-1,False Alarm,0.666996199638,False,-1,stimulus_JOSU26_Yes-No Task_2019_Jun_13_0920_491,-1,False,2019_Jun_13_0920,Yes-No Task,,JOSU26,
Yes-No Task,41,0,41,0,5.8,-1,Correct Rejection,0.767556269653,False,-1,stimulus_JOSU26_Yes-No Task_2019_Jun_13_0920_492,-1,False,2019_Jun_13_0920,Yes-No Task,,JOSU26,
Yes-No Task,42,0,42,0,5.8,-1,Correct Rejection,0.667788147461,False,-1,stimulus_JOSU26_Yes-No Task_2019_Jun_13_0920_493,-1,False,2019_Jun_13_0920,Yes-No Task,,JOSU26,
Yes-No Task,43,0,43,0,5.8,-1,Correct Rejection,0.600740710739,False,-1,stimulus_JOSU26_Yes-No Task_2019_Jun_13_0920_494,-1,False,2019_Jun_13_0920,Yes-No Task,,JOSU26,
Yes-No Task,44,0,44,0,5.8,-1,Correct Rejection,0.658294221852,False,-1,stimulus_JOSU26_Yes-No Task_2019_Jun_13_0920_495,-1,False,2019_Jun_13_0920,Yes-No Task,,JOSU26,
Yes-No Task,45,0,45,0,5.8,-1,Hit,0.602045432664,True,-1,stimulus_JOSU26_Yes-No Task_2019_Jun_13_0920_496,-1,False,2019_Jun_13_0920,Yes-No Task,,JOSU26,
Yes-No Task,46,0,46,0,5.8,-1,Hit,0.635488683823,True,-1,stimulus_JOSU26_Yes-No Task_2019_Jun_13_0920_497,-1,False,2019_Jun_13_0920,Yes-No Task,,JOSU26,
Yes-No Task,47,0,47,0,5.8,-1,Hit,0.573231112678,True,-1,stimulus_JOSU26_Yes-No Task_2019_Jun_13_0920_498,-1,False,2019_Jun_13_0920,Yes-No Task,,JOSU26,
Yes-No Task,48,0,48,0,5.8,-1,Hit,0.538460148964,True,-1,stimulus_JOSU26_Yes-No Task_2019_Jun_13_0920_499,-1,False,2019_Jun_13_0920,Yes-No Task,,JOSU26,
Yes-No Task,49,0,49,0,5.8,-1,Hit,0.431237704121,True,-1,stimulus_JOSU26_Yes-No Task_2019_Jun_13_0920_500,-1,False,2019_Jun_13_0920,Yes-No Task,,JOSU26,
Yes-No Task,50,0,50,0,5.8,-1,Hit,0.525867816526,True,-1,stimulus_JOSU26_Yes-No Task_2019_Jun_13_0920_501,-1,False,2019_Jun_13_0920,Yes-No Task,,JOSU26,
Yes-No Task,51,0,51,0,5.8,-1,Hit,0.425295430236,True,-1,stimulus_JOSU26_Yes-No Task_2019_Jun_13_0920_502,-1,False,2019_Jun_13_0920,Yes-No Task,,JOSU26,
Yes-No Task,52,0,52,0,5.8,-1,Hit,0.502232971136,True,-1,stimulus_JOSU26_Yes-No Task_2019_Jun_13_0920_503,-1,False,2019_Jun_13_0920,Yes-No Task,,JOSU26,
Yes-No Task,53,0,53,0,5.8,-1,Correct Rejection,0.725514088292,False,-1,stimulus_JOSU26_Yes-No Task_2019_Jun_13_0920_504,-1,False,2019_Jun_13_0920,Yes-No Task,,JOSU26,
Yes-No Task,54,0,54,0,5.8,-1,Correct Rejection,0.668015180621,False,-1,stimulus_JOSU26_Yes-No Task_2019_Jun_13_0920_505,-1,False,2019_Jun_13_0920,Yes-No Task,,JOSU26,
Yes-No Task,55,0,55,0,5.8,-1,Hit,0.568673617207,True,-1,stimulus_JOSU26_Yes-No Task_2019_Jun_13_0920_506,-1,False,2019_Jun_13_0920,Yes-No Task,,JOSU26,
Yes-No Task,56,0,56,0,5.8,-1,Correct Rejection,0.469688820653,False,-1,stimulus_JOSU26_Yes-No Task_2019_Jun_13_0920_507,-1,False,2019_Jun_13_0920,Yes-No Task,,JOSU26,
Yes-No Task,57,0,57,0,5.8,-1,Miss,0.534812428989,True,-1,stimulus_JOSU26_Yes-No Task_2019_Jun_13_0920_508,-1,False,2019_Jun_13_0920,Yes-No Task,,JOSU26,
Yes-No Task,58,0,58,0,5.8,-1,Miss,0.601735058241,True,-1,stimulus_JOSU26_Yes-No Task_2019_Jun_13_0920_509,-1,False,2019_Jun_13_0920,Yes-No Task,,JOSU26,
Yes-No Task,59,0,59,0,5.8,-1,Hit,0.538127604872,True,-1,stimulus_JOSU26_Yes-No Task_2019_Jun_13_0920_510,-1,False,2019_Jun_13_0920,Yes-No Task,,JOSU26,
Yes-No Task,60,0,60,0,5.8,-1,Correct Rejection,0.700890232343,False,-1,stimulus_JOSU26_Yes-No Task_2019_Jun_13_0920_511,-1,False,2019_Jun_13_0920,Yes-No Task,,JOSU26,
Yes-No Task,61,0,61,0,5.8,-1,Correct Rejection,0.825960025657,False,-1,stimulus_JOSU26_Yes-No Task_2019_Jun_13_0920_512,-1,False,2019_Jun_13_0920,Yes-No Task,,JOSU26,
Yes-No Task,62,0,62,0,5.8,-1,Correct Rejection,0.758054543752,False,-1,stimulus_JOSU26_Yes-No Task_2019_Jun_13_0920_513,-1,False,2019_Jun_13_0920,Yes-No Task,,JOSU26,
Yes-No Task,63,0,63,0,5.8,-1,Hit,0.56812430406,True,-1,stimulus_JOSU26_Yes-No Task_2019_Jun_13_0920_514,-1,False,2019_Jun_13_0920,Yes-No Task,,JOSU26,
Yes-No Task,64,0,64,0,5.8,-1,Hit,0.625424917322,True,-1,stimulus_JOSU26_Yes-No Task_2019_Jun_13_0920_515,-1,False,2019_Jun_13_0920,Yes-No Task,,JOSU26,
Yes-No Task,65,0,65,0,5.8,-1,Hit,0.558936647605,True,-1,stimulus_JOSU26_Yes-No Task_2019_Jun_13_0920_516,-1,False,2019_Jun_13_0920,Yes-No Task,,JOSU26,
Yes-No Task,66,0,66,0,5.8,-1,Hit,0.536002197303,True,-1,stimulus_JOSU26_Yes-No Task_2019_Jun_13_0920_517,-1,False,2019_Jun_13_0920,Yes-No Task,,JOSU26,
Yes-No Task,67,0,67,0,5.8,-1,False Alarm,0.567813519388,False,-1,stimulus_JOSU26_Yes-No Task_2019_Jun_13_0920_518,-1,False,2019_Jun_13_0920,Yes-No Task,,JOSU26,
Yes-No Task,68,0,68,0,5.8,-1,Hit,0.635302294977,True,-1,stimulus_JOSU26_Yes-No Task_2019_Jun_13_0920_519,-1,False,2019_Jun_13_0920,Yes-No Task,,JOSU26,
Yes-No Task,69,0,69,0,5.8,-1,Miss,0.701767984778,True,-1,stimulus_JOSU26_Yes-No Task_2019_Jun_13_0920_520,-1,False,2019_Jun_13_0920,Yes-No Task,,JOSU26,
Yes-No Task,70,0,70,0,5.8,-1,Hit,0.633881798014,True,-1,stimulus_JOSU26_Yes-No Task_2019_Jun_13_0920_521,-1,False,2019_Jun_13_0920,Yes-No Task,,JOSU26,
Yes-No Task,71,0,71,0,5.8,-1,Hit,0.501472225413,True,-1,stimulus_JOSU26_Yes-No Task_2019_Jun_13_0920_522,-1,False,2019_Jun_13_0920,Yes-No Task,,JOSU26,
Yes-No Task,72,0,72,0,5.8,-1,Correct Rejection,0.556568605825,False,-1,stimulus_JOSU26_Yes-No Task_2019_Jun_13_0920_523,-1,False,2019_Jun_13_0920,Yes-No Task,,JOSU26,
Yes-No Task,73,0,73,0,5.8,-1,Correct Rejection,0.533869809937,False,-1,stimulus_JOSU26_Yes-No Task_2019_Jun_13_0920_524,-1,False,2019_Jun_13_0920,Yes-No Task,,JOSU26,
Yes-No Task,74,0,74,0,5.8,-1,Hit,0.573773446493,True,-1,stimulus_JOSU26_Yes-No Task_2019_Jun_13_0920_525,-1,False,2019_Jun_13_0920,Yes-No Task,,JOSU26,
Yes-No Task,0,0,0,0,6.7,-1,False Alarm,0.767486476339,False,-1,stimulus_JOSU26_Yes-No Task_2019_Jun_13_0920_526,-1,False,2019_Jun_13_0920,Yes-No Task,,JOSU26,
Yes-No Task,1,0,1,0,6.7,-1,False Alarm,0.600897951052,False,-1,stimulus_JOSU26_Yes-No Task_2019_Jun_13_0920_527,-1,False,2019_Jun_13_0920,Yes-No Task,,JOSU26,
Yes-No Task,2,0,2,0,6.7,-1,Hit,0.533261378296,True,-1,stimulus_JOSU26_Yes-No Task_2019_Jun_13_0920_528,-1,False,2019_Jun_13_0920,Yes-No Task,,JOSU26,
Yes-No Task,3,0,3,0,6.7,-1,Hit,0.567855395377,True,-1,stimulus_JOSU26_Yes-No Task_2019_Jun_13_0920_529,-1,False,2019_Jun_13_0920,Yes-No Task,,JOSU26,
Yes-No Task,4,0,4,0,6.7,-1,Correct Rejection,0.566746504512,False,-1,stimulus_JOSU26_Yes-No Task_2019_Jun_13_0920_530,-1,False,2019_Jun_13_0920,Yes-No Task,,JOSU26,
Yes-No Task,5,0,5,0,6.7,-1,Hit,0.601443979889,True,-1,stimulus_JOSU26_Yes-No Task_2019_Jun_13_0920_531,-1,False,2019_Jun_13_0920,Yes-No Task,,JOSU26,
Yes-No Task,6,0,6,0,6.7,-1,False Alarm,0.504705291707,False,-1,stimulus_JOSU26_Yes-No Task_2019_Jun_13_0920_532,-1,False,2019_Jun_13_0920,Yes-No Task,,JOSU26,
Yes-No Task,7,0,7,0,6.7,-1,Correct Rejection,0.569057479966,False,-1,stimulus_JOSU26_Yes-No Task_2019_Jun_13_0920_533,-1,False,2019_Jun_13_0920,Yes-No Task,,JOSU26,
Yes-No Task,8,0,8,0,6.7,-1,False Alarm,0.598059010226,False,-1,stimulus_JOSU26_Yes-No Task_2019_Jun_13_0920_534,-1,False,2019_Jun_13_0920,Yes-No Task,,JOSU26,
Yes-No Task,9,0,9,0,6.7,-1,Hit,0.570088777225,True,-1,stimulus_JOSU26_Yes-No Task_2019_Jun_13_0920_535,-1,False,2019_Jun_13_0920,Yes-No Task,,JOSU26,
Yes-No Task,10,0,10,0,6.7,-1,False Alarm,0.52624264732,False,-1,stimulus_JOSU26_Yes-No Task_2019_Jun_13_0920_536,-1,False,2019_Jun_13_0920,Yes-No Task,,JOSU26,
Yes-No Task,11,0,11,0,6.7,-1,Hit,0.534653546289,True,-1,stimulus_JOSU26_Yes-No Task_2019_Jun_13_0920_537,-1,False,2019_Jun_13_0920,Yes-No Task,,JOSU26,
Yes-No Task,12,0,12,0,6.7,-1,Correct Rejection,0.525476974901,False,-1,stimulus_JOSU26_Yes-No Task_2019_Jun_13_0920_538,-1,False,2019_Jun_13_0920,Yes-No Task,,JOSU26,
Yes-No Task,13,0,13,0,6.7,-1,False Alarm,0.600518604741,False,-1,stimulus_JOSU26_Yes-No Task_2019_Jun_13_0920_539,-1,False,2019_Jun_13_0920,Yes-No Task,,JOSU26,
Yes-No Task,14,0,14,0,6.7,-1,Correct Rejection,0.668483615853,False,-1,stimulus_JOSU26_Yes-No Task_2019_Jun_13_0920_540,-1,False,2019_Jun_13_0920,Yes-No Task,,JOSU26,
Yes-No Task,15,0,15,0,6.7,-1,Hit,0.536248115357,True,-1,stimulus_JOSU26_Yes-No Task_2019_Jun_13_0920_541,-1,False,2019_Jun_13_0920,Yes-No Task,,JOSU26,
Yes-No Task,16,0,16,0,6.7,-1,False Alarm,0.700960846618,False,-1,stimulus_JOSU26_Yes-No Task_2019_Jun_13_0920_542,-1,False,2019_Jun_13_0920,Yes-No Task,,JOSU26,
Yes-No Task,17,0,17,0,6.7,-1,Hit,0.533989690244,True,-1,stimulus_JOSU26_Yes-No Task_2019_Jun_13_0920_543,-1,False,2019_Jun_13_0920,Yes-No Task,,JOSU26,
Yes-No Task,18,0,18,0,6.7,-1,False Alarm,0.804137339815,False,-1,stimulus_JOSU26_Yes-No Task_2019_Jun_13_0920_544,-1,False,2019_Jun_13_0920,Yes-No Task,,JOSU26,
Yes-No Task,19,0,19,0,6.7,-1,Hit,0.534050451126,True,-1,stimulus_JOSU26_Yes-No Task_2019_Jun_13_0920_545,-1,False,2019_Jun_13_0920,Yes-No Task,,JOSU26,
Yes-No Task,20,0,20,0,6.7,-1,Hit,0.571608625818,True,-1,stimulus_JOSU26_Yes-No Task_2019_Jun_13_0920_546,-1,False,2019_Jun_13_0920,Yes-No Task,,JOSU26,
Yes-No Task,21,0,21,0,6.7,-1,False Alarm,0.598359531723,False,-1,stimulus_JOSU26_Yes-No Task_2019_Jun_13_0920_547,-1,False,2019_Jun_13_0920,Yes-No Task,,JOSU26,
Yes-No Task,22,0,22,0,6.7,-1,Correct Rejection,0.538817325607,False,-1,stimulus_JOSU26_Yes-No Task_2019_Jun_13_0920_548,-1,False,2019_Jun_13_0920,Yes-No Task,,JOSU26,
Yes-No Task,23,0,23,0,6.7,-1,Hit,0.536429577973,True,-1,stimulus_JOSU26_Yes-No Task_2019_Jun_13_0920_549,-1,False,2019_Jun_13_0920,Yes-No Task,,JOSU26,
Yes-No Task,24,0,24,0,6.7,-1,Hit,0.5678007924,True,-1,stimulus_JOSU26_Yes-No Task_2019_Jun_13_0920_550,-1,False,2019_Jun_13_0920,Yes-No Task,,JOSU26,
Yes-No Task,25,0,25,0,6.7,-1,Correct Rejection,0.668754577637,False,-1,stimulus_JOSU26_Yes-No Task_2019_Jun_13_0920_551,-1,False,2019_Jun_13_0920,Yes-No Task,,JOSU26,
Yes-No Task,26,0,26,0,6.7,-1,Correct Rejection,0.593454713468,False,-1,stimulus_JOSU26_Yes-No Task_2019_Jun_13_0920_552,-1,False,2019_Jun_13_0920,Yes-No Task,,JOSU26,
Yes-No Task,27,0,27,0,6.7,-1,Correct Rejection,0.500082109589,False,-1,stimulus_JOSU26_Yes-No Task_2019_Jun_13_0920_553,-1,False,2019_Jun_13_0920,Yes-No Task,,JOSU26,
Yes-No Task,28,0,28,0,6.7,-1,Hit,0.566238245927,True,-1,stimulus_JOSU26_Yes-No Task_2019_Jun_13_0920_554,-1,False,2019_Jun_13_0920,Yes-No Task,,JOSU26,
Yes-No Task,29,0,29,0,6.7,-1,Correct Rejection,0.50135152461,False,-1,stimulus_JOSU26_Yes-No Task_2019_Jun_13_0920_555,-1,False,2019_Jun_13_0920,Yes-No Task,,JOSU26,
Yes-No Task,30,0,30,0,6.7,-1,Hit,0.570990751497,True,-1,stimulus_JOSU26_Yes-No Task_2019_Jun_13_0920_556,-1,False,2019_Jun_13_0920,Yes-No Task,,JOSU26,
Yes-No Task,31,0,31,0,6.7,-1,Correct Rejection,0.53648418095,False,-1,stimulus_JOSU26_Yes-No Task_2019_Jun_13_0920_557,-1,False,2019_Jun_13_0920,Yes-No Task,,JOSU26,
Yes-No Task,32,0,32,0,6.7,-1,Hit,0.567187433131,True,-1,stimulus_JOSU26_Yes-No Task_2019_Jun_13_0920_558,-1,False,2019_Jun_13_0920,Yes-No Task,,JOSU26,
Yes-No Task,33,0,33,0,6.7,-1,Hit,0.541875498835,True,-1,stimulus_JOSU26_Yes-No Task_2019_Jun_13_0920_559,-1,False,2019_Jun_13_0920,Yes-No Task,,JOSU26,
Yes-No Task,34,0,34,0,6.7,-1,Hit,0.410586722661,True,-1,stimulus_JOSU26_Yes-No Task_2019_Jun_13_0920_560,-1,False,2019_Jun_13_0920,Yes-No Task,,JOSU26,
Yes-No Task,35,0,35,0,6.7,-1,Hit,0.496801419649,True,-1,stimulus_JOSU26_Yes-No Task_2019_Jun_13_0920_561,-1,False,2019_Jun_13_0920,Yes-No Task,,JOSU26,
Yes-No Task,36,0,36,0,6.7,-1,Correct Rejection,0.398825339973,False,-1,stimulus_JOSU26_Yes-No Task_2019_Jun_13_0920_562,-1,False,2019_Jun_13_0920,Yes-No Task,,JOSU26,
Yes-No Task,37,0,37,0,6.7,-1,Hit,0.440316154622,True,-1,stimulus_JOSU26_Yes-No Task_2019_Jun_13_0920_563,-1,False,2019_Jun_13_0920,Yes-No Task,,JOSU26,
Yes-No Task,38,0,38,0,6.7,-1,False Alarm,0.462693080772,False,-1,stimulus_JOSU26_Yes-No Task_2019_Jun_13_0920_564,-1,False,2019_Jun_13_0920,Yes-No Task,,JOSU26,
Yes-No Task,39,0,39,0,6.7,-1,Hit,0.501669288613,True,-1,stimulus_JOSU26_Yes-No Task_2019_Jun_13_0920_565,-1,False,2019_Jun_13_0920,Yes-No Task,,JOSU26,
Yes-No Task,40,0,40,0,6.7,-1,Correct Rejection,0.466288661119,False,-1,stimulus_JOSU26_Yes-No Task_2019_Jun_13_0920_566,-1,False,2019_Jun_13_0920,Yes-No Task,,JOSU26,
Yes-No Task,41,0,41,0,6.7,-1,Correct Rejection,0.600805167109,False,-1,stimulus_JOSU26_Yes-No Task_2019_Jun_13_0920_567,-1,False,2019_Jun_13_0920,Yes-No Task,,JOSU26,
Yes-No Task,42,0,42,0,6.7,-1,Correct Rejection,0.468373835087,False,-1,stimulus_JOSU26_Yes-No Task_2019_Jun_13_0920_568,-1,False,2019_Jun_13_0920,Yes-No Task,,JOSU26,
Yes-No Task,43,0,43,0,6.7,-1,Hit,0.668672468048,True,-1,stimulus_JOSU26_Yes-No Task_2019_Jun_13_0920_569,-1,False,2019_Jun_13_0920,Yes-No Task,,JOSU26,
Yes-No Task,44,0,44,0,6.7,-1,Hit,0.471723087132,True,-1,stimulus_JOSU26_Yes-No Task_2019_Jun_13_0920_570,-1,False,2019_Jun_13_0920,Yes-No Task,,JOSU26,
Yes-No Task,45,0,45,0,6.7,-1,Hit,0.428235776257,True,-1,stimulus_JOSU26_Yes-No Task_2019_Jun_13_0920_571,-1,False,2019_Jun_13_0920,Yes-No Task,,JOSU26,
Yes-No Task,46,0,46,0,6.7,-1,Hit,0.467867218889,True,-1,stimulus_JOSU26_Yes-No Task_2019_Jun_13_0920_572,-1,False,2019_Jun_13_0920,Yes-No Task,,JOSU26,
Yes-No Task,47,0,47,0,6.7,-1,Miss,0.633193308953,True,-1,stimulus_JOSU26_Yes-No Task_2019_Jun_13_0920_573,-1,False,2019_Jun_13_0920,Yes-No Task,,JOSU26,
Yes-No Task,48,0,48,0,6.7,-1,Correct Rejection,0.468560634647,False,-1,stimulus_JOSU26_Yes-No Task_2019_Jun_13_0920_574,-1,False,2019_Jun_13_0920,Yes-No Task,,JOSU26,
Yes-No Task,49,0,49,0,6.7,-1,False Alarm,0.491932319012,False,-1,stimulus_JOSU26_Yes-No Task_2019_Jun_13_0920_575,-1,False,2019_Jun_13_0920,Yes-No Task,,JOSU26,
Yes-No Task,50,0,50,0,6.7,-1,Correct Rejection,0.557817082852,False,-1,stimulus_JOSU26_Yes-No Task_2019_Jun_13_0920_576,-1,False,2019_Jun_13_0920,Yes-No Task,,JOSU26,
Yes-No Task,51,0,51,0,6.7,-1,Hit,0.604095710441,True,-1,stimulus_JOSU26_Yes-No Task_2019_Jun_13_0920_577,-1,False,2019_Jun_13_0920,Yes-No Task,,JOSU26,
Yes-No Task,52,0,52,0,6.7,-1,Hit,0.490889526438,True,-1,stimulus_JOSU26_Yes-No Task_2019_Jun_13_0920_578,-1,False,2019_Jun_13_0920,Yes-No Task,,JOSU26,
Yes-No Task,53,0,53,0,6.7,-1,Hit,0.40248003928,True,-1,stimulus_JOSU26_Yes-No Task_2019_Jun_13_0920_579,-1,False,2019_Jun_13_0920,Yes-No Task,,JOSU26,
Yes-No Task,54,0,54,0,6.7,-1,Correct Rejection,0.535355583765,False,-1,stimulus_JOSU26_Yes-No Task_2019_Jun_13_0920_580,-1,False,2019_Jun_13_0920,Yes-No Task,,JOSU26,
Yes-No Task,55,0,55,0,6.7,-1,Hit,0.471353183035,True,-1,stimulus_JOSU26_Yes-No Task_2019_Jun_13_0920_581,-1,False,2019_Jun_13_0920,Yes-No Task,,JOSU26,
Yes-No Task,56,0,56,0,6.7,-1,Correct Rejection,0.435871150345,False,-1,stimulus_JOSU26_Yes-No Task_2019_Jun_13_0920_582,-1,False,2019_Jun_13_0920,Yes-No Task,,JOSU26,
Yes-No Task,57,0,57,0,6.7,-1,Correct Rejection,0.538759028073,False,-1,stimulus_JOSU26_Yes-No Task_2019_Jun_13_0920_583,-1,False,2019_Jun_13_0920,Yes-No Task,,JOSU26,
Yes-No Task,58,0,58,0,6.7,-1,False Alarm,0.501488647424,False,-1,stimulus_JOSU26_Yes-No Task_2019_Jun_13_0920_584,-1,False,2019_Jun_13_0920,Yes-No Task,,JOSU26,
Yes-No Task,59,0,59,0,6.7,-1,Hit,0.433927615639,True,-1,stimulus_JOSU26_Yes-No Task_2019_Jun_13_0920_585,-1,False,2019_Jun_13_0920,Yes-No Task,,JOSU26,
Yes-No Task,60,0,60,0,6.7,-1,Miss,0.535347372759,True,-1,stimulus_JOSU26_Yes-No Task_2019_Jun_13_0920_586,-1,False,2019_Jun_13_0920,Yes-No Task,,JOSU26,
Yes-No Task,61,0,61,0,6.7,-1,Correct Rejection,0.478169513866,False,-1,stimulus_JOSU26_Yes-No Task_2019_Jun_13_0920_587,-1,False,2019_Jun_13_0920,Yes-No Task,,JOSU26,
Yes-No Task,62,0,62,0,6.7,-1,Correct Rejection,0.591186434962,False,-1,stimulus_JOSU26_Yes-No Task_2019_Jun_13_0920_588,-1,False,2019_Jun_13_0920,Yes-No Task,,JOSU26,
Yes-No Task,63,0,63,0,6.7,-1,Correct Rejection,0.468301168177,False,-1,stimulus_JOSU26_Yes-No Task_2019_Jun_13_0920_589,-1,False,2019_Jun_13_0920,Yes-No Task,,JOSU26,
Yes-No Task,64,0,64,0,6.7,-1,Hit,0.467744464986,True,-1,stimulus_JOSU26_Yes-No Task_2019_Jun_13_0920_590,-1,False,2019_Jun_13_0920,Yes-No Task,,JOSU26,
Yes-No Task,65,0,65,0,6.7,-1,Correct Rejection,0.567382443696,False,-1,stimulus_JOSU26_Yes-No Task_2019_Jun_13_0920_591,-1,False,2019_Jun_13_0920,Yes-No Task,,JOSU26,
Yes-No Task,66,0,66,0,6.7,-1,Hit,0.560440485366,True,-1,stimulus_JOSU26_Yes-No Task_2019_Jun_13_0920_592,-1,False,2019_Jun_13_0920,Yes-No Task,,JOSU26,
Yes-No Task,67,0,67,0,6.7,-1,Correct Rejection,0.535703728441,False,-1,stimulus_JOSU26_Yes-No Task_2019_Jun_13_0920_593,-1,False,2019_Jun_13_0920,Yes-No Task,,JOSU26,
Yes-No Task,68,0,68,0,6.7,-1,Hit,0.503947420511,True,-1,stimulus_JOSU26_Yes-No Task_2019_Jun_13_0920_594,-1,False,2019_Jun_13_0920,Yes-No Task,,JOSU26,
Yes-No Task,69,0,69,0,6.7,-1,Miss,0.767374807503,True,-1,stimulus_JOSU26_Yes-No Task_2019_Jun_13_0920_595,-1,False,2019_Jun_13_0920,Yes-No Task,,JOSU26,
Yes-No Task,70,0,70,0,6.7,-1,False Alarm,0.695122852456,False,-1,stimulus_JOSU26_Yes-No Task_2019_Jun_13_0920_596,-1,False,2019_Jun_13_0920,Yes-No Task,,JOSU26,
Yes-No Task,71,0,71,0,6.7,-1,Hit,0.637295916677,True,-1,stimulus_JOSU26_Yes-No Task_2019_Jun_13_0920_597,-1,False,2019_Jun_13_0920,Yes-No Task,,JOSU26,
Yes-No Task,72,0,72,0,6.7,-1,Hit,0.673018530477,True,-1,stimulus_JOSU26_Yes-No Task_2019_Jun_13_0920_598,-1,False,2019_Jun_13_0920,Yes-No Task,,JOSU26,
Yes-No Task,73,0,73,0,6.7,-1,Hit,0.500330901705,True,-1,stimulus_JOSU26_Yes-No Task_2019_Jun_13_0920_599,-1,False,2019_Jun_13_0920,Yes-No Task,,JOSU26,
Yes-No Task,74,0,74,0,6.7,-1,Hit,0.467776487581,True,-1,stimulus_JOSU26_Yes-No Task_2019_Jun_13_0920_600,-1,False,2019_Jun_13_0920,Yes-No Task,,JOSU26,
