Task,trials.thisRepN,trials.thisTrialN,trials.thisN,trials.thisIndex,signal_intensity,constant Value,response,time_response,signal_on_stimuluspos1,signal_on_stimuluspos2,stimulus_name_pos1,stimulus_name_pos2,random_intensity,date,expName,session,participant,
Yes-No Task,0,0,0,0,3.5,-1,Correct Rejection,0.43279189989,False,-1,stimulus_KLRU16_Yes-No Task_2019_Jun_13_1535_1,-1,True,2019_Jun_13_1535,Yes-No Task,2,KLRU16,
Yes-No Task,1,0,1,0,8.4,-1,Miss,0.500574300066,True,-1,stimulus_KLRU16_Yes-No Task_2019_Jun_13_1535_2,-1,True,2019_Jun_13_1535,Yes-No Task,2,KLRU16,
Yes-No Task,2,0,2,0,8.4,-1,Hit,0.634780599969,True,-1,stimulus_KLRU16_Yes-No Task_2019_Jun_13_1535_3,-1,True,2019_Jun_13_1535,Yes-No Task,2,KLRU16,
Yes-No Task,3,0,3,0,11.6,-1,Hit,0.56738890009,True,-1,stimulus_KLRU16_Yes-No Task_2019_Jun_13_1535_4,-1,True,2019_Jun_13_1535,Yes-No Task,2,KLRU16,
Yes-No Task,4,0,4,0,6.4,-1,Correct Rejection,0.533459499944,False,-1,stimulus_KLRU16_Yes-No Task_2019_Jun_13_1535_5,-1,True,2019_Jun_13_1535,Yes-No Task,2,KLRU16,
Yes-No Task,5,0,5,0,3.5,-1,Miss,0.534051000141,True,-1,stimulus_KLRU16_Yes-No Task_2019_Jun_13_1535_6,-1,True,2019_Jun_13_1535,Yes-No Task,2,KLRU16,
Yes-No Task,6,0,6,0,11.6,-1,Correct Rejection,0.600621700054,False,-1,stimulus_KLRU16_Yes-No Task_2019_Jun_13_1535_7,-1,True,2019_Jun_13_1535,Yes-No Task,2,KLRU16,
Yes-No Task,7,0,7,0,6.4,-1,Correct Rejection,0.567727599991,False,-1,stimulus_KLRU16_Yes-No Task_2019_Jun_13_1535_8,-1,True,2019_Jun_13_1535,Yes-No Task,2,KLRU16,
Yes-No Task,8,0,8,0,6.4,-1,Hit,0.568925400032,True,-1,stimulus_KLRU16_Yes-No Task_2019_Jun_13_1535_9,-1,True,2019_Jun_13_1535,Yes-No Task,2,KLRU16,
Yes-No Task,9,0,9,0,6.4,-1,False Alarm,0.667368400143,False,-1,stimulus_KLRU16_Yes-No Task_2019_Jun_13_1535_10,-1,True,2019_Jun_13_1535,Yes-No Task,2,KLRU16,
Yes-No Task,10,0,10,0,11.6,-1,False Alarm,0.735566399992,False,-1,stimulus_KLRU16_Yes-No Task_2019_Jun_13_1535_11,-1,True,2019_Jun_13_1535,Yes-No Task,2,KLRU16,
Yes-No Task,11,0,11,0,5.1,-1,Miss,0.769308099989,True,-1,stimulus_KLRU16_Yes-No Task_2019_Jun_13_1535_12,-1,True,2019_Jun_13_1535,Yes-No Task,2,KLRU16,
Yes-No Task,12,0,12,0,8.4,-1,Correct Rejection,0.73193540005,False,-1,stimulus_KLRU16_Yes-No Task_2019_Jun_13_1535_13,-1,True,2019_Jun_13_1535,Yes-No Task,2,KLRU16,
Yes-No Task,13,0,13,0,5.1,-1,Correct Rejection,0.564064400038,False,-1,stimulus_KLRU16_Yes-No Task_2019_Jun_13_1535_14,-1,True,2019_Jun_13_1535,Yes-No Task,2,KLRU16,
Yes-No Task,14,0,14,0,7.4,-1,Hit,0.667586199939,True,-1,stimulus_KLRU16_Yes-No Task_2019_Jun_13_1535_15,-1,True,2019_Jun_13_1535,Yes-No Task,2,KLRU16,
Yes-No Task,15,0,15,0,5.1,-1,Miss,0.700087299803,True,-1,stimulus_KLRU16_Yes-No Task_2019_Jun_13_1535_16,-1,True,2019_Jun_13_1535,Yes-No Task,2,KLRU16,
Yes-No Task,16,0,16,0,7.4,-1,Hit,0.600896899821,True,-1,stimulus_KLRU16_Yes-No Task_2019_Jun_13_1535_17,-1,True,2019_Jun_13_1535,Yes-No Task,2,KLRU16,
Yes-No Task,17,0,17,0,10.4,-1,Hit,0.567430600058,True,-1,stimulus_KLRU16_Yes-No Task_2019_Jun_13_1535_18,-1,True,2019_Jun_13_1535,Yes-No Task,2,KLRU16,
Yes-No Task,18,0,18,0,5.1,-1,Hit,0.667401399929,True,-1,stimulus_KLRU16_Yes-No Task_2019_Jun_13_1535_19,-1,True,2019_Jun_13_1535,Yes-No Task,2,KLRU16,
Yes-No Task,19,0,19,0,10.4,-1,Correct Rejection,0.867649399908,False,-1,stimulus_KLRU16_Yes-No Task_2019_Jun_13_1535_20,-1,True,2019_Jun_13_1535,Yes-No Task,2,KLRU16,
Yes-No Task,20,0,20,0,10.4,-1,Correct Rejection,0.601755799958,False,-1,stimulus_KLRU16_Yes-No Task_2019_Jun_13_1535_21,-1,True,2019_Jun_13_1535,Yes-No Task,2,KLRU16,
Yes-No Task,21,0,21,0,10.4,-1,Correct Rejection,0.666745999828,False,-1,stimulus_KLRU16_Yes-No Task_2019_Jun_13_1535_22,-1,True,2019_Jun_13_1535,Yes-No Task,2,KLRU16,
Yes-No Task,22,0,22,0,3.5,-1,No Answer,-1,False,-1,stimulus_KLRU16_Yes-No Task_2019_Jun_13_1535_23,-1,True,2019_Jun_13_1535,Yes-No Task,2,KLRU16,
Yes-No Task,23,0,23,0,3.5,-1,Correct Rejection,0.867342199897,False,-1,stimulus_KLRU16_Yes-No Task_2019_Jun_13_1535_24,-1,True,2019_Jun_13_1535,Yes-No Task,2,KLRU16,
Yes-No Task,24,0,24,0,8.4,-1,Hit,0.532481099945,True,-1,stimulus_KLRU16_Yes-No Task_2019_Jun_13_1535_25,-1,True,2019_Jun_13_1535,Yes-No Task,2,KLRU16,
Yes-No Task,25,0,25,0,6.4,-1,False Alarm,0.500550700119,False,-1,stimulus_KLRU16_Yes-No Task_2019_Jun_13_1535_26,-1,True,2019_Jun_13_1535,Yes-No Task,2,KLRU16,
Yes-No Task,26,0,26,0,5.1,-1,False Alarm,0.534175700042,False,-1,stimulus_KLRU16_Yes-No Task_2019_Jun_13_1535_27,-1,True,2019_Jun_13_1535,Yes-No Task,2,KLRU16,
Yes-No Task,27,0,27,0,11.6,-1,Hit,0.499593999935,True,-1,stimulus_KLRU16_Yes-No Task_2019_Jun_13_1535_28,-1,True,2019_Jun_13_1535,Yes-No Task,2,KLRU16,
Yes-No Task,28,0,28,0,8.4,-1,Hit,0.567993599921,True,-1,stimulus_KLRU16_Yes-No Task_2019_Jun_13_1535_29,-1,True,2019_Jun_13_1535,Yes-No Task,2,KLRU16,
Yes-No Task,29,0,29,0,8.4,-1,Correct Rejection,0.500354200136,False,-1,stimulus_KLRU16_Yes-No Task_2019_Jun_13_1535_30,-1,True,2019_Jun_13_1535,Yes-No Task,2,KLRU16,
Yes-No Task,30,0,30,0,8.4,-1,Hit,0.534131499939,True,-1,stimulus_KLRU16_Yes-No Task_2019_Jun_13_1535_31,-1,True,2019_Jun_13_1535,Yes-No Task,2,KLRU16,
Yes-No Task,31,0,31,0,7.4,-1,Hit,0.600475799991,True,-1,stimulus_KLRU16_Yes-No Task_2019_Jun_13_1535_32,-1,True,2019_Jun_13_1535,Yes-No Task,2,KLRU16,
Yes-No Task,32,0,32,0,11.6,-1,Correct Rejection,0.567940000212,False,-1,stimulus_KLRU16_Yes-No Task_2019_Jun_13_1535_33,-1,True,2019_Jun_13_1535,Yes-No Task,2,KLRU16,
Yes-No Task,33,0,33,0,5.1,-1,Hit,0.567179100122,True,-1,stimulus_KLRU16_Yes-No Task_2019_Jun_13_1535_34,-1,True,2019_Jun_13_1535,Yes-No Task,2,KLRU16,
Yes-No Task,34,0,34,0,3.5,-1,Hit,0.702845199965,True,-1,stimulus_KLRU16_Yes-No Task_2019_Jun_13_1535_35,-1,True,2019_Jun_13_1535,Yes-No Task,2,KLRU16,
Yes-No Task,35,0,35,0,8.4,-1,Hit,0.534653500188,True,-1,stimulus_KLRU16_Yes-No Task_2019_Jun_13_1535_36,-1,True,2019_Jun_13_1535,Yes-No Task,2,KLRU16,
Yes-No Task,36,0,36,0,7.4,-1,Correct Rejection,0.600232899887,False,-1,stimulus_KLRU16_Yes-No Task_2019_Jun_13_1535_37,-1,True,2019_Jun_13_1535,Yes-No Task,2,KLRU16,
Yes-No Task,37,0,37,0,10.4,-1,Hit,0.533362200018,True,-1,stimulus_KLRU16_Yes-No Task_2019_Jun_13_1535_38,-1,True,2019_Jun_13_1535,Yes-No Task,2,KLRU16,
Yes-No Task,38,0,38,0,7.4,-1,Hit,0.634489400079,True,-1,stimulus_KLRU16_Yes-No Task_2019_Jun_13_1535_39,-1,True,2019_Jun_13_1535,Yes-No Task,2,KLRU16,
Yes-No Task,39,0,39,0,6.4,-1,False Alarm,0.699545399984,False,-1,stimulus_KLRU16_Yes-No Task_2019_Jun_13_1535_40,-1,True,2019_Jun_13_1535,Yes-No Task,2,KLRU16,
Yes-No Task,40,0,40,0,5.1,-1,Correct Rejection,0.834217000054,False,-1,stimulus_KLRU16_Yes-No Task_2019_Jun_13_1535_41,-1,True,2019_Jun_13_1535,Yes-No Task,2,KLRU16,
Yes-No Task,41,0,41,0,7.4,-1,Correct Rejection,0.567589899991,False,-1,stimulus_KLRU16_Yes-No Task_2019_Jun_13_1535_42,-1,True,2019_Jun_13_1535,Yes-No Task,2,KLRU16,
Yes-No Task,42,0,42,0,3.5,-1,False Alarm,0.600588700036,False,-1,stimulus_KLRU16_Yes-No Task_2019_Jun_13_1535_43,-1,True,2019_Jun_13_1535,Yes-No Task,2,KLRU16,
Yes-No Task,43,0,43,0,7.4,-1,Hit,0.600991900079,True,-1,stimulus_KLRU16_Yes-No Task_2019_Jun_13_1535_44,-1,True,2019_Jun_13_1535,Yes-No Task,2,KLRU16,
Yes-No Task,44,0,44,0,7.4,-1,Hit,0.734132099897,True,-1,stimulus_KLRU16_Yes-No Task_2019_Jun_13_1535_45,-1,True,2019_Jun_13_1535,Yes-No Task,2,KLRU16,
Yes-No Task,45,0,45,0,8.4,-1,Hit,0.668445300078,True,-1,stimulus_KLRU16_Yes-No Task_2019_Jun_13_1535_46,-1,True,2019_Jun_13_1535,Yes-No Task,2,KLRU16,
Yes-No Task,46,0,46,0,10.4,-1,Correct Rejection,0.599291699938,False,-1,stimulus_KLRU16_Yes-No Task_2019_Jun_13_1535_47,-1,True,2019_Jun_13_1535,Yes-No Task,2,KLRU16,
Yes-No Task,47,0,47,0,7.4,-1,Correct Rejection,0.600472199963,False,-1,stimulus_KLRU16_Yes-No Task_2019_Jun_13_1535_48,-1,True,2019_Jun_13_1535,Yes-No Task,2,KLRU16,
Yes-No Task,48,0,48,0,11.6,-1,Hit,0.46581199998,True,-1,stimulus_KLRU16_Yes-No Task_2019_Jun_13_1535_49,-1,True,2019_Jun_13_1535,Yes-No Task,2,KLRU16,
Yes-No Task,49,0,49,0,6.4,-1,Correct Rejection,0.63411040022,False,-1,stimulus_KLRU16_Yes-No Task_2019_Jun_13_1535_50,-1,True,2019_Jun_13_1535,Yes-No Task,2,KLRU16,
Yes-No Task,50,0,50,0,6.4,-1,Hit,0.500647800043,True,-1,stimulus_KLRU16_Yes-No Task_2019_Jun_13_1535_51,-1,True,2019_Jun_13_1535,Yes-No Task,2,KLRU16,
Yes-No Task,51,0,51,0,8.4,-1,Hit,0.533645899966,True,-1,stimulus_KLRU16_Yes-No Task_2019_Jun_13_1535_52,-1,True,2019_Jun_13_1535,Yes-No Task,2,KLRU16,
Yes-No Task,52,0,52,0,6.4,-1,Correct Rejection,0.466772400076,False,-1,stimulus_KLRU16_Yes-No Task_2019_Jun_13_1535_53,-1,True,2019_Jun_13_1535,Yes-No Task,2,KLRU16,
Yes-No Task,53,0,53,0,5.1,-1,Hit,0.534352699993,True,-1,stimulus_KLRU16_Yes-No Task_2019_Jun_13_1535_54,-1,True,2019_Jun_13_1535,Yes-No Task,2,KLRU16,
Yes-No Task,54,0,54,0,3.5,-1,Miss,0.467651000014,True,-1,stimulus_KLRU16_Yes-No Task_2019_Jun_13_1535_55,-1,True,2019_Jun_13_1535,Yes-No Task,2,KLRU16,
Yes-No Task,55,0,55,0,6.4,-1,Hit,0.600572600029,True,-1,stimulus_KLRU16_Yes-No Task_2019_Jun_13_1535_56,-1,True,2019_Jun_13_1535,Yes-No Task,2,KLRU16,
Yes-No Task,56,0,56,0,8.4,-1,Hit,0.501392599894,True,-1,stimulus_KLRU16_Yes-No Task_2019_Jun_13_1535_57,-1,True,2019_Jun_13_1535,Yes-No Task,2,KLRU16,
Yes-No Task,57,0,57,0,7.4,-1,Correct Rejection,0.535592200002,False,-1,stimulus_KLRU16_Yes-No Task_2019_Jun_13_1535_58,-1,True,2019_Jun_13_1535,Yes-No Task,2,KLRU16,
Yes-No Task,58,0,58,0,7.4,-1,Correct Rejection,0.566608099965,False,-1,stimulus_KLRU16_Yes-No Task_2019_Jun_13_1535_59,-1,True,2019_Jun_13_1535,Yes-No Task,2,KLRU16,
Yes-No Task,59,0,59,0,7.4,-1,Hit,0.497652800055,True,-1,stimulus_KLRU16_Yes-No Task_2019_Jun_13_1535_60,-1,True,2019_Jun_13_1535,Yes-No Task,2,KLRU16,
Yes-No Task,60,0,60,0,5.1,-1,Correct Rejection,0.53479649988,False,-1,stimulus_KLRU16_Yes-No Task_2019_Jun_13_1535_61,-1,True,2019_Jun_13_1535,Yes-No Task,2,KLRU16,
Yes-No Task,61,0,61,0,5.1,-1,Hit,0.634022899903,True,-1,stimulus_KLRU16_Yes-No Task_2019_Jun_13_1535_62,-1,True,2019_Jun_13_1535,Yes-No Task,2,KLRU16,
Yes-No Task,62,0,62,0,10.4,-1,Correct Rejection,0.500383199891,False,-1,stimulus_KLRU16_Yes-No Task_2019_Jun_13_1535_63,-1,True,2019_Jun_13_1535,Yes-No Task,2,KLRU16,
Yes-No Task,63,0,63,0,5.1,-1,Correct Rejection,0.66740070004,False,-1,stimulus_KLRU16_Yes-No Task_2019_Jun_13_1535_64,-1,True,2019_Jun_13_1535,Yes-No Task,2,KLRU16,
Yes-No Task,64,0,64,0,5.1,-1,Hit,0.533984799869,True,-1,stimulus_KLRU16_Yes-No Task_2019_Jun_13_1535_65,-1,True,2019_Jun_13_1535,Yes-No Task,2,KLRU16,
Yes-No Task,65,0,65,0,9.3,-1,False Alarm,0.600166599965,False,-1,stimulus_KLRU16_Yes-No Task_2019_Jun_13_1535_66,-1,True,2019_Jun_13_1535,Yes-No Task,2,KLRU16,
Yes-No Task,66,0,66,0,5.1,-1,Hit,0.566782100126,True,-1,stimulus_KLRU16_Yes-No Task_2019_Jun_13_1535_67,-1,True,2019_Jun_13_1535,Yes-No Task,2,KLRU16,
Yes-No Task,67,0,67,0,7.4,-1,Correct Rejection,0.500746699981,False,-1,stimulus_KLRU16_Yes-No Task_2019_Jun_13_1535_68,-1,True,2019_Jun_13_1535,Yes-No Task,2,KLRU16,
Yes-No Task,68,0,68,0,5.1,-1,Hit,0.568431399995,True,-1,stimulus_KLRU16_Yes-No Task_2019_Jun_13_1535_69,-1,True,2019_Jun_13_1535,Yes-No Task,2,KLRU16,
Yes-No Task,69,0,69,0,9.3,-1,False Alarm,0.567237100098,False,-1,stimulus_KLRU16_Yes-No Task_2019_Jun_13_1535_70,-1,True,2019_Jun_13_1535,Yes-No Task,2,KLRU16,
Yes-No Task,70,0,70,0,5.1,-1,Hit,0.603122199886,True,-1,stimulus_KLRU16_Yes-No Task_2019_Jun_13_1535_71,-1,True,2019_Jun_13_1535,Yes-No Task,2,KLRU16,
Yes-No Task,71,0,71,0,10.4,-1,Hit,0.566747299861,True,-1,stimulus_KLRU16_Yes-No Task_2019_Jun_13_1535_72,-1,True,2019_Jun_13_1535,Yes-No Task,2,KLRU16,
Yes-No Task,72,0,72,0,11.6,-1,Hit,0.500841200119,True,-1,stimulus_KLRU16_Yes-No Task_2019_Jun_13_1535_73,-1,True,2019_Jun_13_1535,Yes-No Task,2,KLRU16,
Yes-No Task,73,0,73,0,3.5,-1,Hit,0.600539400009,True,-1,stimulus_KLRU16_Yes-No Task_2019_Jun_13_1535_74,-1,True,2019_Jun_13_1535,Yes-No Task,2,KLRU16,
Yes-No Task,74,0,74,0,9.3,-1,Hit,0.567654700018,True,-1,stimulus_KLRU16_Yes-No Task_2019_Jun_13_1535_75,-1,True,2019_Jun_13_1535,Yes-No Task,2,KLRU16,
Yes-No Task,0,0,0,0,6.4,-1,Correct Rejection,0.666559200035,False,-1,stimulus_KLRU16_Yes-No Task_2019_Jun_13_1535_76,-1,True,2019_Jun_13_1535,Yes-No Task,2,KLRU16,
Yes-No Task,1,0,1,0,8.4,-1,Correct Rejection,0.567811699817,False,-1,stimulus_KLRU16_Yes-No Task_2019_Jun_13_1535_77,-1,True,2019_Jun_13_1535,Yes-No Task,2,KLRU16,
Yes-No Task,2,0,2,0,5.1,-1,Hit,0.600961799966,True,-1,stimulus_KLRU16_Yes-No Task_2019_Jun_13_1535_78,-1,True,2019_Jun_13_1535,Yes-No Task,2,KLRU16,
Yes-No Task,3,0,3,0,10.4,-1,Hit,0.568403399782,True,-1,stimulus_KLRU16_Yes-No Task_2019_Jun_13_1535_79,-1,True,2019_Jun_13_1535,Yes-No Task,2,KLRU16,
Yes-No Task,4,0,4,0,3.5,-1,Correct Rejection,0.631801400101,False,-1,stimulus_KLRU16_Yes-No Task_2019_Jun_13_1535_80,-1,True,2019_Jun_13_1535,Yes-No Task,2,KLRU16,
Yes-No Task,5,0,5,0,3.5,-1,Correct Rejection,0.534689600114,False,-1,stimulus_KLRU16_Yes-No Task_2019_Jun_13_1535_81,-1,True,2019_Jun_13_1535,Yes-No Task,2,KLRU16,
Yes-No Task,6,0,6,0,7.4,-1,Correct Rejection,0.567282399861,False,-1,stimulus_KLRU16_Yes-No Task_2019_Jun_13_1535_82,-1,True,2019_Jun_13_1535,Yes-No Task,2,KLRU16,
Yes-No Task,7,0,7,0,11.6,-1,Hit,0.501037100097,True,-1,stimulus_KLRU16_Yes-No Task_2019_Jun_13_1535_83,-1,True,2019_Jun_13_1535,Yes-No Task,2,KLRU16,
Yes-No Task,8,0,8,0,6.4,-1,False Alarm,0.567023999989,False,-1,stimulus_KLRU16_Yes-No Task_2019_Jun_13_1535_84,-1,True,2019_Jun_13_1535,Yes-No Task,2,KLRU16,
Yes-No Task,9,0,9,0,8.4,-1,Correct Rejection,0.533191599883,False,-1,stimulus_KLRU16_Yes-No Task_2019_Jun_13_1535_85,-1,True,2019_Jun_13_1535,Yes-No Task,2,KLRU16,
Yes-No Task,10,0,10,0,5.1,-1,Correct Rejection,0.599385299953,False,-1,stimulus_KLRU16_Yes-No Task_2019_Jun_13_1535_86,-1,True,2019_Jun_13_1535,Yes-No Task,2,KLRU16,
Yes-No Task,11,0,11,0,3.5,-1,Correct Rejection,0.597665099893,False,-1,stimulus_KLRU16_Yes-No Task_2019_Jun_13_1535_87,-1,True,2019_Jun_13_1535,Yes-No Task,2,KLRU16,
Yes-No Task,12,0,12,0,7.4,-1,False Alarm,0.734193400014,False,-1,stimulus_KLRU16_Yes-No Task_2019_Jun_13_1535_88,-1,True,2019_Jun_13_1535,Yes-No Task,2,KLRU16,
Yes-No Task,13,0,13,0,10.4,-1,Correct Rejection,0.667396799894,False,-1,stimulus_KLRU16_Yes-No Task_2019_Jun_13_1535_89,-1,True,2019_Jun_13_1535,Yes-No Task,2,KLRU16,
Yes-No Task,14,0,14,0,10.4,-1,Hit,0.567525799852,True,-1,stimulus_KLRU16_Yes-No Task_2019_Jun_13_1535_90,-1,True,2019_Jun_13_1535,Yes-No Task,2,KLRU16,
Yes-No Task,15,0,15,0,6.4,-1,False Alarm,0.467006499879,False,-1,stimulus_KLRU16_Yes-No Task_2019_Jun_13_1535_91,-1,True,2019_Jun_13_1535,Yes-No Task,2,KLRU16,
Yes-No Task,16,0,16,0,5.1,-1,Hit,0.533133799909,True,-1,stimulus_KLRU16_Yes-No Task_2019_Jun_13_1535_92,-1,True,2019_Jun_13_1535,Yes-No Task,2,KLRU16,
Yes-No Task,17,0,17,0,6.4,-1,Hit,0.601013199892,True,-1,stimulus_KLRU16_Yes-No Task_2019_Jun_13_1535_93,-1,True,2019_Jun_13_1535,Yes-No Task,2,KLRU16,
Yes-No Task,18,0,18,0,8.4,-1,Hit,0.567570100073,True,-1,stimulus_KLRU16_Yes-No Task_2019_Jun_13_1535_94,-1,True,2019_Jun_13_1535,Yes-No Task,2,KLRU16,
Yes-No Task,19,0,19,0,11.6,-1,Hit,0.53317340021,True,-1,stimulus_KLRU16_Yes-No Task_2019_Jun_13_1535_95,-1,True,2019_Jun_13_1535,Yes-No Task,2,KLRU16,
Yes-No Task,20,0,20,0,7.4,-1,Correct Rejection,0.73306590016,False,-1,stimulus_KLRU16_Yes-No Task_2019_Jun_13_1535_96,-1,True,2019_Jun_13_1535,Yes-No Task,2,KLRU16,
Yes-No Task,21,0,21,0,10.4,-1,False Alarm,0.733228200115,False,-1,stimulus_KLRU16_Yes-No Task_2019_Jun_13_1535_97,-1,True,2019_Jun_13_1535,Yes-No Task,2,KLRU16,
Yes-No Task,22,0,22,0,6.4,-1,Correct Rejection,0.568289699964,False,-1,stimulus_KLRU16_Yes-No Task_2019_Jun_13_1535_98,-1,True,2019_Jun_13_1535,Yes-No Task,2,KLRU16,
Yes-No Task,23,0,23,0,7.4,-1,Correct Rejection,0.767464000033,False,-1,stimulus_KLRU16_Yes-No Task_2019_Jun_13_1535_99,-1,True,2019_Jun_13_1535,Yes-No Task,2,KLRU16,
Yes-No Task,24,0,24,0,5.1,-1,Miss,0.60091040004,True,-1,stimulus_KLRU16_Yes-No Task_2019_Jun_13_1535_100,-1,True,2019_Jun_13_1535,Yes-No Task,2,KLRU16,
Yes-No Task,25,0,25,0,9.3,-1,Correct Rejection,0.63385959994,False,-1,stimulus_KLRU16_Yes-No Task_2019_Jun_13_1535_101,-1,True,2019_Jun_13_1535,Yes-No Task,2,KLRU16,
Yes-No Task,26,0,26,0,7.4,-1,Correct Rejection,0.533466499997,False,-1,stimulus_KLRU16_Yes-No Task_2019_Jun_13_1535_102,-1,True,2019_Jun_13_1535,Yes-No Task,2,KLRU16,
Yes-No Task,27,0,27,0,3.5,-1,False Alarm,0.565612599952,False,-1,stimulus_KLRU16_Yes-No Task_2019_Jun_13_1535_103,-1,True,2019_Jun_13_1535,Yes-No Task,2,KLRU16,
Yes-No Task,28,0,28,0,9.3,-1,False Alarm,0.700477399863,False,-1,stimulus_KLRU16_Yes-No Task_2019_Jun_13_1535_104,-1,True,2019_Jun_13_1535,Yes-No Task,2,KLRU16,
Yes-No Task,29,0,29,0,10.4,-1,Hit,0.567339699948,True,-1,stimulus_KLRU16_Yes-No Task_2019_Jun_13_1535_105,-1,True,2019_Jun_13_1535,Yes-No Task,2,KLRU16,
Yes-No Task,30,0,30,0,11.6,-1,Hit,0.501518599922,True,-1,stimulus_KLRU16_Yes-No Task_2019_Jun_13_1535_106,-1,True,2019_Jun_13_1535,Yes-No Task,2,KLRU16,
Yes-No Task,31,0,31,0,9.3,-1,Correct Rejection,0.500723200152,False,-1,stimulus_KLRU16_Yes-No Task_2019_Jun_13_1535_107,-1,True,2019_Jun_13_1535,Yes-No Task,2,KLRU16,
Yes-No Task,32,0,32,0,8.4,-1,Correct Rejection,0.602786799893,False,-1,stimulus_KLRU16_Yes-No Task_2019_Jun_13_1535_108,-1,True,2019_Jun_13_1535,Yes-No Task,2,KLRU16,
Yes-No Task,33,0,33,0,3.5,-1,Correct Rejection,0.633865599986,False,-1,stimulus_KLRU16_Yes-No Task_2019_Jun_13_1535_109,-1,True,2019_Jun_13_1535,Yes-No Task,2,KLRU16,
Yes-No Task,34,0,34,0,8.4,-1,Hit,0.600805400172,True,-1,stimulus_KLRU16_Yes-No Task_2019_Jun_13_1535_110,-1,True,2019_Jun_13_1535,Yes-No Task,2,KLRU16,
Yes-No Task,35,0,35,0,7.4,-1,Hit,0.534250899917,True,-1,stimulus_KLRU16_Yes-No Task_2019_Jun_13_1535_111,-1,True,2019_Jun_13_1535,Yes-No Task,2,KLRU16,
Yes-No Task,36,0,36,0,3.5,-1,Correct Rejection,0.63397970004,False,-1,stimulus_KLRU16_Yes-No Task_2019_Jun_13_1535_112,-1,True,2019_Jun_13_1535,Yes-No Task,2,KLRU16,
Yes-No Task,37,0,37,0,6.4,-1,Correct Rejection,0.700089699822,False,-1,stimulus_KLRU16_Yes-No Task_2019_Jun_13_1535_113,-1,True,2019_Jun_13_1535,Yes-No Task,2,KLRU16,
Yes-No Task,38,0,38,0,10.4,-1,Correct Rejection,0.56909730006,False,-1,stimulus_KLRU16_Yes-No Task_2019_Jun_13_1535_114,-1,True,2019_Jun_13_1535,Yes-No Task,2,KLRU16,
Yes-No Task,39,0,39,0,7.4,-1,Hit,0.633625499904,True,-1,stimulus_KLRU16_Yes-No Task_2019_Jun_13_1535_115,-1,True,2019_Jun_13_1535,Yes-No Task,2,KLRU16,
Yes-No Task,40,0,40,0,10.4,-1,Hit,0.537356500048,True,-1,stimulus_KLRU16_Yes-No Task_2019_Jun_13_1535_116,-1,True,2019_Jun_13_1535,Yes-No Task,2,KLRU16,
Yes-No Task,41,0,41,0,9.3,-1,Correct Rejection,0.600660899887,False,-1,stimulus_KLRU16_Yes-No Task_2019_Jun_13_1535_117,-1,True,2019_Jun_13_1535,Yes-No Task,2,KLRU16,
Yes-No Task,42,0,42,0,8.4,-1,Correct Rejection,0.801522700116,False,-1,stimulus_KLRU16_Yes-No Task_2019_Jun_13_1535_118,-1,True,2019_Jun_13_1535,Yes-No Task,2,KLRU16,
Yes-No Task,43,0,43,0,3.5,-1,Correct Rejection,0.534662599908,False,-1,stimulus_KLRU16_Yes-No Task_2019_Jun_13_1535_119,-1,True,2019_Jun_13_1535,Yes-No Task,2,KLRU16,
Yes-No Task,44,0,44,0,5.1,-1,Hit,0.634447900113,True,-1,stimulus_KLRU16_Yes-No Task_2019_Jun_13_1535_120,-1,True,2019_Jun_13_1535,Yes-No Task,2,KLRU16,
Yes-No Task,45,0,45,0,11.6,-1,Hit,0.502120299963,True,-1,stimulus_KLRU16_Yes-No Task_2019_Jun_13_1535_121,-1,True,2019_Jun_13_1535,Yes-No Task,2,KLRU16,
Yes-No Task,46,0,46,0,6.4,-1,False Alarm,0.53408579994,False,-1,stimulus_KLRU16_Yes-No Task_2019_Jun_13_1535_122,-1,True,2019_Jun_13_1535,Yes-No Task,2,KLRU16,
Yes-No Task,47,0,47,0,10.4,-1,Hit,0.534761999967,True,-1,stimulus_KLRU16_Yes-No Task_2019_Jun_13_1535_123,-1,True,2019_Jun_13_1535,Yes-No Task,2,KLRU16,
Yes-No Task,48,0,48,0,6.4,-1,Miss,0.600433300016,True,-1,stimulus_KLRU16_Yes-No Task_2019_Jun_13_1535_124,-1,True,2019_Jun_13_1535,Yes-No Task,2,KLRU16,
Yes-No Task,49,0,49,0,10.4,-1,Hit,0.467319699936,True,-1,stimulus_KLRU16_Yes-No Task_2019_Jun_13_1535_125,-1,True,2019_Jun_13_1535,Yes-No Task,2,KLRU16,
Yes-No Task,50,0,50,0,7.4,-1,Hit,0.50348230009,True,-1,stimulus_KLRU16_Yes-No Task_2019_Jun_13_1535_126,-1,True,2019_Jun_13_1535,Yes-No Task,2,KLRU16,
Yes-No Task,51,0,51,0,3.5,-1,False Alarm,0.601350100012,False,-1,stimulus_KLRU16_Yes-No Task_2019_Jun_13_1535_127,-1,True,2019_Jun_13_1535,Yes-No Task,2,KLRU16,
Yes-No Task,52,0,52,0,10.4,-1,Hit,0.53633500007,True,-1,stimulus_KLRU16_Yes-No Task_2019_Jun_13_1535_128,-1,True,2019_Jun_13_1535,Yes-No Task,2,KLRU16,
Yes-No Task,53,0,53,0,3.5,-1,Miss,0.700663600117,True,-1,stimulus_KLRU16_Yes-No Task_2019_Jun_13_1535_129,-1,True,2019_Jun_13_1535,Yes-No Task,2,KLRU16,
Yes-No Task,54,0,54,0,10.4,-1,Hit,0.467440200038,True,-1,stimulus_KLRU16_Yes-No Task_2019_Jun_13_1535_130,-1,True,2019_Jun_13_1535,Yes-No Task,2,KLRU16,
Yes-No Task,55,0,55,0,3.5,-1,False Alarm,0.833946499974,False,-1,stimulus_KLRU16_Yes-No Task_2019_Jun_13_1535_131,-1,True,2019_Jun_13_1535,Yes-No Task,2,KLRU16,
Yes-No Task,56,0,56,0,8.4,-1,False Alarm,0.599777500145,False,-1,stimulus_KLRU16_Yes-No Task_2019_Jun_13_1535_132,-1,True,2019_Jun_13_1535,Yes-No Task,2,KLRU16,
Yes-No Task,57,0,57,0,7.4,-1,No Answer,-1,False,-1,stimulus_KLRU16_Yes-No Task_2019_Jun_13_1535_133,-1,True,2019_Jun_13_1535,Yes-No Task,2,KLRU16,
Yes-No Task,58,0,58,0,5.1,-1,Correct Rejection,0.667520999908,False,-1,stimulus_KLRU16_Yes-No Task_2019_Jun_13_1535_134,-1,True,2019_Jun_13_1535,Yes-No Task,2,KLRU16,
Yes-No Task,59,0,59,0,7.4,-1,False Alarm,0.599631000077,False,-1,stimulus_KLRU16_Yes-No Task_2019_Jun_13_1535_135,-1,True,2019_Jun_13_1535,Yes-No Task,2,KLRU16,
Yes-No Task,60,0,60,0,3.5,-1,Correct Rejection,0.535174000077,False,-1,stimulus_KLRU16_Yes-No Task_2019_Jun_13_1535_136,-1,True,2019_Jun_13_1535,Yes-No Task,2,KLRU16,
Yes-No Task,61,0,61,0,7.4,-1,Hit,0.569323400036,True,-1,stimulus_KLRU16_Yes-No Task_2019_Jun_13_1535_137,-1,True,2019_Jun_13_1535,Yes-No Task,2,KLRU16,
Yes-No Task,62,0,62,0,10.4,-1,Hit,0.533252900001,True,-1,stimulus_KLRU16_Yes-No Task_2019_Jun_13_1535_138,-1,True,2019_Jun_13_1535,Yes-No Task,2,KLRU16,
Yes-No Task,63,0,63,0,6.4,-1,Hit,0.501054600114,True,-1,stimulus_KLRU16_Yes-No Task_2019_Jun_13_1535_139,-1,True,2019_Jun_13_1535,Yes-No Task,2,KLRU16,
Yes-No Task,64,0,64,0,6.4,-1,Hit,0.533753999975,True,-1,stimulus_KLRU16_Yes-No Task_2019_Jun_13_1535_140,-1,True,2019_Jun_13_1535,Yes-No Task,2,KLRU16,
Yes-No Task,65,0,65,0,8.4,-1,Correct Rejection,0.499868500046,False,-1,stimulus_KLRU16_Yes-No Task_2019_Jun_13_1535_141,-1,True,2019_Jun_13_1535,Yes-No Task,2,KLRU16,
Yes-No Task,66,0,66,0,7.4,-1,Hit,0.566711499821,True,-1,stimulus_KLRU16_Yes-No Task_2019_Jun_13_1535_142,-1,True,2019_Jun_13_1535,Yes-No Task,2,KLRU16,
Yes-No Task,67,0,67,0,8.4,-1,Hit,0.567759800004,True,-1,stimulus_KLRU16_Yes-No Task_2019_Jun_13_1535_143,-1,True,2019_Jun_13_1535,Yes-No Task,2,KLRU16,
Yes-No Task,68,0,68,0,5.1,-1,Miss,0.466071099974,True,-1,stimulus_KLRU16_Yes-No Task_2019_Jun_13_1535_144,-1,True,2019_Jun_13_1535,Yes-No Task,2,KLRU16,
Yes-No Task,69,0,69,0,8.4,-1,Hit,0.533220499987,True,-1,stimulus_KLRU16_Yes-No Task_2019_Jun_13_1535_145,-1,True,2019_Jun_13_1535,Yes-No Task,2,KLRU16,
Yes-No Task,70,0,70,0,5.1,-1,Hit,0.533301900141,True,-1,stimulus_KLRU16_Yes-No Task_2019_Jun_13_1535_146,-1,True,2019_Jun_13_1535,Yes-No Task,2,KLRU16,
Yes-No Task,71,0,71,0,7.4,-1,Correct Rejection,0.635625700001,False,-1,stimulus_KLRU16_Yes-No Task_2019_Jun_13_1535_147,-1,True,2019_Jun_13_1535,Yes-No Task,2,KLRU16,
Yes-No Task,72,0,72,0,6.4,-1,Hit,0.566762499977,True,-1,stimulus_KLRU16_Yes-No Task_2019_Jun_13_1535_148,-1,True,2019_Jun_13_1535,Yes-No Task,2,KLRU16,
Yes-No Task,73,0,73,0,9.3,-1,Hit,0.567197700031,True,-1,stimulus_KLRU16_Yes-No Task_2019_Jun_13_1535_149,-1,True,2019_Jun_13_1535,Yes-No Task,2,KLRU16,
Yes-No Task,74,0,74,0,10.4,-1,Correct Rejection,0.501783600077,False,-1,stimulus_KLRU16_Yes-No Task_2019_Jun_13_1535_150,-1,True,2019_Jun_13_1535,Yes-No Task,2,KLRU16,
Yes-No Task,0,0,0,0,6.4,-1,Miss,0.60041929991,True,-1,stimulus_KLRU16_Yes-No Task_2019_Jun_13_1535_151,-1,True,2019_Jun_13_1535,Yes-No Task,2,KLRU16,
Yes-No Task,1,0,1,0,10.4,-1,Hit,0.465426799841,True,-1,stimulus_KLRU16_Yes-No Task_2019_Jun_13_1535_152,-1,True,2019_Jun_13_1535,Yes-No Task,2,KLRU16,
Yes-No Task,2,0,2,0,10.4,-1,Correct Rejection,0.566590300063,False,-1,stimulus_KLRU16_Yes-No Task_2019_Jun_13_1535_153,-1,True,2019_Jun_13_1535,Yes-No Task,2,KLRU16,
Yes-No Task,3,0,3,0,5.1,-1,Correct Rejection,0.465628799982,False,-1,stimulus_KLRU16_Yes-No Task_2019_Jun_13_1535_154,-1,True,2019_Jun_13_1535,Yes-No Task,2,KLRU16,
Yes-No Task,4,0,4,0,9.3,-1,Correct Rejection,0.467318400042,False,-1,stimulus_KLRU16_Yes-No Task_2019_Jun_13_1535_155,-1,True,2019_Jun_13_1535,Yes-No Task,2,KLRU16,
Yes-No Task,5,0,5,0,9.3,-1,Hit,0.467236600118,True,-1,stimulus_KLRU16_Yes-No Task_2019_Jun_13_1535_156,-1,True,2019_Jun_13_1535,Yes-No Task,2,KLRU16,
Yes-No Task,6,0,6,0,5.1,-1,Hit,0.467030700063,True,-1,stimulus_KLRU16_Yes-No Task_2019_Jun_13_1535_157,-1,True,2019_Jun_13_1535,Yes-No Task,2,KLRU16,
Yes-No Task,7,0,7,0,3.5,-1,Correct Rejection,0.567960900022,False,-1,stimulus_KLRU16_Yes-No Task_2019_Jun_13_1535_158,-1,True,2019_Jun_13_1535,Yes-No Task,2,KLRU16,
Yes-No Task,8,0,8,0,8.4,-1,Miss,0.633947599912,True,-1,stimulus_KLRU16_Yes-No Task_2019_Jun_13_1535_159,-1,True,2019_Jun_13_1535,Yes-No Task,2,KLRU16,
Yes-No Task,9,0,9,0,3.5,-1,Correct Rejection,0.634165800177,False,-1,stimulus_KLRU16_Yes-No Task_2019_Jun_13_1535_160,-1,True,2019_Jun_13_1535,Yes-No Task,2,KLRU16,
Yes-No Task,10,0,10,0,3.5,-1,Hit,0.601177700097,True,-1,stimulus_KLRU16_Yes-No Task_2019_Jun_13_1535_161,-1,True,2019_Jun_13_1535,Yes-No Task,2,KLRU16,
Yes-No Task,11,0,11,0,5.1,-1,False Alarm,0.600797800114,False,-1,stimulus_KLRU16_Yes-No Task_2019_Jun_13_1535_162,-1,True,2019_Jun_13_1535,Yes-No Task,2,KLRU16,
Yes-No Task,12,0,12,0,9.3,-1,Hit,0.531579300063,True,-1,stimulus_KLRU16_Yes-No Task_2019_Jun_13_1535_163,-1,True,2019_Jun_13_1535,Yes-No Task,2,KLRU16,
Yes-No Task,13,0,13,0,5.1,-1,Correct Rejection,0.499875799986,False,-1,stimulus_KLRU16_Yes-No Task_2019_Jun_13_1535_164,-1,True,2019_Jun_13_1535,Yes-No Task,2,KLRU16,
Yes-No Task,14,0,14,0,11.6,-1,Correct Rejection,0.535820600111,False,-1,stimulus_KLRU16_Yes-No Task_2019_Jun_13_1535_165,-1,True,2019_Jun_13_1535,Yes-No Task,2,KLRU16,
Yes-No Task,15,0,15,0,11.6,-1,Hit,0.533135999925,True,-1,stimulus_KLRU16_Yes-No Task_2019_Jun_13_1535_166,-1,True,2019_Jun_13_1535,Yes-No Task,2,KLRU16,
Yes-No Task,16,0,16,0,11.6,-1,Hit,0.633951300057,True,-1,stimulus_KLRU16_Yes-No Task_2019_Jun_13_1535_167,-1,True,2019_Jun_13_1535,Yes-No Task,2,KLRU16,
Yes-No Task,17,0,17,0,6.4,-1,Correct Rejection,0.499320900068,False,-1,stimulus_KLRU16_Yes-No Task_2019_Jun_13_1535_168,-1,True,2019_Jun_13_1535,Yes-No Task,2,KLRU16,
Yes-No Task,18,0,18,0,10.4,-1,Hit,0.63299679989,True,-1,stimulus_KLRU16_Yes-No Task_2019_Jun_13_1535_169,-1,True,2019_Jun_13_1535,Yes-No Task,2,KLRU16,
Yes-No Task,19,0,19,0,7.4,-1,Correct Rejection,0.533452600008,False,-1,stimulus_KLRU16_Yes-No Task_2019_Jun_13_1535_170,-1,True,2019_Jun_13_1535,Yes-No Task,2,KLRU16,
Yes-No Task,20,0,20,0,11.6,-1,Hit,0.50219239993,True,-1,stimulus_KLRU16_Yes-No Task_2019_Jun_13_1535_171,-1,True,2019_Jun_13_1535,Yes-No Task,2,KLRU16,
Yes-No Task,21,0,21,0,5.1,-1,Miss,0.503319700016,True,-1,stimulus_KLRU16_Yes-No Task_2019_Jun_13_1535_172,-1,True,2019_Jun_13_1535,Yes-No Task,2,KLRU16,
Yes-No Task,22,0,22,0,8.4,-1,Hit,0.601251699962,True,-1,stimulus_KLRU16_Yes-No Task_2019_Jun_13_1535_173,-1,True,2019_Jun_13_1535,Yes-No Task,2,KLRU16,
Yes-No Task,23,0,23,0,3.5,-1,Correct Rejection,0.467833099887,False,-1,stimulus_KLRU16_Yes-No Task_2019_Jun_13_1535_174,-1,True,2019_Jun_13_1535,Yes-No Task,2,KLRU16,
Yes-No Task,24,0,24,0,10.4,-1,Correct Rejection,0.668106900062,False,-1,stimulus_KLRU16_Yes-No Task_2019_Jun_13_1535_175,-1,True,2019_Jun_13_1535,Yes-No Task,2,KLRU16,
Yes-No Task,25,0,25,0,11.6,-1,Correct Rejection,0.533980000066,False,-1,stimulus_KLRU16_Yes-No Task_2019_Jun_13_1535_176,-1,True,2019_Jun_13_1535,Yes-No Task,2,KLRU16,
Yes-No Task,26,0,26,0,11.6,-1,Hit,0.535154499812,True,-1,stimulus_KLRU16_Yes-No Task_2019_Jun_13_1535_177,-1,True,2019_Jun_13_1535,Yes-No Task,2,KLRU16,
Yes-No Task,27,0,27,0,9.3,-1,Hit,0.500190800056,True,-1,stimulus_KLRU16_Yes-No Task_2019_Jun_13_1535_178,-1,True,2019_Jun_13_1535,Yes-No Task,2,KLRU16,
Yes-No Task,28,0,28,0,3.5,-1,Hit,0.566141700139,True,-1,stimulus_KLRU16_Yes-No Task_2019_Jun_13_1535_179,-1,True,2019_Jun_13_1535,Yes-No Task,2,KLRU16,
Yes-No Task,29,0,29,0,3.5,-1,Hit,0.567559999879,True,-1,stimulus_KLRU16_Yes-No Task_2019_Jun_13_1535_180,-1,True,2019_Jun_13_1535,Yes-No Task,2,KLRU16,
Yes-No Task,30,0,30,0,10.4,-1,Correct Rejection,0.6675024,False,-1,stimulus_KLRU16_Yes-No Task_2019_Jun_13_1535_181,-1,True,2019_Jun_13_1535,Yes-No Task,2,KLRU16,
Yes-No Task,31,0,31,0,5.1,-1,False Alarm,0.700807700166,False,-1,stimulus_KLRU16_Yes-No Task_2019_Jun_13_1535_182,-1,True,2019_Jun_13_1535,Yes-No Task,2,KLRU16,
Yes-No Task,32,0,32,0,7.4,-1,Hit,0.600900199963,True,-1,stimulus_KLRU16_Yes-No Task_2019_Jun_13_1535_183,-1,True,2019_Jun_13_1535,Yes-No Task,2,KLRU16,
Yes-No Task,33,0,33,0,11.6,-1,Hit,0.567274800036,True,-1,stimulus_KLRU16_Yes-No Task_2019_Jun_13_1535_184,-1,True,2019_Jun_13_1535,Yes-No Task,2,KLRU16,
Yes-No Task,34,0,34,0,7.4,-1,Hit,0.568496200023,True,-1,stimulus_KLRU16_Yes-No Task_2019_Jun_13_1535_185,-1,True,2019_Jun_13_1535,Yes-No Task,2,KLRU16,
Yes-No Task,35,0,35,0,7.4,-1,Correct Rejection,0.635449900059,False,-1,stimulus_KLRU16_Yes-No Task_2019_Jun_13_1535_186,-1,True,2019_Jun_13_1535,Yes-No Task,2,KLRU16,
Yes-No Task,36,0,36,0,7.4,-1,Hit,0.534438499948,True,-1,stimulus_KLRU16_Yes-No Task_2019_Jun_13_1535_187,-1,True,2019_Jun_13_1535,Yes-No Task,2,KLRU16,
Yes-No Task,37,0,37,0,6.4,-1,Hit,0.567907999968,True,-1,stimulus_KLRU16_Yes-No Task_2019_Jun_13_1535_188,-1,True,2019_Jun_13_1535,Yes-No Task,2,KLRU16,
Yes-No Task,38,0,38,0,6.4,-1,Correct Rejection,0.469375200104,False,-1,stimulus_KLRU16_Yes-No Task_2019_Jun_13_1535_189,-1,True,2019_Jun_13_1535,Yes-No Task,2,KLRU16,
Yes-No Task,39,0,39,0,11.6,-1,Hit,0.566534399986,True,-1,stimulus_KLRU16_Yes-No Task_2019_Jun_13_1535_190,-1,True,2019_Jun_13_1535,Yes-No Task,2,KLRU16,
Yes-No Task,40,0,40,0,8.4,-1,Correct Rejection,0.535933699924,False,-1,stimulus_KLRU16_Yes-No Task_2019_Jun_13_1535_191,-1,True,2019_Jun_13_1535,Yes-No Task,2,KLRU16,
Yes-No Task,41,0,41,0,6.4,-1,Correct Rejection,0.500778299989,False,-1,stimulus_KLRU16_Yes-No Task_2019_Jun_13_1535_192,-1,True,2019_Jun_13_1535,Yes-No Task,2,KLRU16,
Yes-No Task,42,0,42,0,11.6,-1,Hit,0.5672853,True,-1,stimulus_KLRU16_Yes-No Task_2019_Jun_13_1535_193,-1,True,2019_Jun_13_1535,Yes-No Task,2,KLRU16,
Yes-No Task,43,0,43,0,8.4,-1,Correct Rejection,0.500410299981,False,-1,stimulus_KLRU16_Yes-No Task_2019_Jun_13_1535_194,-1,True,2019_Jun_13_1535,Yes-No Task,2,KLRU16,
Yes-No Task,44,0,44,0,10.4,-1,Hit,0.533230099827,True,-1,stimulus_KLRU16_Yes-No Task_2019_Jun_13_1535_195,-1,True,2019_Jun_13_1535,Yes-No Task,2,KLRU16,
Yes-No Task,45,0,45,0,5.1,-1,Hit,0.633845899953,True,-1,stimulus_KLRU16_Yes-No Task_2019_Jun_13_1535_196,-1,True,2019_Jun_13_1535,Yes-No Task,2,KLRU16,
Yes-No Task,46,0,46,0,6.4,-1,Correct Rejection,0.534213699866,False,-1,stimulus_KLRU16_Yes-No Task_2019_Jun_13_1535_197,-1,True,2019_Jun_13_1535,Yes-No Task,2,KLRU16,
Yes-No Task,47,0,47,0,7.4,-1,Hit,0.56738230004,True,-1,stimulus_KLRU16_Yes-No Task_2019_Jun_13_1535_198,-1,True,2019_Jun_13_1535,Yes-No Task,2,KLRU16,
Yes-No Task,48,0,48,0,5.1,-1,Correct Rejection,0.534332799958,False,-1,stimulus_KLRU16_Yes-No Task_2019_Jun_13_1535_199,-1,True,2019_Jun_13_1535,Yes-No Task,2,KLRU16,
Yes-No Task,49,0,49,0,8.4,-1,Hit,0.534232500009,True,-1,stimulus_KLRU16_Yes-No Task_2019_Jun_13_1535_200,-1,True,2019_Jun_13_1535,Yes-No Task,2,KLRU16,
Yes-No Task,50,0,50,0,10.4,-1,Correct Rejection,0.46871070005,False,-1,stimulus_KLRU16_Yes-No Task_2019_Jun_13_1535_201,-1,True,2019_Jun_13_1535,Yes-No Task,2,KLRU16,
Yes-No Task,51,0,51,0,10.4,-1,Correct Rejection,0.768302199896,False,-1,stimulus_KLRU16_Yes-No Task_2019_Jun_13_1535_202,-1,True,2019_Jun_13_1535,Yes-No Task,2,KLRU16,
Yes-No Task,52,0,52,0,9.3,-1,Hit,0.533999199979,True,-1,stimulus_KLRU16_Yes-No Task_2019_Jun_13_1535_203,-1,True,2019_Jun_13_1535,Yes-No Task,2,KLRU16,
Yes-No Task,53,0,53,0,11.6,-1,Correct Rejection,0.534487399971,False,-1,stimulus_KLRU16_Yes-No Task_2019_Jun_13_1535_204,-1,True,2019_Jun_13_1535,Yes-No Task,2,KLRU16,
Yes-No Task,54,0,54,0,3.5,-1,Correct Rejection,0.766950099962,False,-1,stimulus_KLRU16_Yes-No Task_2019_Jun_13_1535_205,-1,True,2019_Jun_13_1535,Yes-No Task,2,KLRU16,
Yes-No Task,55,0,55,0,9.3,-1,Hit,0.533825200051,True,-1,stimulus_KLRU16_Yes-No Task_2019_Jun_13_1535_206,-1,True,2019_Jun_13_1535,Yes-No Task,2,KLRU16,
Yes-No Task,56,0,56,0,6.4,-1,Correct Rejection,0.500978600001,False,-1,stimulus_KLRU16_Yes-No Task_2019_Jun_13_1535_207,-1,True,2019_Jun_13_1535,Yes-No Task,2,KLRU16,
Yes-No Task,57,0,57,0,10.4,-1,Hit,0.53382900008,True,-1,stimulus_KLRU16_Yes-No Task_2019_Jun_13_1535_208,-1,True,2019_Jun_13_1535,Yes-No Task,2,KLRU16,
Yes-No Task,58,0,58,0,8.4,-1,Hit,0.568453699816,True,-1,stimulus_KLRU16_Yes-No Task_2019_Jun_13_1535_209,-1,True,2019_Jun_13_1535,Yes-No Task,2,KLRU16,
Yes-No Task,59,0,59,0,5.1,-1,Correct Rejection,0.433945899829,False,-1,stimulus_KLRU16_Yes-No Task_2019_Jun_13_1535_210,-1,True,2019_Jun_13_1535,Yes-No Task,2,KLRU16,
Yes-No Task,60,0,60,0,3.5,-1,Correct Rejection,0.600601600017,False,-1,stimulus_KLRU16_Yes-No Task_2019_Jun_13_1535_211,-1,True,2019_Jun_13_1535,Yes-No Task,2,KLRU16,
Yes-No Task,61,0,61,0,3.5,-1,Correct Rejection,0.60045090015,False,-1,stimulus_KLRU16_Yes-No Task_2019_Jun_13_1535_212,-1,True,2019_Jun_13_1535,Yes-No Task,2,KLRU16,
Yes-No Task,62,0,62,0,7.4,-1,Hit,0.5687398999,True,-1,stimulus_KLRU16_Yes-No Task_2019_Jun_13_1535_213,-1,True,2019_Jun_13_1535,Yes-No Task,2,KLRU16,
Yes-No Task,63,0,63,0,9.3,-1,Correct Rejection,0.567323100055,False,-1,stimulus_KLRU16_Yes-No Task_2019_Jun_13_1535_214,-1,True,2019_Jun_13_1535,Yes-No Task,2,KLRU16,
Yes-No Task,64,0,64,0,7.4,-1,Miss,0.567399699939,True,-1,stimulus_KLRU16_Yes-No Task_2019_Jun_13_1535_215,-1,True,2019_Jun_13_1535,Yes-No Task,2,KLRU16,
Yes-No Task,65,0,65,0,6.4,-1,Hit,0.633907600073,True,-1,stimulus_KLRU16_Yes-No Task_2019_Jun_13_1535_216,-1,True,2019_Jun_13_1535,Yes-No Task,2,KLRU16,
Yes-No Task,66,0,66,0,10.4,-1,Hit,0.500431299908,True,-1,stimulus_KLRU16_Yes-No Task_2019_Jun_13_1535_217,-1,True,2019_Jun_13_1535,Yes-No Task,2,KLRU16,
Yes-No Task,67,0,67,0,7.4,-1,Hit,0.534513999941,True,-1,stimulus_KLRU16_Yes-No Task_2019_Jun_13_1535_218,-1,True,2019_Jun_13_1535,Yes-No Task,2,KLRU16,
Yes-No Task,68,0,68,0,7.4,-1,Hit,0.567494399846,True,-1,stimulus_KLRU16_Yes-No Task_2019_Jun_13_1535_219,-1,True,2019_Jun_13_1535,Yes-No Task,2,KLRU16,
Yes-No Task,69,0,69,0,5.1,-1,Hit,0.733608499868,True,-1,stimulus_KLRU16_Yes-No Task_2019_Jun_13_1535_220,-1,True,2019_Jun_13_1535,Yes-No Task,2,KLRU16,
Yes-No Task,70,0,70,0,8.4,-1,Hit,0.534489300102,True,-1,stimulus_KLRU16_Yes-No Task_2019_Jun_13_1535_221,-1,True,2019_Jun_13_1535,Yes-No Task,2,KLRU16,
Yes-No Task,71,0,71,0,6.4,-1,Hit,0.536394099938,True,-1,stimulus_KLRU16_Yes-No Task_2019_Jun_13_1535_222,-1,True,2019_Jun_13_1535,Yes-No Task,2,KLRU16,
Yes-No Task,72,0,72,0,9.3,-1,Correct Rejection,0.56815629988,False,-1,stimulus_KLRU16_Yes-No Task_2019_Jun_13_1535_223,-1,True,2019_Jun_13_1535,Yes-No Task,2,KLRU16,
Yes-No Task,73,0,73,0,9.3,-1,Correct Rejection,0.533624500036,False,-1,stimulus_KLRU16_Yes-No Task_2019_Jun_13_1535_224,-1,True,2019_Jun_13_1535,Yes-No Task,2,KLRU16,
Yes-No Task,74,0,74,0,5.1,-1,False Alarm,0.668116700137,False,-1,stimulus_KLRU16_Yes-No Task_2019_Jun_13_1535_225,-1,True,2019_Jun_13_1535,Yes-No Task,2,KLRU16,
Yes-No Task,0,0,0,0,11.6,-1,Hit,0.667535000015,True,-1,stimulus_KLRU16_Yes-No Task_2019_Jun_13_1535_226,-1,True,2019_Jun_13_1535,Yes-No Task,2,KLRU16,
Yes-No Task,1,0,1,0,11.6,-1,Hit,0.433881199919,True,-1,stimulus_KLRU16_Yes-No Task_2019_Jun_13_1535_227,-1,True,2019_Jun_13_1535,Yes-No Task,2,KLRU16,
Yes-No Task,2,0,2,0,5.1,-1,Correct Rejection,0.401437700028,False,-1,stimulus_KLRU16_Yes-No Task_2019_Jun_13_1535_228,-1,True,2019_Jun_13_1535,Yes-No Task,2,KLRU16,
Yes-No Task,3,0,3,0,3.5,-1,Correct Rejection,0.467375200009,False,-1,stimulus_KLRU16_Yes-No Task_2019_Jun_13_1535_229,-1,True,2019_Jun_13_1535,Yes-No Task,2,KLRU16,
Yes-No Task,4,0,4,0,6.4,-1,Hit,0.533765900182,True,-1,stimulus_KLRU16_Yes-No Task_2019_Jun_13_1535_230,-1,True,2019_Jun_13_1535,Yes-No Task,2,KLRU16,
Yes-No Task,5,0,5,0,11.6,-1,Correct Rejection,0.433927800041,False,-1,stimulus_KLRU16_Yes-No Task_2019_Jun_13_1535_231,-1,True,2019_Jun_13_1535,Yes-No Task,2,KLRU16,
Yes-No Task,6,0,6,0,3.5,-1,Miss,0.501921100076,True,-1,stimulus_KLRU16_Yes-No Task_2019_Jun_13_1535_232,-1,True,2019_Jun_13_1535,Yes-No Task,2,KLRU16,
Yes-No Task,7,0,7,0,8.4,-1,Hit,0.464626400033,True,-1,stimulus_KLRU16_Yes-No Task_2019_Jun_13_1535_233,-1,True,2019_Jun_13_1535,Yes-No Task,2,KLRU16,
Yes-No Task,8,0,8,0,10.4,-1,Correct Rejection,0.567303600023,False,-1,stimulus_KLRU16_Yes-No Task_2019_Jun_13_1535_234,-1,True,2019_Jun_13_1535,Yes-No Task,2,KLRU16,
Yes-No Task,9,0,9,0,11.6,-1,Correct Rejection,0.533615099965,False,-1,stimulus_KLRU16_Yes-No Task_2019_Jun_13_1535_235,-1,True,2019_Jun_13_1535,Yes-No Task,2,KLRU16,
Yes-No Task,10,0,10,0,8.4,-1,Correct Rejection,0.49961210019,False,-1,stimulus_KLRU16_Yes-No Task_2019_Jun_13_1535_236,-1,True,2019_Jun_13_1535,Yes-No Task,2,KLRU16,
Yes-No Task,11,0,11,0,3.5,-1,Miss,0.500791399973,True,-1,stimulus_KLRU16_Yes-No Task_2019_Jun_13_1535_237,-1,True,2019_Jun_13_1535,Yes-No Task,2,KLRU16,
Yes-No Task,12,0,12,0,3.5,-1,Hit,0.535144200083,True,-1,stimulus_KLRU16_Yes-No Task_2019_Jun_13_1535_238,-1,True,2019_Jun_13_1535,Yes-No Task,2,KLRU16,
Yes-No Task,13,0,13,0,9.3,-1,Correct Rejection,0.634862199891,False,-1,stimulus_KLRU16_Yes-No Task_2019_Jun_13_1535_239,-1,True,2019_Jun_13_1535,Yes-No Task,2,KLRU16,
Yes-No Task,14,0,14,0,9.3,-1,Hit,0.53483680007,True,-1,stimulus_KLRU16_Yes-No Task_2019_Jun_13_1535_240,-1,True,2019_Jun_13_1535,Yes-No Task,2,KLRU16,
Yes-No Task,15,0,15,0,9.3,-1,Hit,0.534120299853,True,-1,stimulus_KLRU16_Yes-No Task_2019_Jun_13_1535_241,-1,True,2019_Jun_13_1535,Yes-No Task,2,KLRU16,
Yes-No Task,16,0,16,0,6.4,-1,Hit,0.534616200021,True,-1,stimulus_KLRU16_Yes-No Task_2019_Jun_13_1535_242,-1,True,2019_Jun_13_1535,Yes-No Task,2,KLRU16,
Yes-No Task,17,0,17,0,9.3,-1,False Alarm,0.532975299982,False,-1,stimulus_KLRU16_Yes-No Task_2019_Jun_13_1535_243,-1,True,2019_Jun_13_1535,Yes-No Task,2,KLRU16,
Yes-No Task,18,0,18,0,5.1,-1,No Answer,-1,False,-1,stimulus_KLRU16_Yes-No Task_2019_Jun_13_1535_244,-1,True,2019_Jun_13_1535,Yes-No Task,2,KLRU16,
Yes-No Task,19,0,19,0,7.4,-1,Correct Rejection,0.568183799973,False,-1,stimulus_KLRU16_Yes-No Task_2019_Jun_13_1535_245,-1,True,2019_Jun_13_1535,Yes-No Task,2,KLRU16,
Yes-No Task,20,0,20,0,9.3,-1,Hit,0.56758849998,True,-1,stimulus_KLRU16_Yes-No Task_2019_Jun_13_1535_246,-1,True,2019_Jun_13_1535,Yes-No Task,2,KLRU16,
Yes-No Task,21,0,21,0,3.5,-1,Miss,0.733324900037,True,-1,stimulus_KLRU16_Yes-No Task_2019_Jun_13_1535_247,-1,True,2019_Jun_13_1535,Yes-No Task,2,KLRU16,
Yes-No Task,22,0,22,0,10.4,-1,Correct Rejection,0.700262999861,False,-1,stimulus_KLRU16_Yes-No Task_2019_Jun_13_1535_248,-1,True,2019_Jun_13_1535,Yes-No Task,2,KLRU16,
Yes-No Task,23,0,23,0,6.4,-1,Correct Rejection,0.700789199909,False,-1,stimulus_KLRU16_Yes-No Task_2019_Jun_13_1535_249,-1,True,2019_Jun_13_1535,Yes-No Task,2,KLRU16,
Yes-No Task,24,0,24,0,9.3,-1,Correct Rejection,0.500363099854,False,-1,stimulus_KLRU16_Yes-No Task_2019_Jun_13_1535_250,-1,True,2019_Jun_13_1535,Yes-No Task,2,KLRU16,
Yes-No Task,25,0,25,0,3.5,-1,Correct Rejection,0.501345199998,False,-1,stimulus_KLRU16_Yes-No Task_2019_Jun_13_1535_251,-1,True,2019_Jun_13_1535,Yes-No Task,2,KLRU16,
Yes-No Task,26,0,26,0,10.4,-1,Hit,0.433798600221,True,-1,stimulus_KLRU16_Yes-No Task_2019_Jun_13_1535_252,-1,True,2019_Jun_13_1535,Yes-No Task,2,KLRU16,
Yes-No Task,27,0,27,0,11.6,-1,Hit,0.434126299806,True,-1,stimulus_KLRU16_Yes-No Task_2019_Jun_13_1535_253,-1,True,2019_Jun_13_1535,Yes-No Task,2,KLRU16,
Yes-No Task,28,0,28,0,11.6,-1,Hit,0.499849200016,True,-1,stimulus_KLRU16_Yes-No Task_2019_Jun_13_1535_254,-1,True,2019_Jun_13_1535,Yes-No Task,2,KLRU16,
Yes-No Task,29,0,29,0,11.6,-1,Hit,0.467173800105,True,-1,stimulus_KLRU16_Yes-No Task_2019_Jun_13_1535_255,-1,True,2019_Jun_13_1535,Yes-No Task,2,KLRU16,
Yes-No Task,30,0,30,0,7.4,-1,Correct Rejection,0.535426600138,False,-1,stimulus_KLRU16_Yes-No Task_2019_Jun_13_1535_256,-1,True,2019_Jun_13_1535,Yes-No Task,2,KLRU16,
Yes-No Task,31,0,31,0,6.4,-1,Miss,0.567514699884,True,-1,stimulus_KLRU16_Yes-No Task_2019_Jun_13_1535_257,-1,True,2019_Jun_13_1535,Yes-No Task,2,KLRU16,
Yes-No Task,32,0,32,0,6.4,-1,Hit,0.566466399934,True,-1,stimulus_KLRU16_Yes-No Task_2019_Jun_13_1535_258,-1,True,2019_Jun_13_1535,Yes-No Task,2,KLRU16,
Yes-No Task,33,0,33,0,10.4,-1,False Alarm,0.567533199908,False,-1,stimulus_KLRU16_Yes-No Task_2019_Jun_13_1535_259,-1,True,2019_Jun_13_1535,Yes-No Task,2,KLRU16,
Yes-No Task,34,0,34,0,10.4,-1,Correct Rejection,0.868293099804,False,-1,stimulus_KLRU16_Yes-No Task_2019_Jun_13_1535_260,-1,True,2019_Jun_13_1535,Yes-No Task,2,KLRU16,
Yes-No Task,35,0,35,0,9.3,-1,Correct Rejection,0.566025200067,False,-1,stimulus_KLRU16_Yes-No Task_2019_Jun_13_1535_261,-1,True,2019_Jun_13_1535,Yes-No Task,2,KLRU16,
Yes-No Task,36,0,36,0,10.4,-1,Correct Rejection,0.600848700153,False,-1,stimulus_KLRU16_Yes-No Task_2019_Jun_13_1535_262,-1,True,2019_Jun_13_1535,Yes-No Task,2,KLRU16,
Yes-No Task,37,0,37,0,6.4,-1,Hit,0.833218299784,True,-1,stimulus_KLRU16_Yes-No Task_2019_Jun_13_1535_263,-1,True,2019_Jun_13_1535,Yes-No Task,2,KLRU16,
Yes-No Task,38,0,38,0,5.1,-1,Correct Rejection,0.633994800039,False,-1,stimulus_KLRU16_Yes-No Task_2019_Jun_13_1535_264,-1,True,2019_Jun_13_1535,Yes-No Task,2,KLRU16,
Yes-No Task,39,0,39,0,3.5,-1,Hit,0.601222899975,True,-1,stimulus_KLRU16_Yes-No Task_2019_Jun_13_1535_265,-1,True,2019_Jun_13_1535,Yes-No Task,2,KLRU16,
Yes-No Task,40,0,40,0,7.4,-1,Correct Rejection,0.600065000122,False,-1,stimulus_KLRU16_Yes-No Task_2019_Jun_13_1535_266,-1,True,2019_Jun_13_1535,Yes-No Task,2,KLRU16,
Yes-No Task,41,0,41,0,5.1,-1,False Alarm,0.735863599926,False,-1,stimulus_KLRU16_Yes-No Task_2019_Jun_13_1535_267,-1,True,2019_Jun_13_1535,Yes-No Task,2,KLRU16,
Yes-No Task,42,0,42,0,5.1,-1,Correct Rejection,0.670461799949,False,-1,stimulus_KLRU16_Yes-No Task_2019_Jun_13_1535_268,-1,True,2019_Jun_13_1535,Yes-No Task,2,KLRU16,
Yes-No Task,43,0,43,0,10.4,-1,Hit,0.669076199876,True,-1,stimulus_KLRU16_Yes-No Task_2019_Jun_13_1535_269,-1,True,2019_Jun_13_1535,Yes-No Task,2,KLRU16,
Yes-No Task,44,0,44,0,8.4,-1,False Alarm,0.700745800044,False,-1,stimulus_KLRU16_Yes-No Task_2019_Jun_13_1535_270,-1,True,2019_Jun_13_1535,Yes-No Task,2,KLRU16,
Yes-No Task,45,0,45,0,6.4,-1,No Answer,-1,False,-1,stimulus_KLRU16_Yes-No Task_2019_Jun_13_1535_271,-1,True,2019_Jun_13_1535,Yes-No Task,2,KLRU16,
Yes-No Task,46,0,46,0,6.4,-1,Correct Rejection,0.567363600014,False,-1,stimulus_KLRU16_Yes-No Task_2019_Jun_13_1535_272,-1,True,2019_Jun_13_1535,Yes-No Task,2,KLRU16,
Yes-No Task,47,0,47,0,7.4,-1,Correct Rejection,0.434483900201,False,-1,stimulus_KLRU16_Yes-No Task_2019_Jun_13_1535_273,-1,True,2019_Jun_13_1535,Yes-No Task,2,KLRU16,
Yes-No Task,48,0,48,0,9.3,-1,Hit,0.533936699852,True,-1,stimulus_KLRU16_Yes-No Task_2019_Jun_13_1535_274,-1,True,2019_Jun_13_1535,Yes-No Task,2,KLRU16,
Yes-No Task,49,0,49,0,9.3,-1,Correct Rejection,0.53307939996,False,-1,stimulus_KLRU16_Yes-No Task_2019_Jun_13_1535_275,-1,True,2019_Jun_13_1535,Yes-No Task,2,KLRU16,
Yes-No Task,50,0,50,0,8.4,-1,Correct Rejection,0.499650100013,False,-1,stimulus_KLRU16_Yes-No Task_2019_Jun_13_1535_276,-1,True,2019_Jun_13_1535,Yes-No Task,2,KLRU16,
Yes-No Task,51,0,51,0,5.1,-1,Correct Rejection,0.50067089987,False,-1,stimulus_KLRU16_Yes-No Task_2019_Jun_13_1535_277,-1,True,2019_Jun_13_1535,Yes-No Task,2,KLRU16,
Yes-No Task,52,0,52,0,3.5,-1,Correct Rejection,0.533881500131,False,-1,stimulus_KLRU16_Yes-No Task_2019_Jun_13_1535_278,-1,True,2019_Jun_13_1535,Yes-No Task,2,KLRU16,
Yes-No Task,53,0,53,0,9.3,-1,Correct Rejection,0.501948799938,False,-1,stimulus_KLRU16_Yes-No Task_2019_Jun_13_1535_279,-1,True,2019_Jun_13_1535,Yes-No Task,2,KLRU16,
Yes-No Task,54,0,54,0,6.4,-1,Miss,0.535382200032,True,-1,stimulus_KLRU16_Yes-No Task_2019_Jun_13_1535_280,-1,True,2019_Jun_13_1535,Yes-No Task,2,KLRU16,
Yes-No Task,55,0,55,0,3.5,-1,Miss,0.46716520004,True,-1,stimulus_KLRU16_Yes-No Task_2019_Jun_13_1535_281,-1,True,2019_Jun_13_1535,Yes-No Task,2,KLRU16,
Yes-No Task,56,0,56,0,10.4,-1,Hit,0.500661099795,True,-1,stimulus_KLRU16_Yes-No Task_2019_Jun_13_1535_282,-1,True,2019_Jun_13_1535,Yes-No Task,2,KLRU16,
Yes-No Task,57,0,57,0,3.5,-1,Miss,0.500926399836,True,-1,stimulus_KLRU16_Yes-No Task_2019_Jun_13_1535_283,-1,True,2019_Jun_13_1535,Yes-No Task,2,KLRU16,
Yes-No Task,58,0,58,0,9.3,-1,Correct Rejection,0.568541800138,False,-1,stimulus_KLRU16_Yes-No Task_2019_Jun_13_1535_284,-1,True,2019_Jun_13_1535,Yes-No Task,2,KLRU16,
Yes-No Task,59,0,59,0,11.6,-1,Correct Rejection,0.567012800137,False,-1,stimulus_KLRU16_Yes-No Task_2019_Jun_13_1535_285,-1,True,2019_Jun_13_1535,Yes-No Task,2,KLRU16,
Yes-No Task,60,0,60,0,9.3,-1,Correct Rejection,0.466394899879,False,-1,stimulus_KLRU16_Yes-No Task_2019_Jun_13_1535_286,-1,True,2019_Jun_13_1535,Yes-No Task,2,KLRU16,
Yes-No Task,61,0,61,0,5.1,-1,Correct Rejection,0.602017000085,False,-1,stimulus_KLRU16_Yes-No Task_2019_Jun_13_1535_287,-1,True,2019_Jun_13_1535,Yes-No Task,2,KLRU16,
Yes-No Task,62,0,62,0,5.1,-1,Correct Rejection,0.467164199799,False,-1,stimulus_KLRU16_Yes-No Task_2019_Jun_13_1535_288,-1,True,2019_Jun_13_1535,Yes-No Task,2,KLRU16,
Yes-No Task,63,0,63,0,9.3,-1,Correct Rejection,0.535041900119,False,-1,stimulus_KLRU16_Yes-No Task_2019_Jun_13_1535_289,-1,True,2019_Jun_13_1535,Yes-No Task,2,KLRU16,
Yes-No Task,64,0,64,0,11.6,-1,Hit,0.433729900047,True,-1,stimulus_KLRU16_Yes-No Task_2019_Jun_13_1535_290,-1,True,2019_Jun_13_1535,Yes-No Task,2,KLRU16,
Yes-No Task,65,0,65,0,11.6,-1,False Alarm,0.56773749995,False,-1,stimulus_KLRU16_Yes-No Task_2019_Jun_13_1535_291,-1,True,2019_Jun_13_1535,Yes-No Task,2,KLRU16,
Yes-No Task,66,0,66,0,3.5,-1,False Alarm,0.500672699884,False,-1,stimulus_KLRU16_Yes-No Task_2019_Jun_13_1535_292,-1,True,2019_Jun_13_1535,Yes-No Task,2,KLRU16,
Yes-No Task,67,0,67,0,5.1,-1,Correct Rejection,0.566143099917,False,-1,stimulus_KLRU16_Yes-No Task_2019_Jun_13_1535_293,-1,True,2019_Jun_13_1535,Yes-No Task,2,KLRU16,
Yes-No Task,68,0,68,0,5.1,-1,Correct Rejection,0.500827000011,False,-1,stimulus_KLRU16_Yes-No Task_2019_Jun_13_1535_294,-1,True,2019_Jun_13_1535,Yes-No Task,2,KLRU16,
Yes-No Task,69,0,69,0,7.4,-1,Correct Rejection,0.534063200001,False,-1,stimulus_KLRU16_Yes-No Task_2019_Jun_13_1535_295,-1,True,2019_Jun_13_1535,Yes-No Task,2,KLRU16,
Yes-No Task,70,0,70,0,7.4,-1,Correct Rejection,0.601532700006,False,-1,stimulus_KLRU16_Yes-No Task_2019_Jun_13_1535_296,-1,True,2019_Jun_13_1535,Yes-No Task,2,KLRU16,
Yes-No Task,71,0,71,0,8.4,-1,Correct Rejection,0.566654999973,False,-1,stimulus_KLRU16_Yes-No Task_2019_Jun_13_1535_297,-1,True,2019_Jun_13_1535,Yes-No Task,2,KLRU16,
Yes-No Task,72,0,72,0,6.4,-1,Correct Rejection,0.600810999982,False,-1,stimulus_KLRU16_Yes-No Task_2019_Jun_13_1535_298,-1,True,2019_Jun_13_1535,Yes-No Task,2,KLRU16,
Yes-No Task,73,0,73,0,8.4,-1,Correct Rejection,0.5336197,False,-1,stimulus_KLRU16_Yes-No Task_2019_Jun_13_1535_299,-1,True,2019_Jun_13_1535,Yes-No Task,2,KLRU16,
Yes-No Task,74,0,74,0,3.5,-1,Hit,0.500743400073,True,-1,stimulus_KLRU16_Yes-No Task_2019_Jun_13_1535_300,-1,True,2019_Jun_13_1535,Yes-No Task,2,KLRU16,
Yes-No Task,0,0,0,0,3.5,-1,Miss,0.600800500019,True,-1,stimulus_KLRU16_Yes-No Task_2019_Jun_13_1535_301,-1,True,2019_Jun_13_1535,Yes-No Task,2,KLRU16,
Yes-No Task,1,0,1,0,3.5,-1,Correct Rejection,0.634103100048,False,-1,stimulus_KLRU16_Yes-No Task_2019_Jun_13_1535_302,-1,True,2019_Jun_13_1535,Yes-No Task,2,KLRU16,
Yes-No Task,2,0,2,0,10.4,-1,Hit,0.501139000058,True,-1,stimulus_KLRU16_Yes-No Task_2019_Jun_13_1535_303,-1,True,2019_Jun_13_1535,Yes-No Task,2,KLRU16,
Yes-No Task,3,0,3,0,6.4,-1,Hit,0.49989379989,True,-1,stimulus_KLRU16_Yes-No Task_2019_Jun_13_1535_304,-1,True,2019_Jun_13_1535,Yes-No Task,2,KLRU16,
Yes-No Task,4,0,4,0,7.4,-1,Correct Rejection,0.467286899919,False,-1,stimulus_KLRU16_Yes-No Task_2019_Jun_13_1535_305,-1,True,2019_Jun_13_1535,Yes-No Task,2,KLRU16,
Yes-No Task,5,0,5,0,10.4,-1,Hit,0.467085500015,True,-1,stimulus_KLRU16_Yes-No Task_2019_Jun_13_1535_306,-1,True,2019_Jun_13_1535,Yes-No Task,2,KLRU16,
Yes-No Task,6,0,6,0,7.4,-1,Hit,0.467097699875,True,-1,stimulus_KLRU16_Yes-No Task_2019_Jun_13_1535_307,-1,True,2019_Jun_13_1535,Yes-No Task,2,KLRU16,
Yes-No Task,7,0,7,0,3.5,-1,Hit,0.467294499977,True,-1,stimulus_KLRU16_Yes-No Task_2019_Jun_13_1535_308,-1,True,2019_Jun_13_1535,Yes-No Task,2,KLRU16,
Yes-No Task,8,0,8,0,10.4,-1,Hit,0.467193999793,True,-1,stimulus_KLRU16_Yes-No Task_2019_Jun_13_1535_309,-1,True,2019_Jun_13_1535,Yes-No Task,2,KLRU16,
Yes-No Task,9,0,9,0,6.4,-1,Correct Rejection,0.633613199927,False,-1,stimulus_KLRU16_Yes-No Task_2019_Jun_13_1535_310,-1,True,2019_Jun_13_1535,Yes-No Task,2,KLRU16,
Yes-No Task,10,0,10,0,3.5,-1,False Alarm,0.401001199847,False,-1,stimulus_KLRU16_Yes-No Task_2019_Jun_13_1535_311,-1,True,2019_Jun_13_1535,Yes-No Task,2,KLRU16,
Yes-No Task,11,0,11,0,3.5,-1,Hit,0.600521899993,True,-1,stimulus_KLRU16_Yes-No Task_2019_Jun_13_1535_312,-1,True,2019_Jun_13_1535,Yes-No Task,2,KLRU16,
Yes-No Task,12,0,12,0,9.3,-1,Correct Rejection,0.399699799949,False,-1,stimulus_KLRU16_Yes-No Task_2019_Jun_13_1535_313,-1,True,2019_Jun_13_1535,Yes-No Task,2,KLRU16,
Yes-No Task,13,0,13,0,8.4,-1,Hit,0.436775099952,True,-1,stimulus_KLRU16_Yes-No Task_2019_Jun_13_1535_314,-1,True,2019_Jun_13_1535,Yes-No Task,2,KLRU16,
Yes-No Task,14,0,14,0,7.4,-1,False Alarm,0.468009899836,False,-1,stimulus_KLRU16_Yes-No Task_2019_Jun_13_1535_315,-1,True,2019_Jun_13_1535,Yes-No Task,2,KLRU16,
Yes-No Task,15,0,15,0,8.4,-1,Hit,0.634020300116,True,-1,stimulus_KLRU16_Yes-No Task_2019_Jun_13_1535_316,-1,True,2019_Jun_13_1535,Yes-No Task,2,KLRU16,
Yes-No Task,16,0,16,0,7.4,-1,Correct Rejection,0.433822099818,False,-1,stimulus_KLRU16_Yes-No Task_2019_Jun_13_1535_317,-1,True,2019_Jun_13_1535,Yes-No Task,2,KLRU16,
Yes-No Task,17,0,17,0,3.5,-1,Hit,0.532528500073,True,-1,stimulus_KLRU16_Yes-No Task_2019_Jun_13_1535_318,-1,True,2019_Jun_13_1535,Yes-No Task,2,KLRU16,
Yes-No Task,18,0,18,0,3.5,-1,Correct Rejection,0.467505699955,False,-1,stimulus_KLRU16_Yes-No Task_2019_Jun_13_1535_319,-1,True,2019_Jun_13_1535,Yes-No Task,2,KLRU16,
Yes-No Task,19,0,19,0,7.4,-1,Miss,0.501602400094,True,-1,stimulus_KLRU16_Yes-No Task_2019_Jun_13_1535_320,-1,True,2019_Jun_13_1535,Yes-No Task,2,KLRU16,
Yes-No Task,20,0,20,0,8.4,-1,False Alarm,0.434684300097,False,-1,stimulus_KLRU16_Yes-No Task_2019_Jun_13_1535_321,-1,True,2019_Jun_13_1535,Yes-No Task,2,KLRU16,
Yes-No Task,21,0,21,0,6.4,-1,False Alarm,0.798531100154,False,-1,stimulus_KLRU16_Yes-No Task_2019_Jun_13_1535_322,-1,True,2019_Jun_13_1535,Yes-No Task,2,KLRU16,
Yes-No Task,22,0,22,0,11.6,-1,Correct Rejection,0.667054199846,False,-1,stimulus_KLRU16_Yes-No Task_2019_Jun_13_1535_323,-1,True,2019_Jun_13_1535,Yes-No Task,2,KLRU16,
Yes-No Task,23,0,23,0,3.5,-1,Miss,0.499109900091,True,-1,stimulus_KLRU16_Yes-No Task_2019_Jun_13_1535_324,-1,True,2019_Jun_13_1535,Yes-No Task,2,KLRU16,
Yes-No Task,24,0,24,0,10.4,-1,Correct Rejection,0.53515549982,False,-1,stimulus_KLRU16_Yes-No Task_2019_Jun_13_1535_325,-1,True,2019_Jun_13_1535,Yes-No Task,2,KLRU16,
Yes-No Task,25,0,25,0,6.4,-1,Correct Rejection,0.600651300047,False,-1,stimulus_KLRU16_Yes-No Task_2019_Jun_13_1535_326,-1,True,2019_Jun_13_1535,Yes-No Task,2,KLRU16,
Yes-No Task,26,0,26,0,3.5,-1,Correct Rejection,0.601883399999,False,-1,stimulus_KLRU16_Yes-No Task_2019_Jun_13_1535_327,-1,True,2019_Jun_13_1535,Yes-No Task,2,KLRU16,
Yes-No Task,27,0,27,0,5.1,-1,Hit,0.500226399861,True,-1,stimulus_KLRU16_Yes-No Task_2019_Jun_13_1535_328,-1,True,2019_Jun_13_1535,Yes-No Task,2,KLRU16,
Yes-No Task,28,0,28,0,11.6,-1,Hit,0.500359199941,True,-1,stimulus_KLRU16_Yes-No Task_2019_Jun_13_1535_329,-1,True,2019_Jun_13_1535,Yes-No Task,2,KLRU16,
Yes-No Task,29,0,29,0,8.4,-1,Hit,0.534418399911,True,-1,stimulus_KLRU16_Yes-No Task_2019_Jun_13_1535_330,-1,True,2019_Jun_13_1535,Yes-No Task,2,KLRU16,
Yes-No Task,30,0,30,0,6.4,-1,Hit,0.500575799961,True,-1,stimulus_KLRU16_Yes-No Task_2019_Jun_13_1535_331,-1,True,2019_Jun_13_1535,Yes-No Task,2,KLRU16,
Yes-No Task,31,0,31,0,5.1,-1,Hit,0.567677699961,True,-1,stimulus_KLRU16_Yes-No Task_2019_Jun_13_1535_332,-1,True,2019_Jun_13_1535,Yes-No Task,2,KLRU16,
Yes-No Task,32,0,32,0,3.5,-1,Hit,0.467263000086,True,-1,stimulus_KLRU16_Yes-No Task_2019_Jun_13_1535_333,-1,True,2019_Jun_13_1535,Yes-No Task,2,KLRU16,
Yes-No Task,33,0,33,0,6.4,-1,Correct Rejection,0.433918700088,False,-1,stimulus_KLRU16_Yes-No Task_2019_Jun_13_1535_334,-1,True,2019_Jun_13_1535,Yes-No Task,2,KLRU16,
Yes-No Task,34,0,34,0,11.6,-1,Hit,0.567160599865,True,-1,stimulus_KLRU16_Yes-No Task_2019_Jun_13_1535_335,-1,True,2019_Jun_13_1535,Yes-No Task,2,KLRU16,
Yes-No Task,35,0,35,0,8.4,-1,Correct Rejection,0.466794699896,False,-1,stimulus_KLRU16_Yes-No Task_2019_Jun_13_1535_336,-1,True,2019_Jun_13_1535,Yes-No Task,2,KLRU16,
Yes-No Task,36,0,36,0,9.3,-1,Hit,0.467278299853,True,-1,stimulus_KLRU16_Yes-No Task_2019_Jun_13_1535_337,-1,True,2019_Jun_13_1535,Yes-No Task,2,KLRU16,
Yes-No Task,37,0,37,0,6.4,-1,Correct Rejection,0.634220100008,False,-1,stimulus_KLRU16_Yes-No Task_2019_Jun_13_1535_338,-1,True,2019_Jun_13_1535,Yes-No Task,2,KLRU16,
Yes-No Task,38,0,38,0,6.4,-1,False Alarm,0.63183269999,False,-1,stimulus_KLRU16_Yes-No Task_2019_Jun_13_1535_339,-1,True,2019_Jun_13_1535,Yes-No Task,2,KLRU16,
Yes-No Task,39,0,39,0,5.1,-1,False Alarm,0.467123900075,False,-1,stimulus_KLRU16_Yes-No Task_2019_Jun_13_1535_340,-1,True,2019_Jun_13_1535,Yes-No Task,2,KLRU16,
Yes-No Task,40,0,40,0,5.1,-1,Hit,0.533851100132,True,-1,stimulus_KLRU16_Yes-No Task_2019_Jun_13_1535_341,-1,True,2019_Jun_13_1535,Yes-No Task,2,KLRU16,
Yes-No Task,41,0,41,0,5.1,-1,False Alarm,0.668435600121,False,-1,stimulus_KLRU16_Yes-No Task_2019_Jun_13_1535_342,-1,True,2019_Jun_13_1535,Yes-No Task,2,KLRU16,
Yes-No Task,42,0,42,0,9.3,-1,Correct Rejection,0.501769600203,False,-1,stimulus_KLRU16_Yes-No Task_2019_Jun_13_1535_343,-1,True,2019_Jun_13_1535,Yes-No Task,2,KLRU16,
Yes-No Task,43,0,43,0,6.4,-1,Correct Rejection,0.50064910017,False,-1,stimulus_KLRU16_Yes-No Task_2019_Jun_13_1535_344,-1,True,2019_Jun_13_1535,Yes-No Task,2,KLRU16,
Yes-No Task,44,0,44,0,11.6,-1,Hit,0.500315699959,True,-1,stimulus_KLRU16_Yes-No Task_2019_Jun_13_1535_345,-1,True,2019_Jun_13_1535,Yes-No Task,2,KLRU16,
Yes-No Task,45,0,45,0,11.6,-1,False Alarm,0.500620400067,False,-1,stimulus_KLRU16_Yes-No Task_2019_Jun_13_1535_346,-1,True,2019_Jun_13_1535,Yes-No Task,2,KLRU16,
Yes-No Task,46,0,46,0,5.1,-1,Hit,0.567806100007,True,-1,stimulus_KLRU16_Yes-No Task_2019_Jun_13_1535_347,-1,True,2019_Jun_13_1535,Yes-No Task,2,KLRU16,
Yes-No Task,47,0,47,0,3.5,-1,Correct Rejection,0.500431099907,False,-1,stimulus_KLRU16_Yes-No Task_2019_Jun_13_1535_348,-1,True,2019_Jun_13_1535,Yes-No Task,2,KLRU16,
Yes-No Task,48,0,48,0,6.4,-1,Correct Rejection,0.566311999923,False,-1,stimulus_KLRU16_Yes-No Task_2019_Jun_13_1535_349,-1,True,2019_Jun_13_1535,Yes-No Task,2,KLRU16,
Yes-No Task,49,0,49,0,7.4,-1,Correct Rejection,0.799868399976,False,-1,stimulus_KLRU16_Yes-No Task_2019_Jun_13_1535_350,-1,True,2019_Jun_13_1535,Yes-No Task,2,KLRU16,
Yes-No Task,50,0,50,0,7.4,-1,Miss,0.431863599923,True,-1,stimulus_KLRU16_Yes-No Task_2019_Jun_13_1535_351,-1,True,2019_Jun_13_1535,Yes-No Task,2,KLRU16,
Yes-No Task,51,0,51,0,9.3,-1,Hit,0.568574599922,True,-1,stimulus_KLRU16_Yes-No Task_2019_Jun_13_1535_352,-1,True,2019_Jun_13_1535,Yes-No Task,2,KLRU16,
Yes-No Task,52,0,52,0,6.4,-1,Hit,0.566323500127,True,-1,stimulus_KLRU16_Yes-No Task_2019_Jun_13_1535_353,-1,True,2019_Jun_13_1535,Yes-No Task,2,KLRU16,
Yes-No Task,53,0,53,0,6.4,-1,Miss,0.634012799943,True,-1,stimulus_KLRU16_Yes-No Task_2019_Jun_13_1535_354,-1,True,2019_Jun_13_1535,Yes-No Task,2,KLRU16,
Yes-No Task,54,0,54,0,6.4,-1,Hit,0.500555899926,True,-1,stimulus_KLRU16_Yes-No Task_2019_Jun_13_1535_355,-1,True,2019_Jun_13_1535,Yes-No Task,2,KLRU16,
Yes-No Task,55,0,55,0,8.4,-1,Correct Rejection,0.57272860012,False,-1,stimulus_KLRU16_Yes-No Task_2019_Jun_13_1535_356,-1,True,2019_Jun_13_1535,Yes-No Task,2,KLRU16,
Yes-No Task,56,0,56,0,6.4,-1,No Answer,-1,True,-1,stimulus_KLRU16_Yes-No Task_2019_Jun_13_1535_357,-1,True,2019_Jun_13_1535,Yes-No Task,2,KLRU16,
Yes-No Task,57,0,57,0,3.5,-1,Miss,0.767274199985,True,-1,stimulus_KLRU16_Yes-No Task_2019_Jun_13_1535_358,-1,True,2019_Jun_13_1535,Yes-No Task,2,KLRU16,
Yes-No Task,58,0,58,0,6.4,-1,Hit,0.534449799918,True,-1,stimulus_KLRU16_Yes-No Task_2019_Jun_13_1535_359,-1,True,2019_Jun_13_1535,Yes-No Task,2,KLRU16,
Yes-No Task,59,0,59,0,10.4,-1,Hit,0.433816599892,True,-1,stimulus_KLRU16_Yes-No Task_2019_Jun_13_1535_360,-1,True,2019_Jun_13_1535,Yes-No Task,2,KLRU16,
Yes-No Task,60,0,60,0,9.3,-1,Hit,0.467291400069,True,-1,stimulus_KLRU16_Yes-No Task_2019_Jun_13_1535_361,-1,True,2019_Jun_13_1535,Yes-No Task,2,KLRU16,
Yes-No Task,61,0,61,0,8.4,-1,Miss,0.501101200003,True,-1,stimulus_KLRU16_Yes-No Task_2019_Jun_13_1535_362,-1,True,2019_Jun_13_1535,Yes-No Task,2,KLRU16,
Yes-No Task,62,0,62,0,5.1,-1,Hit,0.533893899992,True,-1,stimulus_KLRU16_Yes-No Task_2019_Jun_13_1535_363,-1,True,2019_Jun_13_1535,Yes-No Task,2,KLRU16,
Yes-No Task,63,0,63,0,6.4,-1,Correct Rejection,0.567359499866,False,-1,stimulus_KLRU16_Yes-No Task_2019_Jun_13_1535_364,-1,True,2019_Jun_13_1535,Yes-No Task,2,KLRU16,
Yes-No Task,64,0,64,0,7.4,-1,False Alarm,0.50106049981,False,-1,stimulus_KLRU16_Yes-No Task_2019_Jun_13_1535_365,-1,True,2019_Jun_13_1535,Yes-No Task,2,KLRU16,
Yes-No Task,65,0,65,0,8.4,-1,Hit,0.63407270005,True,-1,stimulus_KLRU16_Yes-No Task_2019_Jun_13_1535_366,-1,True,2019_Jun_13_1535,Yes-No Task,2,KLRU16,
Yes-No Task,66,0,66,0,8.4,-1,Correct Rejection,0.43399839988,False,-1,stimulus_KLRU16_Yes-No Task_2019_Jun_13_1535_367,-1,True,2019_Jun_13_1535,Yes-No Task,2,KLRU16,
Yes-No Task,67,0,67,0,9.3,-1,Hit,0.500660099788,True,-1,stimulus_KLRU16_Yes-No Task_2019_Jun_13_1535_368,-1,True,2019_Jun_13_1535,Yes-No Task,2,KLRU16,
Yes-No Task,68,0,68,0,9.3,-1,Correct Rejection,0.536357700126,False,-1,stimulus_KLRU16_Yes-No Task_2019_Jun_13_1535_369,-1,True,2019_Jun_13_1535,Yes-No Task,2,KLRU16,
Yes-No Task,69,0,69,0,6.4,-1,Correct Rejection,0.468133100076,False,-1,stimulus_KLRU16_Yes-No Task_2019_Jun_13_1535_370,-1,True,2019_Jun_13_1535,Yes-No Task,2,KLRU16,
Yes-No Task,70,0,70,0,8.4,-1,Correct Rejection,0.499537699856,False,-1,stimulus_KLRU16_Yes-No Task_2019_Jun_13_1535_371,-1,True,2019_Jun_13_1535,Yes-No Task,2,KLRU16,
Yes-No Task,71,0,71,0,10.4,-1,Correct Rejection,0.533756399993,False,-1,stimulus_KLRU16_Yes-No Task_2019_Jun_13_1535_372,-1,True,2019_Jun_13_1535,Yes-No Task,2,KLRU16,
Yes-No Task,72,0,72,0,8.4,-1,Correct Rejection,0.568737899885,False,-1,stimulus_KLRU16_Yes-No Task_2019_Jun_13_1535_373,-1,True,2019_Jun_13_1535,Yes-No Task,2,KLRU16,
Yes-No Task,73,0,73,0,10.4,-1,Hit,0.500968200155,True,-1,stimulus_KLRU16_Yes-No Task_2019_Jun_13_1535_374,-1,True,2019_Jun_13_1535,Yes-No Task,2,KLRU16,
Yes-No Task,74,0,74,0,10.4,-1,Hit,0.535104300128,True,-1,stimulus_KLRU16_Yes-No Task_2019_Jun_13_1535_375,-1,True,2019_Jun_13_1535,Yes-No Task,2,KLRU16,
Yes-No Task,0,0,0,0,6.4,-1,No Answer,-1,True,-1,stimulus_KLRU16_Yes-No Task_2019_Jun_13_1535_376,-1,True,2019_Jun_13_1535,Yes-No Task,2,KLRU16,
Yes-No Task,1,0,1,0,8.4,-1,Miss,0.40156430006,True,-1,stimulus_KLRU16_Yes-No Task_2019_Jun_13_1535_377,-1,True,2019_Jun_13_1535,Yes-No Task,2,KLRU16,
Yes-No Task,2,0,2,0,3.5,-1,Correct Rejection,0.5005657,False,-1,stimulus_KLRU16_Yes-No Task_2019_Jun_13_1535_378,-1,True,2019_Jun_13_1535,Yes-No Task,2,KLRU16,
Yes-No Task,3,0,3,0,3.5,-1,Miss,0.500575300073,True,-1,stimulus_KLRU16_Yes-No Task_2019_Jun_13_1535_379,-1,True,2019_Jun_13_1535,Yes-No Task,2,KLRU16,
Yes-No Task,4,0,4,0,10.4,-1,Miss,0.500427699881,True,-1,stimulus_KLRU16_Yes-No Task_2019_Jun_13_1535_380,-1,True,2019_Jun_13_1535,Yes-No Task,2,KLRU16,
Yes-No Task,5,0,5,0,8.4,-1,Correct Rejection,0.534495199798,False,-1,stimulus_KLRU16_Yes-No Task_2019_Jun_13_1535_381,-1,True,2019_Jun_13_1535,Yes-No Task,2,KLRU16,
Yes-No Task,6,0,6,0,3.5,-1,Correct Rejection,0.566949400119,False,-1,stimulus_KLRU16_Yes-No Task_2019_Jun_13_1535_382,-1,True,2019_Jun_13_1535,Yes-No Task,2,KLRU16,
Yes-No Task,7,0,7,0,6.4,-1,Correct Rejection,0.632064000005,False,-1,stimulus_KLRU16_Yes-No Task_2019_Jun_13_1535_383,-1,True,2019_Jun_13_1535,Yes-No Task,2,KLRU16,
Yes-No Task,8,0,8,0,3.5,-1,Correct Rejection,0.535332900006,False,-1,stimulus_KLRU16_Yes-No Task_2019_Jun_13_1535_384,-1,True,2019_Jun_13_1535,Yes-No Task,2,KLRU16,
Yes-No Task,9,0,9,0,6.4,-1,Hit,0.434635699959,True,-1,stimulus_KLRU16_Yes-No Task_2019_Jun_13_1535_385,-1,True,2019_Jun_13_1535,Yes-No Task,2,KLRU16,
Yes-No Task,10,0,10,0,10.4,-1,False Alarm,0.567620999878,False,-1,stimulus_KLRU16_Yes-No Task_2019_Jun_13_1535_386,-1,True,2019_Jun_13_1535,Yes-No Task,2,KLRU16,
Yes-No Task,11,0,11,0,7.4,-1,Correct Rejection,0.33302520006,False,-1,stimulus_KLRU16_Yes-No Task_2019_Jun_13_1535_387,-1,True,2019_Jun_13_1535,Yes-No Task,2,KLRU16,
Yes-No Task,12,0,12,0,9.3,-1,Correct Rejection,0.500649999827,False,-1,stimulus_KLRU16_Yes-No Task_2019_Jun_13_1535_388,-1,True,2019_Jun_13_1535,Yes-No Task,2,KLRU16,
Yes-No Task,13,0,13,0,10.4,-1,Correct Rejection,0.500043499982,False,-1,stimulus_KLRU16_Yes-No Task_2019_Jun_13_1535_389,-1,True,2019_Jun_13_1535,Yes-No Task,2,KLRU16,
Yes-No Task,14,0,14,0,7.4,-1,Miss,0.535042500123,True,-1,stimulus_KLRU16_Yes-No Task_2019_Jun_13_1535_390,-1,True,2019_Jun_13_1535,Yes-No Task,2,KLRU16,
Yes-No Task,15,0,15,0,5.1,-1,Correct Rejection,0.600688700099,False,-1,stimulus_KLRU16_Yes-No Task_2019_Jun_13_1535_391,-1,True,2019_Jun_13_1535,Yes-No Task,2,KLRU16,
Yes-No Task,16,0,16,0,10.4,-1,Hit,0.434609899996,True,-1,stimulus_KLRU16_Yes-No Task_2019_Jun_13_1535_392,-1,True,2019_Jun_13_1535,Yes-No Task,2,KLRU16,
Yes-No Task,17,0,17,0,10.4,-1,Correct Rejection,0.533982800087,False,-1,stimulus_KLRU16_Yes-No Task_2019_Jun_13_1535_393,-1,True,2019_Jun_13_1535,Yes-No Task,2,KLRU16,
Yes-No Task,18,0,18,0,11.6,-1,Hit,0.635725799948,True,-1,stimulus_KLRU16_Yes-No Task_2019_Jun_13_1535_394,-1,True,2019_Jun_13_1535,Yes-No Task,2,KLRU16,
Yes-No Task,19,0,19,0,10.4,-1,Hit,0.467674299842,True,-1,stimulus_KLRU16_Yes-No Task_2019_Jun_13_1535_395,-1,True,2019_Jun_13_1535,Yes-No Task,2,KLRU16,
Yes-No Task,20,0,20,0,5.1,-1,Hit,0.467163300142,True,-1,stimulus_KLRU16_Yes-No Task_2019_Jun_13_1535_396,-1,True,2019_Jun_13_1535,Yes-No Task,2,KLRU16,
Yes-No Task,21,0,21,0,10.4,-1,Hit,0.567315000109,True,-1,stimulus_KLRU16_Yes-No Task_2019_Jun_13_1535_397,-1,True,2019_Jun_13_1535,Yes-No Task,2,KLRU16,
Yes-No Task,22,0,22,0,6.4,-1,Miss,0.46729280008,True,-1,stimulus_KLRU16_Yes-No Task_2019_Jun_13_1535_398,-1,True,2019_Jun_13_1535,Yes-No Task,2,KLRU16,
Yes-No Task,23,0,23,0,5.1,-1,False Alarm,0.533556699986,False,-1,stimulus_KLRU16_Yes-No Task_2019_Jun_13_1535_399,-1,True,2019_Jun_13_1535,Yes-No Task,2,KLRU16,
Yes-No Task,24,0,24,0,6.4,-1,Hit,0.500403699931,True,-1,stimulus_KLRU16_Yes-No Task_2019_Jun_13_1535_400,-1,True,2019_Jun_13_1535,Yes-No Task,2,KLRU16,
Yes-No Task,25,0,25,0,11.6,-1,Hit,0.500379299978,True,-1,stimulus_KLRU16_Yes-No Task_2019_Jun_13_1535_401,-1,True,2019_Jun_13_1535,Yes-No Task,2,KLRU16,
Yes-No Task,26,0,26,0,9.3,-1,False Alarm,0.467320400057,False,-1,stimulus_KLRU16_Yes-No Task_2019_Jun_13_1535_402,-1,True,2019_Jun_13_1535,Yes-No Task,2,KLRU16,
Yes-No Task,27,0,27,0,5.1,-1,Hit,0.500630700029,True,-1,stimulus_KLRU16_Yes-No Task_2019_Jun_13_1535_403,-1,True,2019_Jun_13_1535,Yes-No Task,2,KLRU16,
Yes-No Task,28,0,28,0,6.4,-1,Correct Rejection,0.467053199885,False,-1,stimulus_KLRU16_Yes-No Task_2019_Jun_13_1535_404,-1,True,2019_Jun_13_1535,Yes-No Task,2,KLRU16,
Yes-No Task,29,0,29,0,8.4,-1,Hit,0.467207300011,True,-1,stimulus_KLRU16_Yes-No Task_2019_Jun_13_1535_405,-1,True,2019_Jun_13_1535,Yes-No Task,2,KLRU16,
Yes-No Task,30,0,30,0,8.4,-1,Hit,0.499597500078,True,-1,stimulus_KLRU16_Yes-No Task_2019_Jun_13_1535_406,-1,True,2019_Jun_13_1535,Yes-No Task,2,KLRU16,
Yes-No Task,31,0,31,0,9.3,-1,Hit,0.466480399948,True,-1,stimulus_KLRU16_Yes-No Task_2019_Jun_13_1535_407,-1,True,2019_Jun_13_1535,Yes-No Task,2,KLRU16,
Yes-No Task,32,0,32,0,6.4,-1,Correct Rejection,0.533382300055,False,-1,stimulus_KLRU16_Yes-No Task_2019_Jun_13_1535_408,-1,True,2019_Jun_13_1535,Yes-No Task,2,KLRU16,
Yes-No Task,33,0,33,0,6.4,-1,Correct Rejection,0.568843600107,False,-1,stimulus_KLRU16_Yes-No Task_2019_Jun_13_1535_409,-1,True,2019_Jun_13_1535,Yes-No Task,2,KLRU16,
Yes-No Task,34,0,34,0,9.3,-1,Correct Rejection,0.56743340008,False,-1,stimulus_KLRU16_Yes-No Task_2019_Jun_13_1535_410,-1,True,2019_Jun_13_1535,Yes-No Task,2,KLRU16,
Yes-No Task,35,0,35,0,9.3,-1,Correct Rejection,0.532827100018,False,-1,stimulus_KLRU16_Yes-No Task_2019_Jun_13_1535_411,-1,True,2019_Jun_13_1535,Yes-No Task,2,KLRU16,
Yes-No Task,36,0,36,0,10.4,-1,Correct Rejection,0.666554899886,False,-1,stimulus_KLRU16_Yes-No Task_2019_Jun_13_1535_412,-1,True,2019_Jun_13_1535,Yes-No Task,2,KLRU16,
Yes-No Task,37,0,37,0,6.4,-1,Miss,0.535210900009,True,-1,stimulus_KLRU16_Yes-No Task_2019_Jun_13_1535_413,-1,True,2019_Jun_13_1535,Yes-No Task,2,KLRU16,
Yes-No Task,38,0,38,0,10.4,-1,False Alarm,0.500608399976,False,-1,stimulus_KLRU16_Yes-No Task_2019_Jun_13_1535_414,-1,True,2019_Jun_13_1535,Yes-No Task,2,KLRU16,
Yes-No Task,39,0,39,0,6.4,-1,Miss,0.834200399928,True,-1,stimulus_KLRU16_Yes-No Task_2019_Jun_13_1535_415,-1,True,2019_Jun_13_1535,Yes-No Task,2,KLRU16,
Yes-No Task,40,0,40,0,6.4,-1,Correct Rejection,0.600652799942,False,-1,stimulus_KLRU16_Yes-No Task_2019_Jun_13_1535_416,-1,True,2019_Jun_13_1535,Yes-No Task,2,KLRU16,
Yes-No Task,41,0,41,0,8.4,-1,Correct Rejection,0.468863799935,False,-1,stimulus_KLRU16_Yes-No Task_2019_Jun_13_1535_417,-1,True,2019_Jun_13_1535,Yes-No Task,2,KLRU16,
Yes-No Task,42,0,42,0,3.5,-1,Miss,0.600631000008,True,-1,stimulus_KLRU16_Yes-No Task_2019_Jun_13_1535_418,-1,True,2019_Jun_13_1535,Yes-No Task,2,KLRU16,
Yes-No Task,43,0,43,0,3.5,-1,False Alarm,0.765987099847,False,-1,stimulus_KLRU16_Yes-No Task_2019_Jun_13_1535_419,-1,True,2019_Jun_13_1535,Yes-No Task,2,KLRU16,
Yes-No Task,44,0,44,0,9.3,-1,Correct Rejection,0.596941200085,False,-1,stimulus_KLRU16_Yes-No Task_2019_Jun_13_1535_420,-1,True,2019_Jun_13_1535,Yes-No Task,2,KLRU16,
Yes-No Task,45,0,45,0,9.3,-1,Hit,0.467371599982,True,-1,stimulus_KLRU16_Yes-No Task_2019_Jun_13_1535_421,-1,True,2019_Jun_13_1535,Yes-No Task,2,KLRU16,
Yes-No Task,46,0,46,0,5.1,-1,False Alarm,0.567041800125,False,-1,stimulus_KLRU16_Yes-No Task_2019_Jun_13_1535_422,-1,True,2019_Jun_13_1535,Yes-No Task,2,KLRU16,
Yes-No Task,47,0,47,0,9.3,-1,Correct Rejection,0.734312299872,False,-1,stimulus_KLRU16_Yes-No Task_2019_Jun_13_1535_423,-1,True,2019_Jun_13_1535,Yes-No Task,2,KLRU16,
Yes-No Task,48,0,48,0,8.4,-1,Hit,0.467639599927,True,-1,stimulus_KLRU16_Yes-No Task_2019_Jun_13_1535_424,-1,True,2019_Jun_13_1535,Yes-No Task,2,KLRU16,
Yes-No Task,49,0,49,0,5.1,-1,False Alarm,0.567469800124,False,-1,stimulus_KLRU16_Yes-No Task_2019_Jun_13_1535_425,-1,True,2019_Jun_13_1535,Yes-No Task,2,KLRU16,
Yes-No Task,50,0,50,0,11.6,-1,Hit,0.568095800001,True,-1,stimulus_KLRU16_Yes-No Task_2019_Jun_13_1535_426,-1,True,2019_Jun_13_1535,Yes-No Task,2,KLRU16,
Yes-No Task,51,0,51,0,3.5,-1,Correct Rejection,0.533831699984,False,-1,stimulus_KLRU16_Yes-No Task_2019_Jun_13_1535_427,-1,True,2019_Jun_13_1535,Yes-No Task,2,KLRU16,
Yes-No Task,52,0,52,0,7.4,-1,False Alarm,0.633486700011,False,-1,stimulus_KLRU16_Yes-No Task_2019_Jun_13_1535_428,-1,True,2019_Jun_13_1535,Yes-No Task,2,KLRU16,
Yes-No Task,53,0,53,0,10.4,-1,Hit,0.500522000017,True,-1,stimulus_KLRU16_Yes-No Task_2019_Jun_13_1535_429,-1,True,2019_Jun_13_1535,Yes-No Task,2,KLRU16,
Yes-No Task,54,0,54,0,6.4,-1,Hit,0.500587900169,True,-1,stimulus_KLRU16_Yes-No Task_2019_Jun_13_1535_430,-1,True,2019_Jun_13_1535,Yes-No Task,2,KLRU16,
Yes-No Task,55,0,55,0,6.4,-1,Correct Rejection,0.599568200065,False,-1,stimulus_KLRU16_Yes-No Task_2019_Jun_13_1535_431,-1,True,2019_Jun_13_1535,Yes-No Task,2,KLRU16,
Yes-No Task,56,0,56,0,3.5,-1,Miss,0.497273499845,True,-1,stimulus_KLRU16_Yes-No Task_2019_Jun_13_1535_432,-1,True,2019_Jun_13_1535,Yes-No Task,2,KLRU16,
Yes-No Task,57,0,57,0,10.4,-1,Hit,0.533680099994,True,-1,stimulus_KLRU16_Yes-No Task_2019_Jun_13_1535_433,-1,True,2019_Jun_13_1535,Yes-No Task,2,KLRU16,
Yes-No Task,58,0,58,0,10.4,-1,Hit,0.466453500092,True,-1,stimulus_KLRU16_Yes-No Task_2019_Jun_13_1535_434,-1,True,2019_Jun_13_1535,Yes-No Task,2,KLRU16,
Yes-No Task,59,0,59,0,6.4,-1,Miss,0.666453799931,True,-1,stimulus_KLRU16_Yes-No Task_2019_Jun_13_1535_435,-1,True,2019_Jun_13_1535,Yes-No Task,2,KLRU16,
Yes-No Task,60,0,60,0,3.5,-1,Miss,0.633769700071,True,-1,stimulus_KLRU16_Yes-No Task_2019_Jun_13_1535_436,-1,True,2019_Jun_13_1535,Yes-No Task,2,KLRU16,
Yes-No Task,61,0,61,0,5.1,-1,Correct Rejection,0.733994000126,False,-1,stimulus_KLRU16_Yes-No Task_2019_Jun_13_1535_437,-1,True,2019_Jun_13_1535,Yes-No Task,2,KLRU16,
Yes-No Task,62,0,62,0,5.1,-1,False Alarm,0.501171699958,False,-1,stimulus_KLRU16_Yes-No Task_2019_Jun_13_1535_438,-1,True,2019_Jun_13_1535,Yes-No Task,2,KLRU16,
Yes-No Task,63,0,63,0,3.5,-1,Hit,0.600725299912,True,-1,stimulus_KLRU16_Yes-No Task_2019_Jun_13_1535_439,-1,True,2019_Jun_13_1535,Yes-No Task,2,KLRU16,
Yes-No Task,64,0,64,0,10.4,-1,Hit,0.500728700077,True,-1,stimulus_KLRU16_Yes-No Task_2019_Jun_13_1535_440,-1,True,2019_Jun_13_1535,Yes-No Task,2,KLRU16,
Yes-No Task,65,0,65,0,10.4,-1,Correct Rejection,0.633995699929,False,-1,stimulus_KLRU16_Yes-No Task_2019_Jun_13_1535_441,-1,True,2019_Jun_13_1535,Yes-No Task,2,KLRU16,
Yes-No Task,66,0,66,0,6.4,-1,Hit,0.500762999989,True,-1,stimulus_KLRU16_Yes-No Task_2019_Jun_13_1535_442,-1,True,2019_Jun_13_1535,Yes-No Task,2,KLRU16,
Yes-No Task,67,0,67,0,6.4,-1,Correct Rejection,0.467759399908,False,-1,stimulus_KLRU16_Yes-No Task_2019_Jun_13_1535_443,-1,True,2019_Jun_13_1535,Yes-No Task,2,KLRU16,
Yes-No Task,68,0,68,0,3.5,-1,Correct Rejection,0.534699299838,False,-1,stimulus_KLRU16_Yes-No Task_2019_Jun_13_1535_444,-1,True,2019_Jun_13_1535,Yes-No Task,2,KLRU16,
Yes-No Task,69,0,69,0,7.4,-1,Hit,0.433962400071,True,-1,stimulus_KLRU16_Yes-No Task_2019_Jun_13_1535_445,-1,True,2019_Jun_13_1535,Yes-No Task,2,KLRU16,
Yes-No Task,70,0,70,0,6.4,-1,Correct Rejection,0.600524700014,False,-1,stimulus_KLRU16_Yes-No Task_2019_Jun_13_1535_446,-1,True,2019_Jun_13_1535,Yes-No Task,2,KLRU16,
Yes-No Task,71,0,71,0,6.4,-1,Correct Rejection,0.567230199929,False,-1,stimulus_KLRU16_Yes-No Task_2019_Jun_13_1535_447,-1,True,2019_Jun_13_1535,Yes-No Task,2,KLRU16,
Yes-No Task,72,0,72,0,10.4,-1,Correct Rejection,0.467272900045,False,-1,stimulus_KLRU16_Yes-No Task_2019_Jun_13_1535_448,-1,True,2019_Jun_13_1535,Yes-No Task,2,KLRU16,
Yes-No Task,73,0,73,0,3.5,-1,Miss,0.601202699821,True,-1,stimulus_KLRU16_Yes-No Task_2019_Jun_13_1535_449,-1,True,2019_Jun_13_1535,Yes-No Task,2,KLRU16,
Yes-No Task,74,0,74,0,9.3,-1,Correct Rejection,0.700175400125,False,-1,stimulus_KLRU16_Yes-No Task_2019_Jun_13_1535_450,-1,True,2019_Jun_13_1535,Yes-No Task,2,KLRU16,
Yes-No Task,0,0,0,0,7.4,-1,Correct Rejection,0.499609699938,False,-1,stimulus_KLRU16_Yes-No Task_2019_Jun_13_1535_451,-1,True,2019_Jun_13_1535,Yes-No Task,2,KLRU16,
Yes-No Task,1,0,1,0,11.6,-1,Correct Rejection,0.433109699981,False,-1,stimulus_KLRU16_Yes-No Task_2019_Jun_13_1535_452,-1,True,2019_Jun_13_1535,Yes-No Task,2,KLRU16,
Yes-No Task,2,0,2,0,10.4,-1,Hit,0.534186600009,True,-1,stimulus_KLRU16_Yes-No Task_2019_Jun_13_1535_453,-1,True,2019_Jun_13_1535,Yes-No Task,2,KLRU16,
Yes-No Task,3,0,3,0,6.4,-1,False Alarm,0.467222099891,False,-1,stimulus_KLRU16_Yes-No Task_2019_Jun_13_1535_454,-1,True,2019_Jun_13_1535,Yes-No Task,2,KLRU16,
Yes-No Task,4,0,4,0,8.4,-1,Hit,0.566601000028,True,-1,stimulus_KLRU16_Yes-No Task_2019_Jun_13_1535_455,-1,True,2019_Jun_13_1535,Yes-No Task,2,KLRU16,
Yes-No Task,5,0,5,0,6.4,-1,Correct Rejection,0.467041000025,False,-1,stimulus_KLRU16_Yes-No Task_2019_Jun_13_1535_456,-1,True,2019_Jun_13_1535,Yes-No Task,2,KLRU16,
Yes-No Task,6,0,6,0,5.1,-1,Correct Rejection,0.43556699995,False,-1,stimulus_KLRU16_Yes-No Task_2019_Jun_13_1535_457,-1,True,2019_Jun_13_1535,Yes-No Task,2,KLRU16,
Yes-No Task,7,0,7,0,5.1,-1,Correct Rejection,0.533812599955,False,-1,stimulus_KLRU16_Yes-No Task_2019_Jun_13_1535_458,-1,True,2019_Jun_13_1535,Yes-No Task,2,KLRU16,
Yes-No Task,8,0,8,0,3.5,-1,Correct Rejection,0.467133200029,False,-1,stimulus_KLRU16_Yes-No Task_2019_Jun_13_1535_459,-1,True,2019_Jun_13_1535,Yes-No Task,2,KLRU16,
Yes-No Task,9,0,9,0,8.4,-1,Correct Rejection,0.500708499923,False,-1,stimulus_KLRU16_Yes-No Task_2019_Jun_13_1535_460,-1,True,2019_Jun_13_1535,Yes-No Task,2,KLRU16,
Yes-No Task,10,0,10,0,5.1,-1,Hit,0.834012200125,True,-1,stimulus_KLRU16_Yes-No Task_2019_Jun_13_1535_461,-1,True,2019_Jun_13_1535,Yes-No Task,2,KLRU16,
Yes-No Task,11,0,11,0,6.4,-1,Hit,0.500618600054,True,-1,stimulus_KLRU16_Yes-No Task_2019_Jun_13_1535_462,-1,True,2019_Jun_13_1535,Yes-No Task,2,KLRU16,
Yes-No Task,12,0,12,0,6.4,-1,Correct Rejection,0.40179620008,False,-1,stimulus_KLRU16_Yes-No Task_2019_Jun_13_1535_463,-1,True,2019_Jun_13_1535,Yes-No Task,2,KLRU16,
Yes-No Task,13,0,13,0,3.5,-1,Correct Rejection,0.499756900128,False,-1,stimulus_KLRU16_Yes-No Task_2019_Jun_13_1535_464,-1,True,2019_Jun_13_1535,Yes-No Task,2,KLRU16,
Yes-No Task,14,0,14,0,11.6,-1,Hit,0.500922299922,True,-1,stimulus_KLRU16_Yes-No Task_2019_Jun_13_1535_465,-1,True,2019_Jun_13_1535,Yes-No Task,2,KLRU16,
Yes-No Task,15,0,15,0,3.5,-1,Hit,0.601996399928,True,-1,stimulus_KLRU16_Yes-No Task_2019_Jun_13_1535_466,-1,True,2019_Jun_13_1535,Yes-No Task,2,KLRU16,
Yes-No Task,16,0,16,0,5.1,-1,Correct Rejection,0.498162599979,False,-1,stimulus_KLRU16_Yes-No Task_2019_Jun_13_1535_467,-1,True,2019_Jun_13_1535,Yes-No Task,2,KLRU16,
Yes-No Task,17,0,17,0,9.3,-1,False Alarm,0.433976199944,False,-1,stimulus_KLRU16_Yes-No Task_2019_Jun_13_1535_468,-1,True,2019_Jun_13_1535,Yes-No Task,2,KLRU16,
Yes-No Task,18,0,18,0,9.3,-1,False Alarm,0.599966200069,False,-1,stimulus_KLRU16_Yes-No Task_2019_Jun_13_1535_469,-1,True,2019_Jun_13_1535,Yes-No Task,2,KLRU16,
Yes-No Task,19,0,19,0,3.5,-1,Hit,0.568605599925,True,-1,stimulus_KLRU16_Yes-No Task_2019_Jun_13_1535_470,-1,True,2019_Jun_13_1535,Yes-No Task,2,KLRU16,
Yes-No Task,20,0,20,0,6.4,-1,Hit,0.567257999908,True,-1,stimulus_KLRU16_Yes-No Task_2019_Jun_13_1535_471,-1,True,2019_Jun_13_1535,Yes-No Task,2,KLRU16,
Yes-No Task,21,0,21,0,9.3,-1,Hit,0.533631700091,True,-1,stimulus_KLRU16_Yes-No Task_2019_Jun_13_1535_472,-1,True,2019_Jun_13_1535,Yes-No Task,2,KLRU16,
Yes-No Task,22,0,22,0,11.6,-1,Hit,0.434181699995,True,-1,stimulus_KLRU16_Yes-No Task_2019_Jun_13_1535_473,-1,True,2019_Jun_13_1535,Yes-No Task,2,KLRU16,
Yes-No Task,23,0,23,0,7.4,-1,Hit,0.433220800012,True,-1,stimulus_KLRU16_Yes-No Task_2019_Jun_13_1535_474,-1,True,2019_Jun_13_1535,Yes-No Task,2,KLRU16,
Yes-No Task,24,0,24,0,7.4,-1,Correct Rejection,0.466768499929,False,-1,stimulus_KLRU16_Yes-No Task_2019_Jun_13_1535_475,-1,True,2019_Jun_13_1535,Yes-No Task,2,KLRU16,
Yes-No Task,25,0,25,0,11.6,-1,Correct Rejection,0.567035599845,False,-1,stimulus_KLRU16_Yes-No Task_2019_Jun_13_1535_476,-1,True,2019_Jun_13_1535,Yes-No Task,2,KLRU16,
Yes-No Task,26,0,26,0,9.3,-1,False Alarm,0.466539999936,False,-1,stimulus_KLRU16_Yes-No Task_2019_Jun_13_1535_477,-1,True,2019_Jun_13_1535,Yes-No Task,2,KLRU16,
Yes-No Task,27,0,27,0,6.4,-1,Hit,0.535696499981,True,-1,stimulus_KLRU16_Yes-No Task_2019_Jun_13_1535_478,-1,True,2019_Jun_13_1535,Yes-No Task,2,KLRU16,
Yes-No Task,28,0,28,0,7.4,-1,Miss,0.500483599957,True,-1,stimulus_KLRU16_Yes-No Task_2019_Jun_13_1535_479,-1,True,2019_Jun_13_1535,Yes-No Task,2,KLRU16,
Yes-No Task,29,0,29,0,6.4,-1,Miss,0.600627300097,True,-1,stimulus_KLRU16_Yes-No Task_2019_Jun_13_1535_480,-1,True,2019_Jun_13_1535,Yes-No Task,2,KLRU16,
Yes-No Task,30,0,30,0,6.4,-1,False Alarm,0.700864699902,False,-1,stimulus_KLRU16_Yes-No Task_2019_Jun_13_1535_481,-1,True,2019_Jun_13_1535,Yes-No Task,2,KLRU16,
Yes-No Task,31,0,31,0,8.4,-1,False Alarm,0.734182100045,False,-1,stimulus_KLRU16_Yes-No Task_2019_Jun_13_1535_482,-1,True,2019_Jun_13_1535,Yes-No Task,2,KLRU16,
Yes-No Task,32,0,32,0,10.4,-1,False Alarm,0.767762300093,False,-1,stimulus_KLRU16_Yes-No Task_2019_Jun_13_1535_483,-1,True,2019_Jun_13_1535,Yes-No Task,2,KLRU16,
Yes-No Task,33,0,33,0,6.4,-1,Correct Rejection,0.633971799864,False,-1,stimulus_KLRU16_Yes-No Task_2019_Jun_13_1535_484,-1,True,2019_Jun_13_1535,Yes-No Task,2,KLRU16,
Yes-No Task,34,0,34,0,9.3,-1,Miss,0.500958000077,True,-1,stimulus_KLRU16_Yes-No Task_2019_Jun_13_1535_485,-1,True,2019_Jun_13_1535,Yes-No Task,2,KLRU16,
Yes-No Task,35,0,35,0,3.5,-1,Miss,0.565862599993,True,-1,stimulus_KLRU16_Yes-No Task_2019_Jun_13_1535_486,-1,True,2019_Jun_13_1535,Yes-No Task,2,KLRU16,
Yes-No Task,36,0,36,0,3.5,-1,Correct Rejection,0.768920699833,False,-1,stimulus_KLRU16_Yes-No Task_2019_Jun_13_1535_487,-1,True,2019_Jun_13_1535,Yes-No Task,2,KLRU16,
Yes-No Task,37,0,37,0,11.6,-1,Correct Rejection,0.600804000162,False,-1,stimulus_KLRU16_Yes-No Task_2019_Jun_13_1535_488,-1,True,2019_Jun_13_1535,Yes-No Task,2,KLRU16,
Yes-No Task,38,0,38,0,6.4,-1,Correct Rejection,0.568311100127,False,-1,stimulus_KLRU16_Yes-No Task_2019_Jun_13_1535_489,-1,True,2019_Jun_13_1535,Yes-No Task,2,KLRU16,
Yes-No Task,39,0,39,0,3.5,-1,Hit,0.501260800054,True,-1,stimulus_KLRU16_Yes-No Task_2019_Jun_13_1535_490,-1,True,2019_Jun_13_1535,Yes-No Task,2,KLRU16,
Yes-No Task,40,0,40,0,6.4,-1,Correct Rejection,0.567785199964,False,-1,stimulus_KLRU16_Yes-No Task_2019_Jun_13_1535_491,-1,True,2019_Jun_13_1535,Yes-No Task,2,KLRU16,
Yes-No Task,41,0,41,0,9.3,-1,Correct Rejection,0.534017500002,False,-1,stimulus_KLRU16_Yes-No Task_2019_Jun_13_1535_492,-1,True,2019_Jun_13_1535,Yes-No Task,2,KLRU16,
Yes-No Task,42,0,42,0,5.1,-1,False Alarm,0.600481699919,False,-1,stimulus_KLRU16_Yes-No Task_2019_Jun_13_1535_493,-1,True,2019_Jun_13_1535,Yes-No Task,2,KLRU16,
Yes-No Task,43,0,43,0,5.1,-1,Correct Rejection,0.633618100081,False,-1,stimulus_KLRU16_Yes-No Task_2019_Jun_13_1535_494,-1,True,2019_Jun_13_1535,Yes-No Task,2,KLRU16,
Yes-No Task,44,0,44,0,5.1,-1,False Alarm,0.833651000168,False,-1,stimulus_KLRU16_Yes-No Task_2019_Jun_13_1535_495,-1,True,2019_Jun_13_1535,Yes-No Task,2,KLRU16,
Yes-No Task,45,0,45,0,8.4,-1,False Alarm,0.500478500035,False,-1,stimulus_KLRU16_Yes-No Task_2019_Jun_13_1535_496,-1,True,2019_Jun_13_1535,Yes-No Task,2,KLRU16,
Yes-No Task,46,0,46,0,7.4,-1,Correct Rejection,0.767429299885,False,-1,stimulus_KLRU16_Yes-No Task_2019_Jun_13_1535_497,-1,True,2019_Jun_13_1535,Yes-No Task,2,KLRU16,
Yes-No Task,47,0,47,0,9.3,-1,Hit,0.501374799991,True,-1,stimulus_KLRU16_Yes-No Task_2019_Jun_13_1535_498,-1,True,2019_Jun_13_1535,Yes-No Task,2,KLRU16,
Yes-No Task,48,0,48,0,6.4,-1,False Alarm,0.669977599988,False,-1,stimulus_KLRU16_Yes-No Task_2019_Jun_13_1535_499,-1,True,2019_Jun_13_1535,Yes-No Task,2,KLRU16,
Yes-No Task,49,0,49,0,9.3,-1,Correct Rejection,0.666492099874,False,-1,stimulus_KLRU16_Yes-No Task_2019_Jun_13_1535_500,-1,True,2019_Jun_13_1535,Yes-No Task,2,KLRU16,
Yes-No Task,50,0,50,0,10.4,-1,Correct Rejection,0.701024499955,False,-1,stimulus_KLRU16_Yes-No Task_2019_Jun_13_1535_501,-1,True,2019_Jun_13_1535,Yes-No Task,2,KLRU16,
Yes-No Task,51,0,51,0,5.1,-1,Correct Rejection,0.567254299996,False,-1,stimulus_KLRU16_Yes-No Task_2019_Jun_13_1535_502,-1,True,2019_Jun_13_1535,Yes-No Task,2,KLRU16,
Yes-No Task,52,0,52,0,7.4,-1,Hit,0.867528799921,True,-1,stimulus_KLRU16_Yes-No Task_2019_Jun_13_1535_503,-1,True,2019_Jun_13_1535,Yes-No Task,2,KLRU16,
Yes-No Task,53,0,53,0,8.4,-1,Miss,0.535116899991,True,-1,stimulus_KLRU16_Yes-No Task_2019_Jun_13_1535_504,-1,True,2019_Jun_13_1535,Yes-No Task,2,KLRU16,
Yes-No Task,54,0,54,0,10.4,-1,False Alarm,0.800622300012,False,-1,stimulus_KLRU16_Yes-No Task_2019_Jun_13_1535_505,-1,True,2019_Jun_13_1535,Yes-No Task,2,KLRU16,
Yes-No Task,55,0,55,0,3.5,-1,Correct Rejection,0.701300499961,False,-1,stimulus_KLRU16_Yes-No Task_2019_Jun_13_1535_506,-1,True,2019_Jun_13_1535,Yes-No Task,2,KLRU16,
Yes-No Task,56,0,56,0,11.6,-1,Hit,0.534571300028,True,-1,stimulus_KLRU16_Yes-No Task_2019_Jun_13_1535_507,-1,True,2019_Jun_13_1535,Yes-No Task,2,KLRU16,
Yes-No Task,57,0,57,0,9.3,-1,Correct Rejection,0.533574600006,False,-1,stimulus_KLRU16_Yes-No Task_2019_Jun_13_1535_508,-1,True,2019_Jun_13_1535,Yes-No Task,2,KLRU16,
Yes-No Task,58,0,58,0,11.6,-1,Hit,0.467118699802,True,-1,stimulus_KLRU16_Yes-No Task_2019_Jun_13_1535_509,-1,True,2019_Jun_13_1535,Yes-No Task,2,KLRU16,
Yes-No Task,59,0,59,0,3.5,-1,Correct Rejection,0.600728499936,False,-1,stimulus_KLRU16_Yes-No Task_2019_Jun_13_1535_510,-1,True,2019_Jun_13_1535,Yes-No Task,2,KLRU16,
Yes-No Task,60,0,60,0,11.6,-1,Hit,0.568351400085,True,-1,stimulus_KLRU16_Yes-No Task_2019_Jun_13_1535_511,-1,True,2019_Jun_13_1535,Yes-No Task,2,KLRU16,
Yes-No Task,61,0,61,0,3.5,-1,Miss,0.668305200059,True,-1,stimulus_KLRU16_Yes-No Task_2019_Jun_13_1535_512,-1,True,2019_Jun_13_1535,Yes-No Task,2,KLRU16,
Yes-No Task,62,0,62,0,7.4,-1,Hit,0.73406259995,True,-1,stimulus_KLRU16_Yes-No Task_2019_Jun_13_1535_513,-1,True,2019_Jun_13_1535,Yes-No Task,2,KLRU16,
Yes-No Task,63,0,63,0,3.5,-1,Correct Rejection,0.700877299998,False,-1,stimulus_KLRU16_Yes-No Task_2019_Jun_13_1535_514,-1,True,2019_Jun_13_1535,Yes-No Task,2,KLRU16,
Yes-No Task,64,0,64,0,9.3,-1,No Answer,-1,False,-1,stimulus_KLRU16_Yes-No Task_2019_Jun_13_1535_515,-1,True,2019_Jun_13_1535,Yes-No Task,2,KLRU16,
Yes-No Task,65,0,65,0,10.4,-1,Correct Rejection,0.567348399898,False,-1,stimulus_KLRU16_Yes-No Task_2019_Jun_13_1535_516,-1,True,2019_Jun_13_1535,Yes-No Task,2,KLRU16,
Yes-No Task,66,0,66,0,9.3,-1,Hit,0.533834900009,True,-1,stimulus_KLRU16_Yes-No Task_2019_Jun_13_1535_517,-1,True,2019_Jun_13_1535,Yes-No Task,2,KLRU16,
Yes-No Task,67,0,67,0,10.4,-1,Correct Rejection,0.700458799955,False,-1,stimulus_KLRU16_Yes-No Task_2019_Jun_13_1535_518,-1,True,2019_Jun_13_1535,Yes-No Task,2,KLRU16,
Yes-No Task,68,0,68,0,5.1,-1,Correct Rejection,0.534002400003,False,-1,stimulus_KLRU16_Yes-No Task_2019_Jun_13_1535_519,-1,True,2019_Jun_13_1535,Yes-No Task,2,KLRU16,
Yes-No Task,69,0,69,0,3.5,-1,Miss,0.633826500038,True,-1,stimulus_KLRU16_Yes-No Task_2019_Jun_13_1535_520,-1,True,2019_Jun_13_1535,Yes-No Task,2,KLRU16,
Yes-No Task,70,0,70,0,6.4,-1,Hit,0.734039000003,True,-1,stimulus_KLRU16_Yes-No Task_2019_Jun_13_1535_521,-1,True,2019_Jun_13_1535,Yes-No Task,2,KLRU16,
Yes-No Task,71,0,71,0,6.4,-1,False Alarm,0.700970799895,False,-1,stimulus_KLRU16_Yes-No Task_2019_Jun_13_1535_522,-1,True,2019_Jun_13_1535,Yes-No Task,2,KLRU16,
Yes-No Task,72,0,72,0,7.4,-1,No Answer,-1,False,-1,stimulus_KLRU16_Yes-No Task_2019_Jun_13_1535_523,-1,True,2019_Jun_13_1535,Yes-No Task,2,KLRU16,
Yes-No Task,73,0,73,0,8.4,-1,Miss,0.700624899939,True,-1,stimulus_KLRU16_Yes-No Task_2019_Jun_13_1535_524,-1,True,2019_Jun_13_1535,Yes-No Task,2,KLRU16,
Yes-No Task,74,0,74,0,11.6,-1,Correct Rejection,0.667424100218,False,-1,stimulus_KLRU16_Yes-No Task_2019_Jun_13_1535_525,-1,True,2019_Jun_13_1535,Yes-No Task,2,KLRU16,
Yes-No Task,0,0,0,0,11.6,-1,Correct Rejection,0.466760999989,False,-1,stimulus_KLRU16_Yes-No Task_2019_Jun_13_1535_526,-1,True,2019_Jun_13_1535,Yes-No Task,2,KLRU16,
Yes-No Task,1,0,1,0,6.4,-1,Hit,0.56712380005,True,-1,stimulus_KLRU16_Yes-No Task_2019_Jun_13_1535_527,-1,True,2019_Jun_13_1535,Yes-No Task,2,KLRU16,
Yes-No Task,2,0,2,0,8.4,-1,False Alarm,0.500824799994,False,-1,stimulus_KLRU16_Yes-No Task_2019_Jun_13_1535_528,-1,True,2019_Jun_13_1535,Yes-No Task,2,KLRU16,
Yes-No Task,3,0,3,0,8.4,-1,Hit,0.46719980007,True,-1,stimulus_KLRU16_Yes-No Task_2019_Jun_13_1535_529,-1,True,2019_Jun_13_1535,Yes-No Task,2,KLRU16,
Yes-No Task,4,0,4,0,11.6,-1,Correct Rejection,0.46594220004,False,-1,stimulus_KLRU16_Yes-No Task_2019_Jun_13_1535_530,-1,True,2019_Jun_13_1535,Yes-No Task,2,KLRU16,
Yes-No Task,5,0,5,0,7.4,-1,Hit,0.501282699872,True,-1,stimulus_KLRU16_Yes-No Task_2019_Jun_13_1535_531,-1,True,2019_Jun_13_1535,Yes-No Task,2,KLRU16,
Yes-No Task,6,0,6,0,8.4,-1,Correct Rejection,0.533892000094,False,-1,stimulus_KLRU16_Yes-No Task_2019_Jun_13_1535_532,-1,True,2019_Jun_13_1535,Yes-No Task,2,KLRU16,
Yes-No Task,7,0,7,0,8.4,-1,Correct Rejection,0.500937899807,False,-1,stimulus_KLRU16_Yes-No Task_2019_Jun_13_1535_533,-1,True,2019_Jun_13_1535,Yes-No Task,2,KLRU16,
Yes-No Task,8,0,8,0,5.1,-1,Correct Rejection,0.500984800048,False,-1,stimulus_KLRU16_Yes-No Task_2019_Jun_13_1535_534,-1,True,2019_Jun_13_1535,Yes-No Task,2,KLRU16,
Yes-No Task,9,0,9,0,6.4,-1,Hit,0.633868300123,True,-1,stimulus_KLRU16_Yes-No Task_2019_Jun_13_1535_535,-1,True,2019_Jun_13_1535,Yes-No Task,2,KLRU16,
Yes-No Task,10,0,10,0,9.3,-1,Correct Rejection,0.535261299927,False,-1,stimulus_KLRU16_Yes-No Task_2019_Jun_13_1535_536,-1,True,2019_Jun_13_1535,Yes-No Task,2,KLRU16,
Yes-No Task,11,0,11,0,11.6,-1,Hit,0.436783799902,True,-1,stimulus_KLRU16_Yes-No Task_2019_Jun_13_1535_537,-1,True,2019_Jun_13_1535,Yes-No Task,2,KLRU16,
Yes-No Task,12,0,12,0,6.4,-1,Correct Rejection,0.667243199889,False,-1,stimulus_KLRU16_Yes-No Task_2019_Jun_13_1535_538,-1,True,2019_Jun_13_1535,Yes-No Task,2,KLRU16,
Yes-No Task,13,0,13,0,7.4,-1,Hit,0.70116330008,True,-1,stimulus_KLRU16_Yes-No Task_2019_Jun_13_1535_539,-1,True,2019_Jun_13_1535,Yes-No Task,2,KLRU16,
Yes-No Task,14,0,14,0,6.4,-1,Miss,0.602128400002,True,-1,stimulus_KLRU16_Yes-No Task_2019_Jun_13_1535_540,-1,True,2019_Jun_13_1535,Yes-No Task,2,KLRU16,
Yes-No Task,15,0,15,0,5.1,-1,Hit,0.566523300018,True,-1,stimulus_KLRU16_Yes-No Task_2019_Jun_13_1535_541,-1,True,2019_Jun_13_1535,Yes-No Task,2,KLRU16,
Yes-No Task,16,0,16,0,9.3,-1,Hit,0.534754799912,True,-1,stimulus_KLRU16_Yes-No Task_2019_Jun_13_1535_542,-1,True,2019_Jun_13_1535,Yes-No Task,2,KLRU16,
Yes-No Task,17,0,17,0,9.3,-1,Correct Rejection,0.601421199972,False,-1,stimulus_KLRU16_Yes-No Task_2019_Jun_13_1535_543,-1,True,2019_Jun_13_1535,Yes-No Task,2,KLRU16,
Yes-No Task,18,0,18,0,3.5,-1,Correct Rejection,0.60077670007,False,-1,stimulus_KLRU16_Yes-No Task_2019_Jun_13_1535_544,-1,True,2019_Jun_13_1535,Yes-No Task,2,KLRU16,
Yes-No Task,19,0,19,0,10.4,-1,Hit,0.634039999917,True,-1,stimulus_KLRU16_Yes-No Task_2019_Jun_13_1535_545,-1,True,2019_Jun_13_1535,Yes-No Task,2,KLRU16,
Yes-No Task,20,0,20,0,8.4,-1,Correct Rejection,0.501062399941,False,-1,stimulus_KLRU16_Yes-No Task_2019_Jun_13_1535_546,-1,True,2019_Jun_13_1535,Yes-No Task,2,KLRU16,
Yes-No Task,21,0,21,0,5.1,-1,Correct Rejection,0.600472000195,False,-1,stimulus_KLRU16_Yes-No Task_2019_Jun_13_1535_547,-1,True,2019_Jun_13_1535,Yes-No Task,2,KLRU16,
Yes-No Task,22,0,22,0,10.4,-1,Correct Rejection,0.5013433001,False,-1,stimulus_KLRU16_Yes-No Task_2019_Jun_13_1535_548,-1,True,2019_Jun_13_1535,Yes-No Task,2,KLRU16,
Yes-No Task,23,0,23,0,5.1,-1,Hit,0.600354099879,True,-1,stimulus_KLRU16_Yes-No Task_2019_Jun_13_1535_549,-1,True,2019_Jun_13_1535,Yes-No Task,2,KLRU16,
Yes-No Task,24,0,24,0,7.4,-1,Hit,0.534193400061,True,-1,stimulus_KLRU16_Yes-No Task_2019_Jun_13_1535_550,-1,True,2019_Jun_13_1535,Yes-No Task,2,KLRU16,
Yes-No Task,25,0,25,0,7.4,-1,Correct Rejection,0.433761599939,False,-1,stimulus_KLRU16_Yes-No Task_2019_Jun_13_1535_551,-1,True,2019_Jun_13_1535,Yes-No Task,2,KLRU16,
Yes-No Task,26,0,26,0,11.6,-1,Correct Rejection,0.467176199891,False,-1,stimulus_KLRU16_Yes-No Task_2019_Jun_13_1535_552,-1,True,2019_Jun_13_1535,Yes-No Task,2,KLRU16,
Yes-No Task,27,0,27,0,8.4,-1,Correct Rejection,0.602407299913,False,-1,stimulus_KLRU16_Yes-No Task_2019_Jun_13_1535_553,-1,True,2019_Jun_13_1535,Yes-No Task,2,KLRU16,
Yes-No Task,28,0,28,0,5.1,-1,Hit,0.435508399969,True,-1,stimulus_KLRU16_Yes-No Task_2019_Jun_13_1535_554,-1,True,2019_Jun_13_1535,Yes-No Task,2,KLRU16,
Yes-No Task,29,0,29,0,3.5,-1,Hit,0.767895899946,True,-1,stimulus_KLRU16_Yes-No Task_2019_Jun_13_1535_555,-1,True,2019_Jun_13_1535,Yes-No Task,2,KLRU16,
Yes-No Task,30,0,30,0,10.4,-1,Correct Rejection,0.467148300027,False,-1,stimulus_KLRU16_Yes-No Task_2019_Jun_13_1535_556,-1,True,2019_Jun_13_1535,Yes-No Task,2,KLRU16,
Yes-No Task,31,0,31,0,8.4,-1,Correct Rejection,0.60080629983,False,-1,stimulus_KLRU16_Yes-No Task_2019_Jun_13_1535_557,-1,True,2019_Jun_13_1535,Yes-No Task,2,KLRU16,
Yes-No Task,32,0,32,0,5.1,-1,Correct Rejection,0.633564600023,False,-1,stimulus_KLRU16_Yes-No Task_2019_Jun_13_1535_558,-1,True,2019_Jun_13_1535,Yes-No Task,2,KLRU16,
Yes-No Task,33,0,33,0,3.5,-1,False Alarm,0.734194800025,False,-1,stimulus_KLRU16_Yes-No Task_2019_Jun_13_1535_559,-1,True,2019_Jun_13_1535,Yes-No Task,2,KLRU16,
Yes-No Task,34,0,34,0,5.1,-1,Correct Rejection,0.83561989991,False,-1,stimulus_KLRU16_Yes-No Task_2019_Jun_13_1535_560,-1,True,2019_Jun_13_1535,Yes-No Task,2,KLRU16,
Yes-No Task,35,0,35,0,5.1,-1,Hit,0.496858999832,True,-1,stimulus_KLRU16_Yes-No Task_2019_Jun_13_1535_561,-1,True,2019_Jun_13_1535,Yes-No Task,2,KLRU16,
Yes-No Task,36,0,36,0,6.4,-1,Hit,0.468157699797,True,-1,stimulus_KLRU16_Yes-No Task_2019_Jun_13_1535_562,-1,True,2019_Jun_13_1535,Yes-No Task,2,KLRU16,
Yes-No Task,37,0,37,0,8.4,-1,False Alarm,0.600055200048,False,-1,stimulus_KLRU16_Yes-No Task_2019_Jun_13_1535_563,-1,True,2019_Jun_13_1535,Yes-No Task,2,KLRU16,
Yes-No Task,38,0,38,0,3.5,-1,Hit,0.56769679999,True,-1,stimulus_KLRU16_Yes-No Task_2019_Jun_13_1535_564,-1,True,2019_Jun_13_1535,Yes-No Task,2,KLRU16,
Yes-No Task,39,0,39,0,3.5,-1,Correct Rejection,0.56754830014,False,-1,stimulus_KLRU16_Yes-No Task_2019_Jun_13_1535_565,-1,True,2019_Jun_13_1535,Yes-No Task,2,KLRU16,
Yes-No Task,40,0,40,0,11.6,-1,Hit,0.500821900088,True,-1,stimulus_KLRU16_Yes-No Task_2019_Jun_13_1535_566,-1,True,2019_Jun_13_1535,Yes-No Task,2,KLRU16,
Yes-No Task,41,0,41,0,5.1,-1,False Alarm,0.633627200034,False,-1,stimulus_KLRU16_Yes-No Task_2019_Jun_13_1535_567,-1,True,2019_Jun_13_1535,Yes-No Task,2,KLRU16,
Yes-No Task,42,0,42,0,5.1,-1,Correct Rejection,0.733879999956,False,-1,stimulus_KLRU16_Yes-No Task_2019_Jun_13_1535_568,-1,True,2019_Jun_13_1535,Yes-No Task,2,KLRU16,
Yes-No Task,43,0,43,0,10.4,-1,Hit,0.668170100078,True,-1,stimulus_KLRU16_Yes-No Task_2019_Jun_13_1535_569,-1,True,2019_Jun_13_1535,Yes-No Task,2,KLRU16,
Yes-No Task,44,0,44,0,5.1,-1,Hit,0.63512290013,True,-1,stimulus_KLRU16_Yes-No Task_2019_Jun_13_1535_570,-1,True,2019_Jun_13_1535,Yes-No Task,2,KLRU16,
Yes-No Task,45,0,45,0,7.4,-1,Correct Rejection,0.500362300081,False,-1,stimulus_KLRU16_Yes-No Task_2019_Jun_13_1535_571,-1,True,2019_Jun_13_1535,Yes-No Task,2,KLRU16,
Yes-No Task,46,0,46,0,6.4,-1,Correct Rejection,0.566647700034,False,-1,stimulus_KLRU16_Yes-No Task_2019_Jun_13_1535_572,-1,True,2019_Jun_13_1535,Yes-No Task,2,KLRU16,
Yes-No Task,47,0,47,0,10.4,-1,Hit,0.534062799998,True,-1,stimulus_KLRU16_Yes-No Task_2019_Jun_13_1535_573,-1,True,2019_Jun_13_1535,Yes-No Task,2,KLRU16,
Yes-No Task,48,0,48,0,3.5,-1,Hit,0.533941000002,True,-1,stimulus_KLRU16_Yes-No Task_2019_Jun_13_1535_574,-1,True,2019_Jun_13_1535,Yes-No Task,2,KLRU16,
Yes-No Task,49,0,49,0,6.4,-1,False Alarm,0.732893500011,False,-1,stimulus_KLRU16_Yes-No Task_2019_Jun_13_1535_575,-1,True,2019_Jun_13_1535,Yes-No Task,2,KLRU16,
Yes-No Task,50,0,50,0,6.4,-1,Hit,0.568034199998,True,-1,stimulus_KLRU16_Yes-No Task_2019_Jun_13_1535_576,-1,True,2019_Jun_13_1535,Yes-No Task,2,KLRU16,
Yes-No Task,51,0,51,0,5.1,-1,Hit,0.634042700054,True,-1,stimulus_KLRU16_Yes-No Task_2019_Jun_13_1535_577,-1,True,2019_Jun_13_1535,Yes-No Task,2,KLRU16,
Yes-No Task,52,0,52,0,8.4,-1,Correct Rejection,0.50032979995,False,-1,stimulus_KLRU16_Yes-No Task_2019_Jun_13_1535_578,-1,True,2019_Jun_13_1535,Yes-No Task,2,KLRU16,
Yes-No Task,53,0,53,0,8.4,-1,Hit,0.534086299827,True,-1,stimulus_KLRU16_Yes-No Task_2019_Jun_13_1535_579,-1,True,2019_Jun_13_1535,Yes-No Task,2,KLRU16,
Yes-No Task,54,0,54,0,7.4,-1,Hit,0.600396899972,True,-1,stimulus_KLRU16_Yes-No Task_2019_Jun_13_1535_580,-1,True,2019_Jun_13_1535,Yes-No Task,2,KLRU16,
Yes-No Task,55,0,55,0,10.4,-1,Hit,0.500769699924,True,-1,stimulus_KLRU16_Yes-No Task_2019_Jun_13_1535_581,-1,True,2019_Jun_13_1535,Yes-No Task,2,KLRU16,
Yes-No Task,56,0,56,0,10.4,-1,Correct Rejection,0.601481799968,False,-1,stimulus_KLRU16_Yes-No Task_2019_Jun_13_1535_582,-1,True,2019_Jun_13_1535,Yes-No Task,2,KLRU16,
Yes-No Task,57,0,57,0,6.4,-1,Hit,0.667028599884,True,-1,stimulus_KLRU16_Yes-No Task_2019_Jun_13_1535_583,-1,True,2019_Jun_13_1535,Yes-No Task,2,KLRU16,
Yes-No Task,58,0,58,0,6.4,-1,Correct Rejection,0.634831400122,False,-1,stimulus_KLRU16_Yes-No Task_2019_Jun_13_1535_584,-1,True,2019_Jun_13_1535,Yes-No Task,2,KLRU16,
Yes-No Task,59,0,59,0,11.6,-1,Hit,0.533781900071,True,-1,stimulus_KLRU16_Yes-No Task_2019_Jun_13_1535_585,-1,True,2019_Jun_13_1535,Yes-No Task,2,KLRU16,
Yes-No Task,60,0,60,0,7.4,-1,Hit,0.5351443002,True,-1,stimulus_KLRU16_Yes-No Task_2019_Jun_13_1535_586,-1,True,2019_Jun_13_1535,Yes-No Task,2,KLRU16,
Yes-No Task,61,0,61,0,6.4,-1,Hit,0.534198400099,True,-1,stimulus_KLRU16_Yes-No Task_2019_Jun_13_1535_587,-1,True,2019_Jun_13_1535,Yes-No Task,2,KLRU16,
Yes-No Task,62,0,62,0,10.4,-1,False Alarm,0.667859100038,False,-1,stimulus_KLRU16_Yes-No Task_2019_Jun_13_1535_588,-1,True,2019_Jun_13_1535,Yes-No Task,2,KLRU16,
Yes-No Task,63,0,63,0,11.6,-1,Hit,0.533750199946,True,-1,stimulus_KLRU16_Yes-No Task_2019_Jun_13_1535_589,-1,True,2019_Jun_13_1535,Yes-No Task,2,KLRU16,
Yes-No Task,64,0,64,0,6.4,-1,Hit,0.568012799835,True,-1,stimulus_KLRU16_Yes-No Task_2019_Jun_13_1535_590,-1,True,2019_Jun_13_1535,Yes-No Task,2,KLRU16,
Yes-No Task,65,0,65,0,7.4,-1,Correct Rejection,0.534024399938,False,-1,stimulus_KLRU16_Yes-No Task_2019_Jun_13_1535_591,-1,True,2019_Jun_13_1535,Yes-No Task,2,KLRU16,
Yes-No Task,66,0,66,0,6.4,-1,Hit,0.6339592,True,-1,stimulus_KLRU16_Yes-No Task_2019_Jun_13_1535_592,-1,True,2019_Jun_13_1535,Yes-No Task,2,KLRU16,
Yes-No Task,67,0,67,0,7.4,-1,Correct Rejection,0.533640999813,False,-1,stimulus_KLRU16_Yes-No Task_2019_Jun_13_1535_593,-1,True,2019_Jun_13_1535,Yes-No Task,2,KLRU16,
Yes-No Task,68,0,68,0,8.4,-1,Correct Rejection,0.500016700011,False,-1,stimulus_KLRU16_Yes-No Task_2019_Jun_13_1535_594,-1,True,2019_Jun_13_1535,Yes-No Task,2,KLRU16,
Yes-No Task,69,0,69,0,3.5,-1,Hit,0.702981600072,True,-1,stimulus_KLRU16_Yes-No Task_2019_Jun_13_1535_595,-1,True,2019_Jun_13_1535,Yes-No Task,2,KLRU16,
Yes-No Task,70,0,70,0,5.1,-1,Miss,0.635405000066,True,-1,stimulus_KLRU16_Yes-No Task_2019_Jun_13_1535_596,-1,True,2019_Jun_13_1535,Yes-No Task,2,KLRU16,
Yes-No Task,71,0,71,0,11.6,-1,Correct Rejection,0.73333800002,False,-1,stimulus_KLRU16_Yes-No Task_2019_Jun_13_1535_597,-1,True,2019_Jun_13_1535,Yes-No Task,2,KLRU16,
Yes-No Task,72,0,72,0,8.4,-1,Hit,0.53430119995,True,-1,stimulus_KLRU16_Yes-No Task_2019_Jun_13_1535_598,-1,True,2019_Jun_13_1535,Yes-No Task,2,KLRU16,
Yes-No Task,73,0,73,0,11.6,-1,Hit,0.533421899891,True,-1,stimulus_KLRU16_Yes-No Task_2019_Jun_13_1535_599,-1,True,2019_Jun_13_1535,Yes-No Task,2,KLRU16,
Yes-No Task,74,0,74,0,7.4,-1,Correct Rejection,0.601570400177,False,-1,stimulus_KLRU16_Yes-No Task_2019_Jun_13_1535_600,-1,True,2019_Jun_13_1535,Yes-No Task,2,KLRU16,
