Task,trials.thisRepN,trials.thisTrialN,trials.thisN,trials.thisIndex,time_response_second,response_2IFCnew,response_key2Interval_2IFCnew,signal_intensity,constant Value,response,time_response,signal_on_stimuluspos1,signal_on_stimuluspos2,stimulus_name_pos1,stimulus_name_pos2,date,expName,session,participant,
2IFCnew,0,0,0,0,-1,1,null,9.7,-1,Hit,0.534942983184,True,False,stimulusRAMA04_2IFCnew_2019_Jun_11_1541_1,stimulusRAMA04_2IFCnew_2019_Jun_11_1541_2,2019_Jun_11_1541,2IFCnew,,RAMA04,
2IFCnew,1,0,1,0,-1,3,null,9.7,-1,Correct Rejection,0.500624443404,False,True,stimulusRAMA04_2IFCnew_2019_Jun_11_1541_3,stimulusRAMA04_2IFCnew_2019_Jun_11_1541_4,2019_Jun_11_1541,2IFCnew,,RAMA04,
2IFCnew,2,0,2,0,-1,3,null,9.7,-1,Correct Rejection,0.42952243425,False,True,stimulusRAMA04_2IFCnew_2019_Jun_11_1541_5,stimulusRAMA04_2IFCnew_2019_Jun_11_1541_6,2019_Jun_11_1541,2IFCnew,,RAMA04,
2IFCnew,3,0,3,0,-1,3,null,9.7,-1,Correct Rejection,0.402447605506,False,True,stimulusRAMA04_2IFCnew_2019_Jun_11_1541_7,stimulusRAMA04_2IFCnew_2019_Jun_11_1541_8,2019_Jun_11_1541,2IFCnew,,RAMA04,
2IFCnew,4,0,4,0,-1,1,null,9.7,-1,Hit,0.43437018618,True,False,stimulusRAMA04_2IFCnew_2019_Jun_11_1541_9,stimulusRAMA04_2IFCnew_2019_Jun_11_1541_10,2019_Jun_11_1541,2IFCnew,,RAMA04,
2IFCnew,5,0,5,0,-1,1,null,9.7,-1,Hit,0.534448272549,True,False,stimulusRAMA04_2IFCnew_2019_Jun_11_1541_11,stimulusRAMA04_2IFCnew_2019_Jun_11_1541_12,2019_Jun_11_1541,2IFCnew,,RAMA04,
2IFCnew,6,0,6,0,-1,2,null,9.7,-1,False Alarm,0.433425104711,False,True,stimulusRAMA04_2IFCnew_2019_Jun_11_1541_13,stimulusRAMA04_2IFCnew_2019_Jun_11_1541_14,2019_Jun_11_1541,2IFCnew,,RAMA04,
2IFCnew,7,0,7,0,-1,1,null,9.7,-1,Hit,0.531788331456,True,False,stimulusRAMA04_2IFCnew_2019_Jun_11_1541_15,stimulusRAMA04_2IFCnew_2019_Jun_11_1541_16,2019_Jun_11_1541,2IFCnew,,RAMA04,
2IFCnew,8,0,8,0,-1,3,null,9.7,-1,Correct Rejection,0.500201989431,False,True,stimulusRAMA04_2IFCnew_2019_Jun_11_1541_17,stimulusRAMA04_2IFCnew_2019_Jun_11_1541_18,2019_Jun_11_1541,2IFCnew,,RAMA04,
2IFCnew,9,0,9,0,-1,3,null,9.7,-1,Correct Rejection,0.634640491102,False,True,stimulusRAMA04_2IFCnew_2019_Jun_11_1541_19,stimulusRAMA04_2IFCnew_2019_Jun_11_1541_20,2019_Jun_11_1541,2IFCnew,,RAMA04,
2IFCnew,10,0,10,0,-1,1,null,9.7,-1,Hit,0.500272193458,True,False,stimulusRAMA04_2IFCnew_2019_Jun_11_1541_21,stimulusRAMA04_2IFCnew_2019_Jun_11_1541_22,2019_Jun_11_1541,2IFCnew,,RAMA04,
2IFCnew,11,0,11,0,-1,1,null,9.7,-1,Hit,0.398922229186,True,False,stimulusRAMA04_2IFCnew_2019_Jun_11_1541_23,stimulusRAMA04_2IFCnew_2019_Jun_11_1541_24,2019_Jun_11_1541,2IFCnew,,RAMA04,
2IFCnew,12,0,12,0,-1,1,null,9.7,-1,Hit,0.342898010276,True,False,stimulusRAMA04_2IFCnew_2019_Jun_11_1541_25,stimulusRAMA04_2IFCnew_2019_Jun_11_1541_26,2019_Jun_11_1541,2IFCnew,,RAMA04,
2IFCnew,13,0,13,0,-1,1,null,9.7,-1,Hit,0.269430011511,True,False,stimulusRAMA04_2IFCnew_2019_Jun_11_1541_27,stimulusRAMA04_2IFCnew_2019_Jun_11_1541_28,2019_Jun_11_1541,2IFCnew,,RAMA04,
2IFCnew,14,0,14,0,-1,1,null,9.7,-1,Hit,0.367319875862,True,False,stimulusRAMA04_2IFCnew_2019_Jun_11_1541_29,stimulusRAMA04_2IFCnew_2019_Jun_11_1541_30,2019_Jun_11_1541,2IFCnew,,RAMA04,
2IFCnew,15,0,15,0,-1,1,null,9.7,-1,Hit,0.335942913778,True,False,stimulusRAMA04_2IFCnew_2019_Jun_11_1541_31,stimulusRAMA04_2IFCnew_2019_Jun_11_1541_32,2019_Jun_11_1541,2IFCnew,,RAMA04,
2IFCnew,16,0,16,0,-1,1,null,9.7,-1,Hit,0.340378475841,True,False,stimulusRAMA04_2IFCnew_2019_Jun_11_1541_33,stimulusRAMA04_2IFCnew_2019_Jun_11_1541_34,2019_Jun_11_1541,2IFCnew,,RAMA04,
2IFCnew,17,0,17,0,-1,1,null,9.7,-1,Hit,0.368530171923,True,False,stimulusRAMA04_2IFCnew_2019_Jun_11_1541_35,stimulusRAMA04_2IFCnew_2019_Jun_11_1541_36,2019_Jun_11_1541,2IFCnew,,RAMA04,
2IFCnew,18,0,18,0,-1,1,null,9.7,-1,Hit,0.402911935467,True,False,stimulusRAMA04_2IFCnew_2019_Jun_11_1541_37,stimulusRAMA04_2IFCnew_2019_Jun_11_1541_38,2019_Jun_11_1541,2IFCnew,,RAMA04,
2IFCnew,19,0,19,0,-1,2,null,9.7,-1,False Alarm,0.603892488871,False,True,stimulusRAMA04_2IFCnew_2019_Jun_11_1541_39,stimulusRAMA04_2IFCnew_2019_Jun_11_1541_40,2019_Jun_11_1541,2IFCnew,,RAMA04,
2IFCnew,20,0,20,0,-1,1,null,9.7,-1,Hit,0.434300393332,True,False,stimulusRAMA04_2IFCnew_2019_Jun_11_1541_41,stimulusRAMA04_2IFCnew_2019_Jun_11_1541_42,2019_Jun_11_1541,2IFCnew,,RAMA04,
2IFCnew,21,0,21,0,-1,3,null,9.7,-1,Correct Rejection,0.501829402521,False,True,stimulusRAMA04_2IFCnew_2019_Jun_11_1541_43,stimulusRAMA04_2IFCnew_2019_Jun_11_1541_44,2019_Jun_11_1541,2IFCnew,,RAMA04,
2IFCnew,22,0,22,0,-1,1,null,9.7,-1,Hit,0.369663695339,True,False,stimulusRAMA04_2IFCnew_2019_Jun_11_1541_45,stimulusRAMA04_2IFCnew_2019_Jun_11_1541_46,2019_Jun_11_1541,2IFCnew,,RAMA04,
2IFCnew,23,0,23,0,-1,1,null,9.7,-1,Hit,0.535959910601,True,False,stimulusRAMA04_2IFCnew_2019_Jun_11_1541_47,stimulusRAMA04_2IFCnew_2019_Jun_11_1541_48,2019_Jun_11_1541,2IFCnew,,RAMA04,
2IFCnew,24,0,24,0,-1,1,null,9.7,-1,Hit,0.500175304245,True,False,stimulusRAMA04_2IFCnew_2019_Jun_11_1541_49,stimulusRAMA04_2IFCnew_2019_Jun_11_1541_50,2019_Jun_11_1541,2IFCnew,,RAMA04,
2IFCnew,25,0,25,0,-1,1,null,9.7,-1,Hit,0.335549198091,True,False,stimulusRAMA04_2IFCnew_2019_Jun_11_1541_51,stimulusRAMA04_2IFCnew_2019_Jun_11_1541_52,2019_Jun_11_1541,2IFCnew,,RAMA04,
2IFCnew,26,0,26,0,-1,3,null,9.7,-1,Correct Rejection,0.559363617562,False,True,stimulusRAMA04_2IFCnew_2019_Jun_11_1541_53,stimulusRAMA04_2IFCnew_2019_Jun_11_1541_54,2019_Jun_11_1541,2IFCnew,,RAMA04,
2IFCnew,27,0,27,0,-1,1,null,9.7,-1,Hit,0.368839725386,True,False,stimulusRAMA04_2IFCnew_2019_Jun_11_1541_55,stimulusRAMA04_2IFCnew_2019_Jun_11_1541_56,2019_Jun_11_1541,2IFCnew,,RAMA04,
2IFCnew,28,0,28,0,-1,2,null,9.7,-1,False Alarm,0.402197171468,False,True,stimulusRAMA04_2IFCnew_2019_Jun_11_1541_57,stimulusRAMA04_2IFCnew_2019_Jun_11_1541_58,2019_Jun_11_1541,2IFCnew,,RAMA04,
2IFCnew,29,0,29,0,-1,3,null,9.7,-1,Correct Rejection,0.667825917713,False,True,stimulusRAMA04_2IFCnew_2019_Jun_11_1541_59,stimulusRAMA04_2IFCnew_2019_Jun_11_1541_60,2019_Jun_11_1541,2IFCnew,,RAMA04,
2IFCnew,30,0,30,0,-1,1,null,9.7,-1,Hit,0.533677263185,True,False,stimulusRAMA04_2IFCnew_2019_Jun_11_1541_61,stimulusRAMA04_2IFCnew_2019_Jun_11_1541_62,2019_Jun_11_1541,2IFCnew,,RAMA04,
2IFCnew,31,0,31,0,-1,1,null,9.7,-1,Hit,0.499995073304,True,False,stimulusRAMA04_2IFCnew_2019_Jun_11_1541_63,stimulusRAMA04_2IFCnew_2019_Jun_11_1541_64,2019_Jun_11_1541,2IFCnew,,RAMA04,
2IFCnew,32,0,32,0,-1,1,null,9.7,-1,Hit,0.410049315076,True,False,stimulusRAMA04_2IFCnew_2019_Jun_11_1541_65,stimulusRAMA04_2IFCnew_2019_Jun_11_1541_66,2019_Jun_11_1541,2IFCnew,,RAMA04,
2IFCnew,33,0,33,0,-1,1,null,9.7,-1,Hit,0.494700645097,True,False,stimulusRAMA04_2IFCnew_2019_Jun_11_1541_67,stimulusRAMA04_2IFCnew_2019_Jun_11_1541_68,2019_Jun_11_1541,2IFCnew,,RAMA04,
2IFCnew,34,0,34,0,-1,2,null,9.7,-1,False Alarm,0.434742142912,False,True,stimulusRAMA04_2IFCnew_2019_Jun_11_1541_69,stimulusRAMA04_2IFCnew_2019_Jun_11_1541_70,2019_Jun_11_1541,2IFCnew,,RAMA04,
2IFCnew,35,0,35,0,-1,3,null,9.7,-1,Correct Rejection,0.629731977824,False,True,stimulusRAMA04_2IFCnew_2019_Jun_11_1541_71,stimulusRAMA04_2IFCnew_2019_Jun_11_1541_72,2019_Jun_11_1541,2IFCnew,,RAMA04,
2IFCnew,36,0,36,0,-1,2,null,9.7,-1,False Alarm,0.625311606098,False,True,stimulusRAMA04_2IFCnew_2019_Jun_11_1541_73,stimulusRAMA04_2IFCnew_2019_Jun_11_1541_74,2019_Jun_11_1541,2IFCnew,,RAMA04,
2IFCnew,37,0,37,0,-1,3,null,9.7,-1,Correct Rejection,0.603196199052,False,True,stimulusRAMA04_2IFCnew_2019_Jun_11_1541_75,stimulusRAMA04_2IFCnew_2019_Jun_11_1541_76,2019_Jun_11_1541,2IFCnew,,RAMA04,
2IFCnew,38,0,38,0,0.569068975281,4,Yes,9.7,-1,Miss,0.566509618424,True,False,stimulusRAMA04_2IFCnew_2019_Jun_11_1541_77,stimulusRAMA04_2IFCnew_2019_Jun_11_1541_78,2019_Jun_11_1541,2IFCnew,,RAMA04,
2IFCnew,39,0,39,0,-1,3,Yes,9.7,-1,Correct Rejection,0.807608113624,False,True,stimulusRAMA04_2IFCnew_2019_Jun_11_1541_79,stimulusRAMA04_2IFCnew_2019_Jun_11_1541_80,2019_Jun_11_1541,2IFCnew,,RAMA04,
2IFCnew,40,0,40,0,0.632345116232,5,Yes,9.7,-1,False Alarm,0.634755034,False,True,stimulusRAMA04_2IFCnew_2019_Jun_11_1541_81,stimulusRAMA04_2IFCnew_2019_Jun_11_1541_82,2019_Jun_11_1541,2IFCnew,,RAMA04,
2IFCnew,41,0,41,0,-1,3,Yes,9.7,-1,Correct Rejection,0.611530326772,False,True,stimulusRAMA04_2IFCnew_2019_Jun_11_1541_83,stimulusRAMA04_2IFCnew_2019_Jun_11_1541_84,2019_Jun_11_1541,2IFCnew,,RAMA04,
2IFCnew,42,0,42,0,-1,3,Yes,9.7,-1,Correct Rejection,0.534773837309,False,True,stimulusRAMA04_2IFCnew_2019_Jun_11_1541_85,stimulusRAMA04_2IFCnew_2019_Jun_11_1541_86,2019_Jun_11_1541,2IFCnew,,RAMA04,
2IFCnew,43,0,43,0,-1,3,Yes,9.7,-1,Correct Rejection,0.535683611874,False,True,stimulusRAMA04_2IFCnew_2019_Jun_11_1541_87,stimulusRAMA04_2IFCnew_2019_Jun_11_1541_88,2019_Jun_11_1541,2IFCnew,,RAMA04,
2IFCnew,44,0,44,0,0.0339794266038,4,Yes,9.7,-1,Miss,0.433836473618,True,False,stimulusRAMA04_2IFCnew_2019_Jun_11_1541_89,stimulusRAMA04_2IFCnew_2019_Jun_11_1541_90,2019_Jun_11_1541,2IFCnew,,RAMA04,
2IFCnew,45,0,45,0,-1,0,Yes,9.7,-1,No Answer,-1,True,False,stimulusRAMA04_2IFCnew_2019_Jun_11_1541_91,stimulusRAMA04_2IFCnew_2019_Jun_11_1541_92,2019_Jun_11_1541,2IFCnew,,RAMA04,
2IFCnew,46,0,46,0,-1,1,Yes,9.7,-1,Hit,0.525610403158,True,False,stimulusRAMA04_2IFCnew_2019_Jun_11_1541_93,stimulusRAMA04_2IFCnew_2019_Jun_11_1541_94,2019_Jun_11_1541,2IFCnew,,RAMA04,
2IFCnew,47,0,47,0,-1,3,Yes,9.7,-1,Correct Rejection,0.559056527447,False,True,stimulusRAMA04_2IFCnew_2019_Jun_11_1541_95,stimulusRAMA04_2IFCnew_2019_Jun_11_1541_96,2019_Jun_11_1541,2IFCnew,,RAMA04,
2IFCnew,48,0,48,0,-1,0,Yes,9.7,-1,No Answer,-1,True,False,stimulusRAMA04_2IFCnew_2019_Jun_11_1541_97,stimulusRAMA04_2IFCnew_2019_Jun_11_1541_98,2019_Jun_11_1541,2IFCnew,,RAMA04,
2IFCnew,49,0,49,0,-1,2,Yes,9.7,-1,False Alarm,0.602419442032,False,True,stimulusRAMA04_2IFCnew_2019_Jun_11_1541_99,stimulusRAMA04_2IFCnew_2019_Jun_11_1541_100,2019_Jun_11_1541,2IFCnew,,RAMA04,
2IFCnew,50,0,50,0,-1,3,Yes,9.7,-1,Correct Rejection,0.69965776708,False,True,stimulusRAMA04_2IFCnew_2019_Jun_11_1541_101,stimulusRAMA04_2IFCnew_2019_Jun_11_1541_102,2019_Jun_11_1541,2IFCnew,,RAMA04,
2IFCnew,51,0,51,0,-1,1,Yes,9.7,-1,Hit,0.535397049505,True,False,stimulusRAMA04_2IFCnew_2019_Jun_11_1541_103,stimulusRAMA04_2IFCnew_2019_Jun_11_1541_104,2019_Jun_11_1541,2IFCnew,,RAMA04,
2IFCnew,52,0,52,0,-1,1,Yes,9.7,-1,Hit,0.492091611028,True,False,stimulusRAMA04_2IFCnew_2019_Jun_11_1541_105,stimulusRAMA04_2IFCnew_2019_Jun_11_1541_106,2019_Jun_11_1541,2IFCnew,,RAMA04,
2IFCnew,53,0,53,0,-1,1,Yes,9.7,-1,Hit,0.408786469139,True,False,stimulusRAMA04_2IFCnew_2019_Jun_11_1541_107,stimulusRAMA04_2IFCnew_2019_Jun_11_1541_108,2019_Jun_11_1541,2IFCnew,,RAMA04,
2IFCnew,54,0,54,0,0.46872895956,5,Yes,9.7,-1,False Alarm,0.535881085321,False,True,stimulusRAMA04_2IFCnew_2019_Jun_11_1541_109,stimulusRAMA04_2IFCnew_2019_Jun_11_1541_110,2019_Jun_11_1541,2IFCnew,,RAMA04,
2IFCnew,55,0,55,0,-1,3,Yes,9.7,-1,Correct Rejection,0.601578229573,False,True,stimulusRAMA04_2IFCnew_2019_Jun_11_1541_111,stimulusRAMA04_2IFCnew_2019_Jun_11_1541_112,2019_Jun_11_1541,2IFCnew,,RAMA04,
2IFCnew,56,0,56,0,-1,1,Yes,9.7,-1,Hit,0.600557606202,True,False,stimulusRAMA04_2IFCnew_2019_Jun_11_1541_113,stimulusRAMA04_2IFCnew_2019_Jun_11_1541_114,2019_Jun_11_1541,2IFCnew,,RAMA04,
2IFCnew,57,0,57,0,-1,3,Yes,9.7,-1,Correct Rejection,0.471446377225,False,True,stimulusRAMA04_2IFCnew_2019_Jun_11_1541_115,stimulusRAMA04_2IFCnew_2019_Jun_11_1541_116,2019_Jun_11_1541,2IFCnew,,RAMA04,
2IFCnew,58,0,58,0,-1,1,Yes,9.7,-1,Hit,0.336806296371,True,False,stimulusRAMA04_2IFCnew_2019_Jun_11_1541_117,stimulusRAMA04_2IFCnew_2019_Jun_11_1541_118,2019_Jun_11_1541,2IFCnew,,RAMA04,
2IFCnew,59,0,59,0,-1,1,Yes,9.7,-1,Hit,0.404875176959,True,False,stimulusRAMA04_2IFCnew_2019_Jun_11_1541_119,stimulusRAMA04_2IFCnew_2019_Jun_11_1541_120,2019_Jun_11_1541,2IFCnew,,RAMA04,
2IFCnew,60,0,60,0,-1,1,Yes,9.7,-1,Hit,0.500547260512,True,False,stimulusRAMA04_2IFCnew_2019_Jun_11_1541_121,stimulusRAMA04_2IFCnew_2019_Jun_11_1541_122,2019_Jun_11_1541,2IFCnew,,RAMA04,
2IFCnew,61,0,61,0,-1,1,Yes,9.7,-1,Hit,0.412193608005,True,False,stimulusRAMA04_2IFCnew_2019_Jun_11_1541_123,stimulusRAMA04_2IFCnew_2019_Jun_11_1541_124,2019_Jun_11_1541,2IFCnew,,RAMA04,
2IFCnew,62,0,62,0,-1,1,Yes,9.7,-1,Hit,0.471411891747,True,False,stimulusRAMA04_2IFCnew_2019_Jun_11_1541_125,stimulusRAMA04_2IFCnew_2019_Jun_11_1541_126,2019_Jun_11_1541,2IFCnew,,RAMA04,
2IFCnew,63,0,63,0,-1,3,Yes,9.7,-1,Correct Rejection,0.568095976487,False,True,stimulusRAMA04_2IFCnew_2019_Jun_11_1541_127,stimulusRAMA04_2IFCnew_2019_Jun_11_1541_128,2019_Jun_11_1541,2IFCnew,,RAMA04,
2IFCnew,64,0,64,0,0.332604337018,5,Yes,9.7,-1,False Alarm,0.566117133945,False,True,stimulusRAMA04_2IFCnew_2019_Jun_11_1541_129,stimulusRAMA04_2IFCnew_2019_Jun_11_1541_130,2019_Jun_11_1541,2IFCnew,,RAMA04,
2IFCnew,65,0,65,0,-1,3,Yes,9.7,-1,Correct Rejection,0.791827875189,False,True,stimulusRAMA04_2IFCnew_2019_Jun_11_1541_131,stimulusRAMA04_2IFCnew_2019_Jun_11_1541_132,2019_Jun_11_1541,2IFCnew,,RAMA04,
2IFCnew,66,0,66,0,0.502056024969,5,Yes,9.7,-1,False Alarm,0.636930528563,False,True,stimulusRAMA04_2IFCnew_2019_Jun_11_1541_133,stimulusRAMA04_2IFCnew_2019_Jun_11_1541_134,2019_Jun_11_1541,2IFCnew,,RAMA04,
2IFCnew,67,0,67,0,-1,3,Yes,9.7,-1,Correct Rejection,0.56992907403,False,True,stimulusRAMA04_2IFCnew_2019_Jun_11_1541_135,stimulusRAMA04_2IFCnew_2019_Jun_11_1541_136,2019_Jun_11_1541,2IFCnew,,RAMA04,
2IFCnew,68,0,68,0,-1,4,Yes,9.7,-1,Miss,0.668346903287,True,False,stimulusRAMA04_2IFCnew_2019_Jun_11_1541_137,stimulusRAMA04_2IFCnew_2019_Jun_11_1541_138,2019_Jun_11_1541,2IFCnew,,RAMA04,
2IFCnew,69,0,69,0,0.366779184435,4,Yes,9.7,-1,Miss,0.603927385528,True,False,stimulusRAMA04_2IFCnew_2019_Jun_11_1541_139,stimulusRAMA04_2IFCnew_2019_Jun_11_1541_140,2019_Jun_11_1541,2IFCnew,,RAMA04,
2IFCnew,70,0,70,0,-1,3,Yes,9.7,-1,Correct Rejection,0.600626167841,False,True,stimulusRAMA04_2IFCnew_2019_Jun_11_1541_141,stimulusRAMA04_2IFCnew_2019_Jun_11_1541_142,2019_Jun_11_1541,2IFCnew,,RAMA04,
2IFCnew,71,0,71,0,-1,3,Yes,9.7,-1,Correct Rejection,0.503104154486,False,True,stimulusRAMA04_2IFCnew_2019_Jun_11_1541_143,stimulusRAMA04_2IFCnew_2019_Jun_11_1541_144,2019_Jun_11_1541,2IFCnew,,RAMA04,
2IFCnew,72,0,72,0,-1,3,Yes,9.7,-1,Correct Rejection,0.490777857136,False,True,stimulusRAMA04_2IFCnew_2019_Jun_11_1541_145,stimulusRAMA04_2IFCnew_2019_Jun_11_1541_146,2019_Jun_11_1541,2IFCnew,,RAMA04,
2IFCnew,73,0,73,0,-1,1,Yes,9.7,-1,Hit,0.506563843228,True,False,stimulusRAMA04_2IFCnew_2019_Jun_11_1541_147,stimulusRAMA04_2IFCnew_2019_Jun_11_1541_148,2019_Jun_11_1541,2IFCnew,,RAMA04,
2IFCnew,74,0,74,0,-1,3,Yes,9.7,-1,Correct Rejection,0.599866653793,False,True,stimulusRAMA04_2IFCnew_2019_Jun_11_1541_149,stimulusRAMA04_2IFCnew_2019_Jun_11_1541_150,2019_Jun_11_1541,2IFCnew,,RAMA04,
2IFCnew,0,0,0,0,-1,1,Yes,8.2,-1,Hit,0.565342019312,True,False,stimulusRAMA04_2IFCnew_2019_Jun_11_1541_151,stimulusRAMA04_2IFCnew_2019_Jun_11_1541_152,2019_Jun_11_1541,2IFCnew,,RAMA04,
2IFCnew,1,0,1,0,-1,4,Yes,8.2,-1,Miss,0.499366113916,True,False,stimulusRAMA04_2IFCnew_2019_Jun_11_1541_153,stimulusRAMA04_2IFCnew_2019_Jun_11_1541_154,2019_Jun_11_1541,2IFCnew,,RAMA04,
2IFCnew,2,0,2,0,-1,3,Yes,8.2,-1,Correct Rejection,0.536769511644,False,True,stimulusRAMA04_2IFCnew_2019_Jun_11_1541_155,stimulusRAMA04_2IFCnew_2019_Jun_11_1541_156,2019_Jun_11_1541,2IFCnew,,RAMA04,
2IFCnew,3,0,3,0,-1,3,Yes,8.2,-1,Correct Rejection,0.667800874449,False,True,stimulusRAMA04_2IFCnew_2019_Jun_11_1541_157,stimulusRAMA04_2IFCnew_2019_Jun_11_1541_158,2019_Jun_11_1541,2IFCnew,,RAMA04,
2IFCnew,4,0,4,0,-1,3,Yes,8.2,-1,Correct Rejection,0.692873870023,False,True,stimulusRAMA04_2IFCnew_2019_Jun_11_1541_159,stimulusRAMA04_2IFCnew_2019_Jun_11_1541_160,2019_Jun_11_1541,2IFCnew,,RAMA04,
2IFCnew,5,0,5,0,-1,1,Yes,8.2,-1,Hit,0.367062462494,True,False,stimulusRAMA04_2IFCnew_2019_Jun_11_1541_161,stimulusRAMA04_2IFCnew_2019_Jun_11_1541_162,2019_Jun_11_1541,2IFCnew,,RAMA04,
2IFCnew,6,0,6,0,-1,1,Yes,8.2,-1,Hit,0.541736733634,True,False,stimulusRAMA04_2IFCnew_2019_Jun_11_1541_163,stimulusRAMA04_2IFCnew_2019_Jun_11_1541_164,2019_Jun_11_1541,2IFCnew,,RAMA04,
2IFCnew,7,0,7,0,-1,1,Yes,8.2,-1,Hit,0.533237976488,True,False,stimulusRAMA04_2IFCnew_2019_Jun_11_1541_165,stimulusRAMA04_2IFCnew_2019_Jun_11_1541_166,2019_Jun_11_1541,2IFCnew,,RAMA04,
2IFCnew,8,0,8,0,-1,3,Yes,8.2,-1,Correct Rejection,0.701362362597,False,True,stimulusRAMA04_2IFCnew_2019_Jun_11_1541_167,stimulusRAMA04_2IFCnew_2019_Jun_11_1541_168,2019_Jun_11_1541,2IFCnew,,RAMA04,
2IFCnew,9,0,9,0,0.466356401797,5,Yes,8.2,-1,False Alarm,0.394078582525,False,True,stimulusRAMA04_2IFCnew_2019_Jun_11_1541_169,stimulusRAMA04_2IFCnew_2019_Jun_11_1541_170,2019_Jun_11_1541,2IFCnew,,RAMA04,
2IFCnew,10,0,10,0,-1,3,Yes,8.2,-1,Correct Rejection,0.726035894826,False,True,stimulusRAMA04_2IFCnew_2019_Jun_11_1541_171,stimulusRAMA04_2IFCnew_2019_Jun_11_1541_172,2019_Jun_11_1541,2IFCnew,,RAMA04,
2IFCnew,11,0,11,0,-1,3,Yes,8.2,-1,Correct Rejection,0.634043143597,False,True,stimulusRAMA04_2IFCnew_2019_Jun_11_1541_173,stimulusRAMA04_2IFCnew_2019_Jun_11_1541_174,2019_Jun_11_1541,2IFCnew,,RAMA04,
2IFCnew,12,0,12,0,-1,1,Yes,8.2,-1,Hit,0.702959395014,True,False,stimulusRAMA04_2IFCnew_2019_Jun_11_1541_175,stimulusRAMA04_2IFCnew_2019_Jun_11_1541_176,2019_Jun_11_1541,2IFCnew,,RAMA04,
2IFCnew,13,0,13,0,-1,1,Yes,8.2,-1,Hit,0.536048178561,True,False,stimulusRAMA04_2IFCnew_2019_Jun_11_1541_177,stimulusRAMA04_2IFCnew_2019_Jun_11_1541_178,2019_Jun_11_1541,2IFCnew,,RAMA04,
2IFCnew,14,0,14,0,-1,1,Yes,8.2,-1,Hit,0.53594348859,True,False,stimulusRAMA04_2IFCnew_2019_Jun_11_1541_179,stimulusRAMA04_2IFCnew_2019_Jun_11_1541_180,2019_Jun_11_1541,2IFCnew,,RAMA04,
2IFCnew,15,0,15,0,-1,3,Yes,8.2,-1,Correct Rejection,0.465745506343,False,True,stimulusRAMA04_2IFCnew_2019_Jun_11_1541_181,stimulusRAMA04_2IFCnew_2019_Jun_11_1541_182,2019_Jun_11_1541,2IFCnew,,RAMA04,
2IFCnew,16,0,16,0,-1,3,Yes,8.2,-1,Correct Rejection,0.735962127801,False,True,stimulusRAMA04_2IFCnew_2019_Jun_11_1541_183,stimulusRAMA04_2IFCnew_2019_Jun_11_1541_184,2019_Jun_11_1541,2IFCnew,,RAMA04,
2IFCnew,17,0,17,0,0.163450706284,3,No,8.2,-1,False Alarm,0.43310282426,False,True,stimulusRAMA04_2IFCnew_2019_Jun_11_1541_185,stimulusRAMA04_2IFCnew_2019_Jun_11_1541_186,2019_Jun_11_1541,2IFCnew,,RAMA04,
2IFCnew,18,0,18,0,-1,0,No,8.2,-1,No Answer,-1,True,False,stimulusRAMA04_2IFCnew_2019_Jun_11_1541_187,stimulusRAMA04_2IFCnew_2019_Jun_11_1541_188,2019_Jun_11_1541,2IFCnew,,RAMA04,
2IFCnew,19,0,19,0,-1,1,No,8.2,-1,Hit,0.392970513087,True,False,stimulusRAMA04_2IFCnew_2019_Jun_11_1541_189,stimulusRAMA04_2IFCnew_2019_Jun_11_1541_190,2019_Jun_11_1541,2IFCnew,,RAMA04,
2IFCnew,20,0,20,0,-1,1,No,8.2,-1,Hit,0.500726259779,True,False,stimulusRAMA04_2IFCnew_2019_Jun_11_1541_191,stimulusRAMA04_2IFCnew_2019_Jun_11_1541_192,2019_Jun_11_1541,2IFCnew,,RAMA04,
2IFCnew,21,0,21,0,-1,3,No,8.2,-1,Correct Rejection,0.73554747412,False,True,stimulusRAMA04_2IFCnew_2019_Jun_11_1541_193,stimulusRAMA04_2IFCnew_2019_Jun_11_1541_194,2019_Jun_11_1541,2IFCnew,,RAMA04,
2IFCnew,22,0,22,0,-1,3,No,8.2,-1,Correct Rejection,0.767009009141,False,True,stimulusRAMA04_2IFCnew_2019_Jun_11_1541_195,stimulusRAMA04_2IFCnew_2019_Jun_11_1541_196,2019_Jun_11_1541,2IFCnew,,RAMA04,
2IFCnew,23,0,23,0,-1,3,No,8.2,-1,Correct Rejection,0.53689062316,False,True,stimulusRAMA04_2IFCnew_2019_Jun_11_1541_197,stimulusRAMA04_2IFCnew_2019_Jun_11_1541_198,2019_Jun_11_1541,2IFCnew,,RAMA04,
2IFCnew,24,0,24,0,-1,1,No,8.2,-1,Hit,0.558129509445,True,False,stimulusRAMA04_2IFCnew_2019_Jun_11_1541_199,stimulusRAMA04_2IFCnew_2019_Jun_11_1541_200,2019_Jun_11_1541,2IFCnew,,RAMA04,
2IFCnew,25,0,25,0,-1,1,No,8.2,-1,Hit,0.46930249501,True,False,stimulusRAMA04_2IFCnew_2019_Jun_11_1541_201,stimulusRAMA04_2IFCnew_2019_Jun_11_1541_202,2019_Jun_11_1541,2IFCnew,,RAMA04,
2IFCnew,26,0,26,0,-1,3,No,8.2,-1,Correct Rejection,0.466877387371,False,True,stimulusRAMA04_2IFCnew_2019_Jun_11_1541_203,stimulusRAMA04_2IFCnew_2019_Jun_11_1541_204,2019_Jun_11_1541,2IFCnew,,RAMA04,
2IFCnew,27,0,27,0,-1,2,No,8.2,-1,False Alarm,0.675129569136,False,True,stimulusRAMA04_2IFCnew_2019_Jun_11_1541_205,stimulusRAMA04_2IFCnew_2019_Jun_11_1541_206,2019_Jun_11_1541,2IFCnew,,RAMA04,
2IFCnew,28,0,28,0,0.468435006682,4,Yes,8.2,-1,Miss,0.471672589425,True,False,stimulusRAMA04_2IFCnew_2019_Jun_11_1541_207,stimulusRAMA04_2IFCnew_2019_Jun_11_1541_208,2019_Jun_11_1541,2IFCnew,,RAMA04,
2IFCnew,29,0,29,0,-1,1,Yes,8.2,-1,Hit,0.534081653226,True,False,stimulusRAMA04_2IFCnew_2019_Jun_11_1541_209,stimulusRAMA04_2IFCnew_2019_Jun_11_1541_210,2019_Jun_11_1541,2IFCnew,,RAMA04,
2IFCnew,30,0,30,0,-1,3,Yes,8.2,-1,Correct Rejection,0.598752015736,False,True,stimulusRAMA04_2IFCnew_2019_Jun_11_1541_211,stimulusRAMA04_2IFCnew_2019_Jun_11_1541_212,2019_Jun_11_1541,2IFCnew,,RAMA04,
2IFCnew,31,0,31,0,0.537135310005,2,Yes,8.2,-1,Correct Rejection,0.794089174364,False,True,stimulusRAMA04_2IFCnew_2019_Jun_11_1541_213,stimulusRAMA04_2IFCnew_2019_Jun_11_1541_214,2019_Jun_11_1541,2IFCnew,,RAMA04,
2IFCnew,32,0,32,0,-1,1,Yes,8.2,-1,Hit,0.566653721035,True,False,stimulusRAMA04_2IFCnew_2019_Jun_11_1541_215,stimulusRAMA04_2IFCnew_2019_Jun_11_1541_216,2019_Jun_11_1541,2IFCnew,,RAMA04,
2IFCnew,33,0,33,0,-1,1,Yes,8.2,-1,Hit,0.435121899936,True,False,stimulusRAMA04_2IFCnew_2019_Jun_11_1541_217,stimulusRAMA04_2IFCnew_2019_Jun_11_1541_218,2019_Jun_11_1541,2IFCnew,,RAMA04,
2IFCnew,34,0,34,0,-1,1,Yes,8.2,-1,Hit,0.511726896744,True,False,stimulusRAMA04_2IFCnew_2019_Jun_11_1541_219,stimulusRAMA04_2IFCnew_2019_Jun_11_1541_220,2019_Jun_11_1541,2IFCnew,,RAMA04,
2IFCnew,35,0,35,0,-1,1,Yes,8.2,-1,Hit,0.396274603903,True,False,stimulusRAMA04_2IFCnew_2019_Jun_11_1541_221,stimulusRAMA04_2IFCnew_2019_Jun_11_1541_222,2019_Jun_11_1541,2IFCnew,,RAMA04,
2IFCnew,36,0,36,0,-1,1,Yes,8.2,-1,Hit,0.464789339341,True,False,stimulusRAMA04_2IFCnew_2019_Jun_11_1541_223,stimulusRAMA04_2IFCnew_2019_Jun_11_1541_224,2019_Jun_11_1541,2IFCnew,,RAMA04,
2IFCnew,37,0,37,0,-1,3,Yes,8.2,-1,Correct Rejection,0.598688791506,False,True,stimulusRAMA04_2IFCnew_2019_Jun_11_1541_225,stimulusRAMA04_2IFCnew_2019_Jun_11_1541_226,2019_Jun_11_1541,2IFCnew,,RAMA04,
2IFCnew,38,0,38,0,-1,1,Yes,8.2,-1,Hit,0.434927300084,True,False,stimulusRAMA04_2IFCnew_2019_Jun_11_1541_227,stimulusRAMA04_2IFCnew_2019_Jun_11_1541_228,2019_Jun_11_1541,2IFCnew,,RAMA04,
2IFCnew,39,0,39,0,0.303736234549,5,Yes,8.2,-1,False Alarm,0.635595426429,False,True,stimulusRAMA04_2IFCnew_2019_Jun_11_1541_229,stimulusRAMA04_2IFCnew_2019_Jun_11_1541_230,2019_Jun_11_1541,2IFCnew,,RAMA04,
2IFCnew,40,0,40,0,-1,1,Yes,8.2,-1,Hit,0.63809279073,True,False,stimulusRAMA04_2IFCnew_2019_Jun_11_1541_231,stimulusRAMA04_2IFCnew_2019_Jun_11_1541_232,2019_Jun_11_1541,2IFCnew,,RAMA04,
2IFCnew,41,0,41,0,-1,1,Yes,8.2,-1,Hit,0.487196645699,True,False,stimulusRAMA04_2IFCnew_2019_Jun_11_1541_233,stimulusRAMA04_2IFCnew_2019_Jun_11_1541_234,2019_Jun_11_1541,2IFCnew,,RAMA04,
2IFCnew,42,0,42,0,-1,3,Yes,8.2,-1,Correct Rejection,0.532340929378,False,True,stimulusRAMA04_2IFCnew_2019_Jun_11_1541_235,stimulusRAMA04_2IFCnew_2019_Jun_11_1541_236,2019_Jun_11_1541,2IFCnew,,RAMA04,
2IFCnew,43,0,43,0,-1,3,Yes,8.2,-1,Correct Rejection,0.63180811936,False,True,stimulusRAMA04_2IFCnew_2019_Jun_11_1541_237,stimulusRAMA04_2IFCnew_2019_Jun_11_1541_238,2019_Jun_11_1541,2IFCnew,,RAMA04,
2IFCnew,44,0,44,0,-1,3,Yes,8.2,-1,Correct Rejection,0.46713069547,False,True,stimulusRAMA04_2IFCnew_2019_Jun_11_1541_239,stimulusRAMA04_2IFCnew_2019_Jun_11_1541_240,2019_Jun_11_1541,2IFCnew,,RAMA04,
2IFCnew,45,0,45,0,-1,3,Yes,8.2,-1,Correct Rejection,0.602289298549,False,True,stimulusRAMA04_2IFCnew_2019_Jun_11_1541_241,stimulusRAMA04_2IFCnew_2019_Jun_11_1541_242,2019_Jun_11_1541,2IFCnew,,RAMA04,
2IFCnew,46,0,46,0,-1,3,Yes,8.2,-1,Correct Rejection,0.433302761056,False,True,stimulusRAMA04_2IFCnew_2019_Jun_11_1541_243,stimulusRAMA04_2IFCnew_2019_Jun_11_1541_244,2019_Jun_11_1541,2IFCnew,,RAMA04,
2IFCnew,47,0,47,0,0.265850852709,4,Yes,8.2,-1,Miss,0.670984674711,True,False,stimulusRAMA04_2IFCnew_2019_Jun_11_1541_245,stimulusRAMA04_2IFCnew_2019_Jun_11_1541_246,2019_Jun_11_1541,2IFCnew,,RAMA04,
2IFCnew,48,0,48,0,-1,0,Yes,8.2,-1,No Answer,-1,False,True,stimulusRAMA04_2IFCnew_2019_Jun_11_1541_247,stimulusRAMA04_2IFCnew_2019_Jun_11_1541_248,2019_Jun_11_1541,2IFCnew,,RAMA04,
2IFCnew,49,0,49,0,0.234665616881,5,Yes,8.2,-1,False Alarm,0.502499006223,False,True,stimulusRAMA04_2IFCnew_2019_Jun_11_1541_249,stimulusRAMA04_2IFCnew_2019_Jun_11_1541_250,2019_Jun_11_1541,2IFCnew,,RAMA04,
2IFCnew,50,0,50,0,0.53242550185,6,No,8.2,-1,Miss,0.498660792131,True,False,stimulusRAMA04_2IFCnew_2019_Jun_11_1541_251,stimulusRAMA04_2IFCnew_2019_Jun_11_1541_252,2019_Jun_11_1541,2IFCnew,,RAMA04,
2IFCnew,51,0,51,0,-1,3,No,8.2,-1,Correct Rejection,0.657908306923,False,True,stimulusRAMA04_2IFCnew_2019_Jun_11_1541_253,stimulusRAMA04_2IFCnew_2019_Jun_11_1541_254,2019_Jun_11_1541,2IFCnew,,RAMA04,
2IFCnew,52,0,52,0,-1,1,No,8.2,-1,Hit,0.634119916242,True,False,stimulusRAMA04_2IFCnew_2019_Jun_11_1541_255,stimulusRAMA04_2IFCnew_2019_Jun_11_1541_256,2019_Jun_11_1541,2IFCnew,,RAMA04,
2IFCnew,53,0,53,0,-1,3,No,8.2,-1,Correct Rejection,0.500608432107,False,True,stimulusRAMA04_2IFCnew_2019_Jun_11_1541_257,stimulusRAMA04_2IFCnew_2019_Jun_11_1541_258,2019_Jun_11_1541,2IFCnew,,RAMA04,
2IFCnew,54,0,54,0,-1,3,No,8.2,-1,Correct Rejection,0.567994160112,False,True,stimulusRAMA04_2IFCnew_2019_Jun_11_1541_259,stimulusRAMA04_2IFCnew_2019_Jun_11_1541_260,2019_Jun_11_1541,2IFCnew,,RAMA04,
2IFCnew,55,0,55,0,-1,3,No,8.2,-1,Correct Rejection,0.633949128445,False,True,stimulusRAMA04_2IFCnew_2019_Jun_11_1541_261,stimulusRAMA04_2IFCnew_2019_Jun_11_1541_262,2019_Jun_11_1541,2IFCnew,,RAMA04,
2IFCnew,56,0,56,0,-1,3,No,8.2,-1,Correct Rejection,0.522954156622,False,True,stimulusRAMA04_2IFCnew_2019_Jun_11_1541_263,stimulusRAMA04_2IFCnew_2019_Jun_11_1541_264,2019_Jun_11_1541,2IFCnew,,RAMA04,
2IFCnew,57,0,57,0,-1,3,No,8.2,-1,Correct Rejection,0.442083564587,False,True,stimulusRAMA04_2IFCnew_2019_Jun_11_1541_265,stimulusRAMA04_2IFCnew_2019_Jun_11_1541_266,2019_Jun_11_1541,2IFCnew,,RAMA04,
2IFCnew,58,0,58,0,-1,3,No,8.2,-1,Correct Rejection,0.531920527574,False,True,stimulusRAMA04_2IFCnew_2019_Jun_11_1541_267,stimulusRAMA04_2IFCnew_2019_Jun_11_1541_268,2019_Jun_11_1541,2IFCnew,,RAMA04,
2IFCnew,59,0,59,0,-1,1,No,8.2,-1,Hit,0.467063775752,True,False,stimulusRAMA04_2IFCnew_2019_Jun_11_1541_269,stimulusRAMA04_2IFCnew_2019_Jun_11_1541_270,2019_Jun_11_1541,2IFCnew,,RAMA04,
2IFCnew,60,0,60,0,-1,3,No,8.2,-1,Correct Rejection,0.433873012662,False,True,stimulusRAMA04_2IFCnew_2019_Jun_11_1541_271,stimulusRAMA04_2IFCnew_2019_Jun_11_1541_272,2019_Jun_11_1541,2IFCnew,,RAMA04,
2IFCnew,61,0,61,0,-1,1,No,8.2,-1,Hit,0.37658060994,True,False,stimulusRAMA04_2IFCnew_2019_Jun_11_1541_273,stimulusRAMA04_2IFCnew_2019_Jun_11_1541_274,2019_Jun_11_1541,2IFCnew,,RAMA04,
2IFCnew,62,0,62,0,-1,3,No,8.2,-1,Correct Rejection,0.500276298728,False,True,stimulusRAMA04_2IFCnew_2019_Jun_11_1541_275,stimulusRAMA04_2IFCnew_2019_Jun_11_1541_276,2019_Jun_11_1541,2IFCnew,,RAMA04,
2IFCnew,63,0,63,0,-1,3,No,8.2,-1,Correct Rejection,0.506266196258,False,True,stimulusRAMA04_2IFCnew_2019_Jun_11_1541_277,stimulusRAMA04_2IFCnew_2019_Jun_11_1541_278,2019_Jun_11_1541,2IFCnew,,RAMA04,
2IFCnew,64,0,64,0,0.266042989213,5,Yes,8.2,-1,False Alarm,0.535594933201,False,True,stimulusRAMA04_2IFCnew_2019_Jun_11_1541_279,stimulusRAMA04_2IFCnew_2019_Jun_11_1541_280,2019_Jun_11_1541,2IFCnew,,RAMA04,
2IFCnew,65,0,65,0,-1,1,Yes,8.2,-1,Hit,0.52617203258,True,False,stimulusRAMA04_2IFCnew_2019_Jun_11_1541_281,stimulusRAMA04_2IFCnew_2019_Jun_11_1541_282,2019_Jun_11_1541,2IFCnew,,RAMA04,
2IFCnew,66,0,66,0,-1,3,Yes,8.2,-1,Correct Rejection,0.66889703786,False,True,stimulusRAMA04_2IFCnew_2019_Jun_11_1541_283,stimulusRAMA04_2IFCnew_2019_Jun_11_1541_284,2019_Jun_11_1541,2IFCnew,,RAMA04,
2IFCnew,67,0,67,0,-1,1,Yes,8.2,-1,Hit,0.464969980996,True,False,stimulusRAMA04_2IFCnew_2019_Jun_11_1541_285,stimulusRAMA04_2IFCnew_2019_Jun_11_1541_286,2019_Jun_11_1541,2IFCnew,,RAMA04,
2IFCnew,68,0,68,0,-1,4,Yes,8.2,-1,Miss,0.565879016183,True,False,stimulusRAMA04_2IFCnew_2019_Jun_11_1541_287,stimulusRAMA04_2IFCnew_2019_Jun_11_1541_288,2019_Jun_11_1541,2IFCnew,,RAMA04,
2IFCnew,69,0,69,0,-1,3,Yes,8.2,-1,Correct Rejection,0.60525345616,False,True,stimulusRAMA04_2IFCnew_2019_Jun_11_1541_289,stimulusRAMA04_2IFCnew_2019_Jun_11_1541_290,2019_Jun_11_1541,2IFCnew,,RAMA04,
2IFCnew,70,0,70,0,-1,1,Yes,8.2,-1,Hit,0.52456761105,True,False,stimulusRAMA04_2IFCnew_2019_Jun_11_1541_291,stimulusRAMA04_2IFCnew_2019_Jun_11_1541_292,2019_Jun_11_1541,2IFCnew,,RAMA04,
2IFCnew,71,0,71,0,-1,1,Yes,8.2,-1,Hit,0.535104328301,True,False,stimulusRAMA04_2IFCnew_2019_Jun_11_1541_293,stimulusRAMA04_2IFCnew_2019_Jun_11_1541_294,2019_Jun_11_1541,2IFCnew,,RAMA04,
2IFCnew,72,0,72,0,-1,3,Yes,8.2,-1,Correct Rejection,0.527590476908,False,True,stimulusRAMA04_2IFCnew_2019_Jun_11_1541_295,stimulusRAMA04_2IFCnew_2019_Jun_11_1541_296,2019_Jun_11_1541,2IFCnew,,RAMA04,
2IFCnew,73,0,73,0,-1,3,Yes,8.2,-1,Correct Rejection,0.536419313867,False,True,stimulusRAMA04_2IFCnew_2019_Jun_11_1541_297,stimulusRAMA04_2IFCnew_2019_Jun_11_1541_298,2019_Jun_11_1541,2IFCnew,,RAMA04,
2IFCnew,74,0,74,0,-1,1,Yes,8.2,-1,Hit,0.565483248327,True,False,stimulusRAMA04_2IFCnew_2019_Jun_11_1541_299,stimulusRAMA04_2IFCnew_2019_Jun_11_1541_300,2019_Jun_11_1541,2IFCnew,,RAMA04,
2IFCnew,0,0,0,0,-1,1,Yes,6,-1,Hit,0.729807190131,True,False,stimulusRAMA04_2IFCnew_2019_Jun_11_1541_301,stimulusRAMA04_2IFCnew_2019_Jun_11_1541_302,2019_Jun_11_1541,2IFCnew,,RAMA04,
2IFCnew,1,0,1,0,-1,2,Yes,6,-1,False Alarm,0.500344860367,False,True,stimulusRAMA04_2IFCnew_2019_Jun_11_1541_303,stimulusRAMA04_2IFCnew_2019_Jun_11_1541_304,2019_Jun_11_1541,2IFCnew,,RAMA04,
2IFCnew,2,0,2,0,-1,3,Yes,6,-1,Correct Rejection,0.666937081143,False,True,stimulusRAMA04_2IFCnew_2019_Jun_11_1541_305,stimulusRAMA04_2IFCnew_2019_Jun_11_1541_306,2019_Jun_11_1541,2IFCnew,,RAMA04,
2IFCnew,3,0,3,0,-1,3,Yes,6,-1,Correct Rejection,0.500927428249,False,True,stimulusRAMA04_2IFCnew_2019_Jun_11_1541_307,stimulusRAMA04_2IFCnew_2019_Jun_11_1541_308,2019_Jun_11_1541,2IFCnew,,RAMA04,
2IFCnew,4,0,4,0,-1,3,Yes,6,-1,Correct Rejection,0.600015272386,False,True,stimulusRAMA04_2IFCnew_2019_Jun_11_1541_309,stimulusRAMA04_2IFCnew_2019_Jun_11_1541_310,2019_Jun_11_1541,2IFCnew,,RAMA04,
2IFCnew,5,0,5,0,-1,3,Yes,6,-1,Correct Rejection,0.769273181912,False,True,stimulusRAMA04_2IFCnew_2019_Jun_11_1541_311,stimulusRAMA04_2IFCnew_2019_Jun_11_1541_312,2019_Jun_11_1541,2IFCnew,,RAMA04,
2IFCnew,6,0,6,0,-1,4,Yes,6,-1,Miss,0.538569765165,True,False,stimulusRAMA04_2IFCnew_2019_Jun_11_1541_313,stimulusRAMA04_2IFCnew_2019_Jun_11_1541_314,2019_Jun_11_1541,2IFCnew,,RAMA04,
2IFCnew,7,0,7,0,0.378070489503,4,Yes,6,-1,Miss,0.533463777974,True,False,stimulusRAMA04_2IFCnew_2019_Jun_11_1541_315,stimulusRAMA04_2IFCnew_2019_Jun_11_1541_316,2019_Jun_11_1541,2IFCnew,,RAMA04,
2IFCnew,8,0,8,0,0.502635719255,7,Yes,6,-1,Hit,0.606378357857,True,False,stimulusRAMA04_2IFCnew_2019_Jun_11_1541_317,stimulusRAMA04_2IFCnew_2019_Jun_11_1541_318,2019_Jun_11_1541,2IFCnew,,RAMA04,
2IFCnew,9,0,9,0,-1,3,Yes,6,-1,Correct Rejection,0.434775807895,False,True,stimulusRAMA04_2IFCnew_2019_Jun_11_1541_319,stimulusRAMA04_2IFCnew_2019_Jun_11_1541_320,2019_Jun_11_1541,2IFCnew,,RAMA04,
2IFCnew,10,0,10,0,0.43423840031,4,Yes,6,-1,Miss,0.469973330852,True,False,stimulusRAMA04_2IFCnew_2019_Jun_11_1541_321,stimulusRAMA04_2IFCnew_2019_Jun_11_1541_322,2019_Jun_11_1541,2IFCnew,,RAMA04,
2IFCnew,11,0,11,0,0.334957188461,4,Yes,6,-1,Miss,0.601092961151,True,False,stimulusRAMA04_2IFCnew_2019_Jun_11_1541_323,stimulusRAMA04_2IFCnew_2019_Jun_11_1541_324,2019_Jun_11_1541,2IFCnew,,RAMA04,
2IFCnew,12,0,12,0,-1,1,Yes,6,-1,Hit,0.558140594512,True,False,stimulusRAMA04_2IFCnew_2019_Jun_11_1541_325,stimulusRAMA04_2IFCnew_2019_Jun_11_1541_326,2019_Jun_11_1541,2IFCnew,,RAMA04,
2IFCnew,13,0,13,0,-1,3,Yes,6,-1,Correct Rejection,0.490797563456,False,True,stimulusRAMA04_2IFCnew_2019_Jun_11_1541_327,stimulusRAMA04_2IFCnew_2019_Jun_11_1541_328,2019_Jun_11_1541,2IFCnew,,RAMA04,
2IFCnew,14,0,14,0,-1,3,Yes,6,-1,Correct Rejection,0.634192993864,False,True,stimulusRAMA04_2IFCnew_2019_Jun_11_1541_329,stimulusRAMA04_2IFCnew_2019_Jun_11_1541_330,2019_Jun_11_1541,2IFCnew,,RAMA04,
2IFCnew,15,0,15,0,-1,3,Yes,6,-1,Correct Rejection,0.504134629853,False,True,stimulusRAMA04_2IFCnew_2019_Jun_11_1541_331,stimulusRAMA04_2IFCnew_2019_Jun_11_1541_332,2019_Jun_11_1541,2IFCnew,,RAMA04,
2IFCnew,16,0,16,0,0.400944999419,5,Yes,6,-1,False Alarm,0.567534756847,False,True,stimulusRAMA04_2IFCnew_2019_Jun_11_1541_333,stimulusRAMA04_2IFCnew_2019_Jun_11_1541_334,2019_Jun_11_1541,2IFCnew,,RAMA04,
2IFCnew,17,0,17,0,0.432977196295,1,No,6,-1,Hit,0.62458206201,True,False,stimulusRAMA04_2IFCnew_2019_Jun_11_1541_335,stimulusRAMA04_2IFCnew_2019_Jun_11_1541_336,2019_Jun_11_1541,2IFCnew,,RAMA04,
2IFCnew,18,0,18,0,-1,1,No,6,-1,Hit,0.539533321746,True,False,stimulusRAMA04_2IFCnew_2019_Jun_11_1541_337,stimulusRAMA04_2IFCnew_2019_Jun_11_1541_338,2019_Jun_11_1541,2IFCnew,,RAMA04,
2IFCnew,19,0,19,0,-1,3,No,6,-1,Correct Rejection,0.459311395884,False,True,stimulusRAMA04_2IFCnew_2019_Jun_11_1541_339,stimulusRAMA04_2IFCnew_2019_Jun_11_1541_340,2019_Jun_11_1541,2IFCnew,,RAMA04,
2IFCnew,20,0,20,0,-1,4,No,6,-1,Miss,0.443986865692,True,False,stimulusRAMA04_2IFCnew_2019_Jun_11_1541_341,stimulusRAMA04_2IFCnew_2019_Jun_11_1541_342,2019_Jun_11_1541,2IFCnew,,RAMA04,
2IFCnew,21,0,21,0,-1,3,No,6,-1,Correct Rejection,0.409620292485,False,True,stimulusRAMA04_2IFCnew_2019_Jun_11_1541_343,stimulusRAMA04_2IFCnew_2019_Jun_11_1541_344,2019_Jun_11_1541,2IFCnew,,RAMA04,
2IFCnew,22,0,22,0,-1,1,No,6,-1,Hit,0.539483235218,True,False,stimulusRAMA04_2IFCnew_2019_Jun_11_1541_345,stimulusRAMA04_2IFCnew_2019_Jun_11_1541_346,2019_Jun_11_1541,2IFCnew,,RAMA04,
2IFCnew,23,0,23,0,-1,3,No,6,-1,Correct Rejection,0.53285493562,False,True,stimulusRAMA04_2IFCnew_2019_Jun_11_1541_347,stimulusRAMA04_2IFCnew_2019_Jun_11_1541_348,2019_Jun_11_1541,2IFCnew,,RAMA04,
2IFCnew,24,0,24,0,-1,3,No,6,-1,Correct Rejection,0.299313809723,False,True,stimulusRAMA04_2IFCnew_2019_Jun_11_1541_349,stimulusRAMA04_2IFCnew_2019_Jun_11_1541_350,2019_Jun_11_1541,2IFCnew,,RAMA04,
2IFCnew,25,0,25,0,0.168471299578,6,No,6,-1,Miss,0.369983512443,True,False,stimulusRAMA04_2IFCnew_2019_Jun_11_1541_351,stimulusRAMA04_2IFCnew_2019_Jun_11_1541_352,2019_Jun_11_1541,2IFCnew,,RAMA04,
2IFCnew,26,0,26,0,-1,3,No,6,-1,Correct Rejection,0.642340732273,False,True,stimulusRAMA04_2IFCnew_2019_Jun_11_1541_353,stimulusRAMA04_2IFCnew_2019_Jun_11_1541_354,2019_Jun_11_1541,2IFCnew,,RAMA04,
2IFCnew,27,0,27,0,-1,2,No,6,-1,False Alarm,0.499921585433,False,True,stimulusRAMA04_2IFCnew_2019_Jun_11_1541_355,stimulusRAMA04_2IFCnew_2019_Jun_11_1541_356,2019_Jun_11_1541,2IFCnew,,RAMA04,
2IFCnew,28,0,28,0,-1,2,No,6,-1,False Alarm,0.63916637376,False,True,stimulusRAMA04_2IFCnew_2019_Jun_11_1541_357,stimulusRAMA04_2IFCnew_2019_Jun_11_1541_358,2019_Jun_11_1541,2IFCnew,,RAMA04,
2IFCnew,29,0,29,0,-1,1,No,6,-1,Hit,0.532254714053,True,False,stimulusRAMA04_2IFCnew_2019_Jun_11_1541_359,stimulusRAMA04_2IFCnew_2019_Jun_11_1541_360,2019_Jun_11_1541,2IFCnew,,RAMA04,
2IFCnew,30,0,30,0,-1,2,No,6,-1,False Alarm,0.465323463082,False,True,stimulusRAMA04_2IFCnew_2019_Jun_11_1541_361,stimulusRAMA04_2IFCnew_2019_Jun_11_1541_362,2019_Jun_11_1541,2IFCnew,,RAMA04,
2IFCnew,31,0,31,0,-1,1,No,6,-1,Hit,0.602286424953,True,False,stimulusRAMA04_2IFCnew_2019_Jun_11_1541_363,stimulusRAMA04_2IFCnew_2019_Jun_11_1541_364,2019_Jun_11_1541,2IFCnew,,RAMA04,
2IFCnew,32,0,32,0,-1,3,No,6,-1,Correct Rejection,0.469999195077,False,True,stimulusRAMA04_2IFCnew_2019_Jun_11_1541_365,stimulusRAMA04_2IFCnew_2019_Jun_11_1541_366,2019_Jun_11_1541,2IFCnew,,RAMA04,
2IFCnew,33,0,33,0,-1,4,No,6,-1,Miss,0.666796263307,True,False,stimulusRAMA04_2IFCnew_2019_Jun_11_1541_367,stimulusRAMA04_2IFCnew_2019_Jun_11_1541_368,2019_Jun_11_1541,2IFCnew,,RAMA04,
2IFCnew,34,0,34,0,-1,2,No,6,-1,False Alarm,0.534984859172,False,True,stimulusRAMA04_2IFCnew_2019_Jun_11_1541_369,stimulusRAMA04_2IFCnew_2019_Jun_11_1541_370,2019_Jun_11_1541,2IFCnew,,RAMA04,
2IFCnew,35,0,35,0,-1,2,No,6,-1,False Alarm,0.476682508364,False,True,stimulusRAMA04_2IFCnew_2019_Jun_11_1541_371,stimulusRAMA04_2IFCnew_2019_Jun_11_1541_372,2019_Jun_11_1541,2IFCnew,,RAMA04,
2IFCnew,36,0,36,0,-1,4,No,6,-1,Miss,0.501543661114,True,False,stimulusRAMA04_2IFCnew_2019_Jun_11_1541_373,stimulusRAMA04_2IFCnew_2019_Jun_11_1541_374,2019_Jun_11_1541,2IFCnew,,RAMA04,
2IFCnew,37,0,37,0,-1,1,No,6,-1,Hit,0.334384883754,True,False,stimulusRAMA04_2IFCnew_2019_Jun_11_1541_375,stimulusRAMA04_2IFCnew_2019_Jun_11_1541_376,2019_Jun_11_1541,2IFCnew,,RAMA04,
2IFCnew,38,0,38,0,-1,3,No,6,-1,Correct Rejection,0.433905445505,False,True,stimulusRAMA04_2IFCnew_2019_Jun_11_1541_377,stimulusRAMA04_2IFCnew_2019_Jun_11_1541_378,2019_Jun_11_1541,2IFCnew,,RAMA04,
2IFCnew,39,0,39,0,-1,2,No,6,-1,False Alarm,0.267170764972,False,True,stimulusRAMA04_2IFCnew_2019_Jun_11_1541_379,stimulusRAMA04_2IFCnew_2019_Jun_11_1541_380,2019_Jun_11_1541,2IFCnew,,RAMA04,
2IFCnew,40,0,40,0,-1,1,No,6,-1,Hit,0.457691783551,True,False,stimulusRAMA04_2IFCnew_2019_Jun_11_1541_381,stimulusRAMA04_2IFCnew_2019_Jun_11_1541_382,2019_Jun_11_1541,2IFCnew,,RAMA04,
2IFCnew,41,0,41,0,-1,4,No,6,-1,Miss,0.567102860659,True,False,stimulusRAMA04_2IFCnew_2019_Jun_11_1541_383,stimulusRAMA04_2IFCnew_2019_Jun_11_1541_384,2019_Jun_11_1541,2IFCnew,,RAMA04,
2IFCnew,42,0,42,0,-1,4,No,6,-1,Miss,0.532239113003,True,False,stimulusRAMA04_2IFCnew_2019_Jun_11_1541_385,stimulusRAMA04_2IFCnew_2019_Jun_11_1541_386,2019_Jun_11_1541,2IFCnew,,RAMA04,
2IFCnew,43,0,43,0,-1,3,No,6,-1,Correct Rejection,0.438120543491,False,True,stimulusRAMA04_2IFCnew_2019_Jun_11_1541_387,stimulusRAMA04_2IFCnew_2019_Jun_11_1541_388,2019_Jun_11_1541,2IFCnew,,RAMA04,
2IFCnew,44,0,44,0,-1,1,No,6,-1,Hit,0.501404895447,True,False,stimulusRAMA04_2IFCnew_2019_Jun_11_1541_389,stimulusRAMA04_2IFCnew_2019_Jun_11_1541_390,2019_Jun_11_1541,2IFCnew,,RAMA04,
2IFCnew,45,0,45,0,-1,2,No,6,-1,False Alarm,0.473289328162,False,True,stimulusRAMA04_2IFCnew_2019_Jun_11_1541_391,stimulusRAMA04_2IFCnew_2019_Jun_11_1541_392,2019_Jun_11_1541,2IFCnew,,RAMA04,
2IFCnew,46,0,46,0,-1,3,No,6,-1,Correct Rejection,0.469579615165,False,True,stimulusRAMA04_2IFCnew_2019_Jun_11_1541_393,stimulusRAMA04_2IFCnew_2019_Jun_11_1541_394,2019_Jun_11_1541,2IFCnew,,RAMA04,
2IFCnew,47,0,47,0,-1,3,No,6,-1,Correct Rejection,0.435679013841,False,True,stimulusRAMA04_2IFCnew_2019_Jun_11_1541_395,stimulusRAMA04_2IFCnew_2019_Jun_11_1541_396,2019_Jun_11_1541,2IFCnew,,RAMA04,
2IFCnew,48,0,48,0,-1,4,No,6,-1,Miss,0.532332307659,True,False,stimulusRAMA04_2IFCnew_2019_Jun_11_1541_397,stimulusRAMA04_2IFCnew_2019_Jun_11_1541_398,2019_Jun_11_1541,2IFCnew,,RAMA04,
2IFCnew,49,0,49,0,-1,3,No,6,-1,Correct Rejection,0.594559908845,False,True,stimulusRAMA04_2IFCnew_2019_Jun_11_1541_399,stimulusRAMA04_2IFCnew_2019_Jun_11_1541_400,2019_Jun_11_1541,2IFCnew,,RAMA04,
2IFCnew,50,0,50,0,-1,4,No,6,-1,Miss,0.460541808512,True,False,stimulusRAMA04_2IFCnew_2019_Jun_11_1541_401,stimulusRAMA04_2IFCnew_2019_Jun_11_1541_402,2019_Jun_11_1541,2IFCnew,,RAMA04,
2IFCnew,51,0,51,0,-1,3,No,6,-1,Correct Rejection,0.343584446702,False,True,stimulusRAMA04_2IFCnew_2019_Jun_11_1541_403,stimulusRAMA04_2IFCnew_2019_Jun_11_1541_404,2019_Jun_11_1541,2IFCnew,,RAMA04,
2IFCnew,52,0,52,0,-1,3,No,6,-1,Correct Rejection,0.339757727459,False,True,stimulusRAMA04_2IFCnew_2019_Jun_11_1541_405,stimulusRAMA04_2IFCnew_2019_Jun_11_1541_406,2019_Jun_11_1541,2IFCnew,,RAMA04,
2IFCnew,53,0,53,0,-1,3,No,6,-1,Correct Rejection,0.342370455619,False,True,stimulusRAMA04_2IFCnew_2019_Jun_11_1541_407,stimulusRAMA04_2IFCnew_2019_Jun_11_1541_408,2019_Jun_11_1541,2IFCnew,,RAMA04,
2IFCnew,54,0,54,0,-1,4,No,6,-1,Miss,0.303188973572,True,False,stimulusRAMA04_2IFCnew_2019_Jun_11_1541_409,stimulusRAMA04_2IFCnew_2019_Jun_11_1541_410,2019_Jun_11_1541,2IFCnew,,RAMA04,
2IFCnew,55,0,55,0,-1,4,No,6,-1,Miss,0.335665383376,True,False,stimulusRAMA04_2IFCnew_2019_Jun_11_1541_411,stimulusRAMA04_2IFCnew_2019_Jun_11_1541_412,2019_Jun_11_1541,2IFCnew,,RAMA04,
2IFCnew,56,0,56,0,-1,3,No,6,-1,Correct Rejection,0.271667088382,False,True,stimulusRAMA04_2IFCnew_2019_Jun_11_1541_413,stimulusRAMA04_2IFCnew_2019_Jun_11_1541_414,2019_Jun_11_1541,2IFCnew,,RAMA04,
2IFCnew,57,0,57,0,-1,4,No,6,-1,Miss,0.339714209083,True,False,stimulusRAMA04_2IFCnew_2019_Jun_11_1541_415,stimulusRAMA04_2IFCnew_2019_Jun_11_1541_416,2019_Jun_11_1541,2IFCnew,,RAMA04,
2IFCnew,58,0,58,0,-1,3,No,6,-1,Correct Rejection,0.225463180803,False,True,stimulusRAMA04_2IFCnew_2019_Jun_11_1541_417,stimulusRAMA04_2IFCnew_2019_Jun_11_1541_418,2019_Jun_11_1541,2IFCnew,,RAMA04,
2IFCnew,59,0,59,0,-1,4,No,6,-1,Miss,0.201999122743,True,False,stimulusRAMA04_2IFCnew_2019_Jun_11_1541_419,stimulusRAMA04_2IFCnew_2019_Jun_11_1541_420,2019_Jun_11_1541,2IFCnew,,RAMA04,
2IFCnew,60,0,60,0,-1,4,No,6,-1,Miss,0.034786564298,True,False,stimulusRAMA04_2IFCnew_2019_Jun_11_1541_421,stimulusRAMA04_2IFCnew_2019_Jun_11_1541_422,2019_Jun_11_1541,2IFCnew,,RAMA04,
2IFCnew,61,0,61,0,-1,4,No,6,-1,Miss,0.16755085066,True,False,stimulusRAMA04_2IFCnew_2019_Jun_11_1541_423,stimulusRAMA04_2IFCnew_2019_Jun_11_1541_424,2019_Jun_11_1541,2IFCnew,,RAMA04,
2IFCnew,62,0,62,0,-1,0,No,6,-1,No Answer,-1,True,False,stimulusRAMA04_2IFCnew_2019_Jun_11_1541_425,stimulusRAMA04_2IFCnew_2019_Jun_11_1541_426,2019_Jun_11_1541,2IFCnew,,RAMA04,
2IFCnew,63,0,63,0,-1,3,No,6,-1,Correct Rejection,0.866881000344,False,True,stimulusRAMA04_2IFCnew_2019_Jun_11_1541_427,stimulusRAMA04_2IFCnew_2019_Jun_11_1541_428,2019_Jun_11_1541,2IFCnew,,RAMA04,
2IFCnew,64,0,64,0,-1,4,No,6,-1,Miss,0.20037951041,True,False,stimulusRAMA04_2IFCnew_2019_Jun_11_1541_429,stimulusRAMA04_2IFCnew_2019_Jun_11_1541_430,2019_Jun_11_1541,2IFCnew,,RAMA04,
2IFCnew,65,0,65,0,-1,3,No,6,-1,Correct Rejection,0.332853539381,False,True,stimulusRAMA04_2IFCnew_2019_Jun_11_1541_431,stimulusRAMA04_2IFCnew_2019_Jun_11_1541_432,2019_Jun_11_1541,2IFCnew,,RAMA04,
2IFCnew,66,0,66,0,-1,4,No,6,-1,Miss,0.601875055116,True,False,stimulusRAMA04_2IFCnew_2019_Jun_11_1541_433,stimulusRAMA04_2IFCnew_2019_Jun_11_1541_434,2019_Jun_11_1541,2IFCnew,,RAMA04,
2IFCnew,67,0,67,0,-1,2,No,6,-1,False Alarm,0.362688892987,False,True,stimulusRAMA04_2IFCnew_2019_Jun_11_1541_435,stimulusRAMA04_2IFCnew_2019_Jun_11_1541_436,2019_Jun_11_1541,2IFCnew,,RAMA04,
2IFCnew,68,0,68,0,-1,1,No,6,-1,Hit,0.537908372469,True,False,stimulusRAMA04_2IFCnew_2019_Jun_11_1541_437,stimulusRAMA04_2IFCnew_2019_Jun_11_1541_438,2019_Jun_11_1541,2IFCnew,,RAMA04,
2IFCnew,69,0,69,0,-1,1,No,6,-1,Hit,0.42644701805,True,False,stimulusRAMA04_2IFCnew_2019_Jun_11_1541_439,stimulusRAMA04_2IFCnew_2019_Jun_11_1541_440,2019_Jun_11_1541,2IFCnew,,RAMA04,
2IFCnew,70,0,70,0,0.200778973754,5,Yes,6,-1,False Alarm,0.402396697551,False,True,stimulusRAMA04_2IFCnew_2019_Jun_11_1541_441,stimulusRAMA04_2IFCnew_2019_Jun_11_1541_442,2019_Jun_11_1541,2IFCnew,,RAMA04,
2IFCnew,71,0,71,0,-1,3,Yes,6,-1,Correct Rejection,0.531484525651,False,True,stimulusRAMA04_2IFCnew_2019_Jun_11_1541_443,stimulusRAMA04_2IFCnew_2019_Jun_11_1541_444,2019_Jun_11_1541,2IFCnew,,RAMA04,
2IFCnew,72,0,72,0,-1,2,Yes,6,-1,False Alarm,0.732005675323,False,True,stimulusRAMA04_2IFCnew_2019_Jun_11_1541_445,stimulusRAMA04_2IFCnew_2019_Jun_11_1541_446,2019_Jun_11_1541,2IFCnew,,RAMA04,
2IFCnew,73,0,73,0,0.668454466853,3,No,6,-1,False Alarm,0.264901255257,False,True,stimulusRAMA04_2IFCnew_2019_Jun_11_1541_447,stimulusRAMA04_2IFCnew_2019_Jun_11_1541_448,2019_Jun_11_1541,2IFCnew,,RAMA04,
2IFCnew,74,0,74,0,-1,1,No,6,-1,Hit,0.671323787887,True,False,stimulusRAMA04_2IFCnew_2019_Jun_11_1541_449,stimulusRAMA04_2IFCnew_2019_Jun_11_1541_450,2019_Jun_11_1541,2IFCnew,,RAMA04,
2IFCnew,0,0,0,0,-1,1,No,3.8,-1,Hit,0.469208069146,True,False,stimulusRAMA04_2IFCnew_2019_Jun_11_1541_451,stimulusRAMA04_2IFCnew_2019_Jun_11_1541_452,2019_Jun_11_1541,2IFCnew,,RAMA04,
2IFCnew,1,0,1,0,-1,3,No,3.8,-1,Correct Rejection,0.567381622735,False,True,stimulusRAMA04_2IFCnew_2019_Jun_11_1541_453,stimulusRAMA04_2IFCnew_2019_Jun_11_1541_454,2019_Jun_11_1541,2IFCnew,,RAMA04,
2IFCnew,2,0,2,0,-1,1,No,3.8,-1,Hit,0.269342564512,True,False,stimulusRAMA04_2IFCnew_2019_Jun_11_1541_455,stimulusRAMA04_2IFCnew_2019_Jun_11_1541_456,2019_Jun_11_1541,2IFCnew,,RAMA04,
2IFCnew,3,0,3,0,-1,3,No,3.8,-1,Correct Rejection,0.267057043035,False,True,stimulusRAMA04_2IFCnew_2019_Jun_11_1541_457,stimulusRAMA04_2IFCnew_2019_Jun_11_1541_458,2019_Jun_11_1541,2IFCnew,,RAMA04,
2IFCnew,4,0,4,0,-1,2,No,3.8,-1,False Alarm,0.436198357027,False,True,stimulusRAMA04_2IFCnew_2019_Jun_11_1541_459,stimulusRAMA04_2IFCnew_2019_Jun_11_1541_460,2019_Jun_11_1541,2IFCnew,,RAMA04,
2IFCnew,5,0,5,0,0.634295630734,6,No,3.8,-1,Miss,0.466713989154,True,False,stimulusRAMA04_2IFCnew_2019_Jun_11_1541_461,stimulusRAMA04_2IFCnew_2019_Jun_11_1541_462,2019_Jun_11_1541,2IFCnew,,RAMA04,
2IFCnew,6,0,6,0,-1,3,No,3.8,-1,Correct Rejection,0.599486075807,False,True,stimulusRAMA04_2IFCnew_2019_Jun_11_1541_463,stimulusRAMA04_2IFCnew_2019_Jun_11_1541_464,2019_Jun_11_1541,2IFCnew,,RAMA04,
2IFCnew,7,0,7,0,0.0346309663728,3,No,3.8,-1,False Alarm,0.700766247232,False,True,stimulusRAMA04_2IFCnew_2019_Jun_11_1541_465,stimulusRAMA04_2IFCnew_2019_Jun_11_1541_466,2019_Jun_11_1541,2IFCnew,,RAMA04,
2IFCnew,8,0,8,0,0.133711420465,4,Yes,3.8,-1,Miss,0.601360638626,True,False,stimulusRAMA04_2IFCnew_2019_Jun_11_1541_467,stimulusRAMA04_2IFCnew_2019_Jun_11_1541_468,2019_Jun_11_1541,2IFCnew,,RAMA04,
2IFCnew,9,0,9,0,-1,4,Yes,3.8,-1,Miss,0.733191338368,True,False,stimulusRAMA04_2IFCnew_2019_Jun_11_1541_469,stimulusRAMA04_2IFCnew_2019_Jun_11_1541_470,2019_Jun_11_1541,2IFCnew,,RAMA04,
2IFCnew,10,0,10,0,-1,3,Yes,3.8,-1,Correct Rejection,0.531931201927,False,True,stimulusRAMA04_2IFCnew_2019_Jun_11_1541_471,stimulusRAMA04_2IFCnew_2019_Jun_11_1541_472,2019_Jun_11_1541,2IFCnew,,RAMA04,
2IFCnew,11,0,11,0,0.466215994675,5,Yes,3.8,-1,False Alarm,0.658990511671,False,True,stimulusRAMA04_2IFCnew_2019_Jun_11_1541_473,stimulusRAMA04_2IFCnew_2019_Jun_11_1541_474,2019_Jun_11_1541,2IFCnew,,RAMA04,
2IFCnew,12,0,12,0,0.572829185519,3,No,3.8,-1,False Alarm,0.568134978414,False,True,stimulusRAMA04_2IFCnew_2019_Jun_11_1541_475,stimulusRAMA04_2IFCnew_2019_Jun_11_1541_476,2019_Jun_11_1541,2IFCnew,,RAMA04,
2IFCnew,13,0,13,0,-1,3,No,3.8,-1,Correct Rejection,0.626814622432,False,True,stimulusRAMA04_2IFCnew_2019_Jun_11_1541_477,stimulusRAMA04_2IFCnew_2019_Jun_11_1541_478,2019_Jun_11_1541,2IFCnew,,RAMA04,
2IFCnew,14,0,14,0,-1,4,No,3.8,-1,Miss,0.531122422311,True,False,stimulusRAMA04_2IFCnew_2019_Jun_11_1541_479,stimulusRAMA04_2IFCnew_2019_Jun_11_1541_480,2019_Jun_11_1541,2IFCnew,,RAMA04,
2IFCnew,15,0,15,0,-1,3,No,3.8,-1,Correct Rejection,0.570021036547,False,True,stimulusRAMA04_2IFCnew_2019_Jun_11_1541_481,stimulusRAMA04_2IFCnew_2019_Jun_11_1541_482,2019_Jun_11_1541,2IFCnew,,RAMA04,
2IFCnew,16,0,16,0,-1,3,No,3.8,-1,Correct Rejection,0.6348244166,False,True,stimulusRAMA04_2IFCnew_2019_Jun_11_1541_483,stimulusRAMA04_2IFCnew_2019_Jun_11_1541_484,2019_Jun_11_1541,2IFCnew,,RAMA04,
2IFCnew,17,0,17,0,-1,1,No,3.8,-1,Hit,0.036554384511,True,False,stimulusRAMA04_2IFCnew_2019_Jun_11_1541_485,stimulusRAMA04_2IFCnew_2019_Jun_11_1541_486,2019_Jun_11_1541,2IFCnew,,RAMA04,
2IFCnew,18,0,18,0,-1,3,No,3.8,-1,Correct Rejection,0.692811466288,False,True,stimulusRAMA04_2IFCnew_2019_Jun_11_1541_487,stimulusRAMA04_2IFCnew_2019_Jun_11_1541_488,2019_Jun_11_1541,2IFCnew,,RAMA04,
2IFCnew,19,0,19,0,-1,4,No,3.8,-1,Miss,0.699551845435,True,False,stimulusRAMA04_2IFCnew_2019_Jun_11_1541_489,stimulusRAMA04_2IFCnew_2019_Jun_11_1541_490,2019_Jun_11_1541,2IFCnew,,RAMA04,
2IFCnew,20,0,20,0,-1,2,No,3.8,-1,False Alarm,0.557312108576,False,True,stimulusRAMA04_2IFCnew_2019_Jun_11_1541_491,stimulusRAMA04_2IFCnew_2019_Jun_11_1541_492,2019_Jun_11_1541,2IFCnew,,RAMA04,
2IFCnew,21,0,21,0,-1,3,No,3.8,-1,Correct Rejection,0.734569958877,False,True,stimulusRAMA04_2IFCnew_2019_Jun_11_1541_493,stimulusRAMA04_2IFCnew_2019_Jun_11_1541_494,2019_Jun_11_1541,2IFCnew,,RAMA04,
2IFCnew,22,0,22,0,-1,4,No,3.8,-1,Miss,0.559820968192,True,False,stimulusRAMA04_2IFCnew_2019_Jun_11_1541_495,stimulusRAMA04_2IFCnew_2019_Jun_11_1541_496,2019_Jun_11_1541,2IFCnew,,RAMA04,
2IFCnew,23,0,23,0,-1,3,No,3.8,-1,Correct Rejection,0.502362294123,False,True,stimulusRAMA04_2IFCnew_2019_Jun_11_1541_497,stimulusRAMA04_2IFCnew_2019_Jun_11_1541_498,2019_Jun_11_1541,2IFCnew,,RAMA04,
2IFCnew,24,0,24,0,-1,3,No,3.8,-1,Correct Rejection,0.633140759077,False,True,stimulusRAMA04_2IFCnew_2019_Jun_11_1541_499,stimulusRAMA04_2IFCnew_2019_Jun_11_1541_500,2019_Jun_11_1541,2IFCnew,,RAMA04,
2IFCnew,25,0,25,0,-1,3,No,3.8,-1,Correct Rejection,0.665313773789,False,True,stimulusRAMA04_2IFCnew_2019_Jun_11_1541_501,stimulusRAMA04_2IFCnew_2019_Jun_11_1541_502,2019_Jun_11_1541,2IFCnew,,RAMA04,
2IFCnew,26,0,26,0,-1,4,No,3.8,-1,Miss,0.53227400966,True,False,stimulusRAMA04_2IFCnew_2019_Jun_11_1541_503,stimulusRAMA04_2IFCnew_2019_Jun_11_1541_504,2019_Jun_11_1541,2IFCnew,,RAMA04,
2IFCnew,27,0,27,0,-1,3,No,3.8,-1,Correct Rejection,0.634481609333,False,True,stimulusRAMA04_2IFCnew_2019_Jun_11_1541_505,stimulusRAMA04_2IFCnew_2019_Jun_11_1541_506,2019_Jun_11_1541,2IFCnew,,RAMA04,
2IFCnew,28,0,28,0,-1,3,No,3.8,-1,Correct Rejection,0.568559074774,False,True,stimulusRAMA04_2IFCnew_2019_Jun_11_1541_507,stimulusRAMA04_2IFCnew_2019_Jun_11_1541_508,2019_Jun_11_1541,2IFCnew,,RAMA04,
2IFCnew,29,0,29,0,-1,3,No,3.8,-1,Correct Rejection,0.638424102683,False,True,stimulusRAMA04_2IFCnew_2019_Jun_11_1541_509,stimulusRAMA04_2IFCnew_2019_Jun_11_1541_510,2019_Jun_11_1541,2IFCnew,,RAMA04,
2IFCnew,30,0,30,0,-1,4,No,3.8,-1,Miss,0.569055017084,True,False,stimulusRAMA04_2IFCnew_2019_Jun_11_1541_511,stimulusRAMA04_2IFCnew_2019_Jun_11_1541_512,2019_Jun_11_1541,2IFCnew,,RAMA04,
2IFCnew,31,0,31,0,-1,3,No,3.8,-1,Correct Rejection,0.307319087908,False,True,stimulusRAMA04_2IFCnew_2019_Jun_11_1541_513,stimulusRAMA04_2IFCnew_2019_Jun_11_1541_514,2019_Jun_11_1541,2IFCnew,,RAMA04,
2IFCnew,32,0,32,0,-1,4,No,3.8,-1,Miss,0.266611598432,True,False,stimulusRAMA04_2IFCnew_2019_Jun_11_1541_515,stimulusRAMA04_2IFCnew_2019_Jun_11_1541_516,2019_Jun_11_1541,2IFCnew,,RAMA04,
2IFCnew,33,0,33,0,-1,4,No,3.8,-1,Miss,0.400318092667,True,False,stimulusRAMA04_2IFCnew_2019_Jun_11_1541_517,stimulusRAMA04_2IFCnew_2019_Jun_11_1541_518,2019_Jun_11_1541,2IFCnew,,RAMA04,
2IFCnew,34,0,34,0,-1,2,No,3.8,-1,False Alarm,0.474224556703,False,True,stimulusRAMA04_2IFCnew_2019_Jun_11_1541_519,stimulusRAMA04_2IFCnew_2019_Jun_11_1541_520,2019_Jun_11_1541,2IFCnew,,RAMA04,
2IFCnew,35,0,35,0,-1,3,No,3.8,-1,Correct Rejection,0.358463942539,False,True,stimulusRAMA04_2IFCnew_2019_Jun_11_1541_521,stimulusRAMA04_2IFCnew_2019_Jun_11_1541_522,2019_Jun_11_1541,2IFCnew,,RAMA04,
2IFCnew,36,0,36,0,-1,4,No,3.8,-1,Miss,0.499412094709,True,False,stimulusRAMA04_2IFCnew_2019_Jun_11_1541_523,stimulusRAMA04_2IFCnew_2019_Jun_11_1541_524,2019_Jun_11_1541,2IFCnew,,RAMA04,
2IFCnew,37,0,37,0,-1,3,No,3.8,-1,Correct Rejection,0.402939031832,False,True,stimulusRAMA04_2IFCnew_2019_Jun_11_1541_525,stimulusRAMA04_2IFCnew_2019_Jun_11_1541_526,2019_Jun_11_1541,2IFCnew,,RAMA04,
2IFCnew,38,0,38,0,-1,0,No,3.8,-1,No Answer,-1,True,False,stimulusRAMA04_2IFCnew_2019_Jun_11_1541_527,stimulusRAMA04_2IFCnew_2019_Jun_11_1541_528,2019_Jun_11_1541,2IFCnew,,RAMA04,
2IFCnew,39,0,39,0,-1,3,No,3.8,-1,Correct Rejection,0.642369880807,False,True,stimulusRAMA04_2IFCnew_2019_Jun_11_1541_529,stimulusRAMA04_2IFCnew_2019_Jun_11_1541_530,2019_Jun_11_1541,2IFCnew,,RAMA04,
2IFCnew,40,0,40,0,-1,0,No,3.8,-1,No Answer,-1,False,True,stimulusRAMA04_2IFCnew_2019_Jun_11_1541_531,stimulusRAMA04_2IFCnew_2019_Jun_11_1541_532,2019_Jun_11_1541,2IFCnew,,RAMA04,
2IFCnew,41,0,41,0,-1,4,No,3.8,-1,Miss,0.558074906934,True,False,stimulusRAMA04_2IFCnew_2019_Jun_11_1541_533,stimulusRAMA04_2IFCnew_2019_Jun_11_1541_534,2019_Jun_11_1541,2IFCnew,,RAMA04,
2IFCnew,42,0,42,0,-1,1,No,3.8,-1,Hit,0.36764502991,True,False,stimulusRAMA04_2IFCnew_2019_Jun_11_1541_535,stimulusRAMA04_2IFCnew_2019_Jun_11_1541_536,2019_Jun_11_1541,2IFCnew,,RAMA04,
2IFCnew,43,0,43,0,-1,1,No,3.8,-1,Hit,0.635434080847,True,False,stimulusRAMA04_2IFCnew_2019_Jun_11_1541_537,stimulusRAMA04_2IFCnew_2019_Jun_11_1541_538,2019_Jun_11_1541,2IFCnew,,RAMA04,
2IFCnew,44,0,44,0,-1,2,No,3.8,-1,False Alarm,0.543660151772,False,True,stimulusRAMA04_2IFCnew_2019_Jun_11_1541_539,stimulusRAMA04_2IFCnew_2019_Jun_11_1541_540,2019_Jun_11_1541,2IFCnew,,RAMA04,
2IFCnew,45,0,45,0,-1,1,No,3.8,-1,Hit,0.523626634385,True,False,stimulusRAMA04_2IFCnew_2019_Jun_11_1541_541,stimulusRAMA04_2IFCnew_2019_Jun_11_1541_542,2019_Jun_11_1541,2IFCnew,,RAMA04,
2IFCnew,46,0,46,0,-1,2,No,3.8,-1,False Alarm,0.657844671514,False,True,stimulusRAMA04_2IFCnew_2019_Jun_11_1541_543,stimulusRAMA04_2IFCnew_2019_Jun_11_1541_544,2019_Jun_11_1541,2IFCnew,,RAMA04,
2IFCnew,47,0,47,0,-1,3,No,3.8,-1,Correct Rejection,0.410084622446,False,True,stimulusRAMA04_2IFCnew_2019_Jun_11_1541_545,stimulusRAMA04_2IFCnew_2019_Jun_11_1541_546,2019_Jun_11_1541,2IFCnew,,RAMA04,
2IFCnew,48,0,48,0,0.534432261251,4,Yes,3.8,-1,Miss,0.675185814034,True,False,stimulusRAMA04_2IFCnew_2019_Jun_11_1541_547,stimulusRAMA04_2IFCnew_2019_Jun_11_1541_548,2019_Jun_11_1541,2IFCnew,,RAMA04,
2IFCnew,49,0,49,0,-1,2,Yes,3.8,-1,False Alarm,0.528216562234,False,True,stimulusRAMA04_2IFCnew_2019_Jun_11_1541_549,stimulusRAMA04_2IFCnew_2019_Jun_11_1541_550,2019_Jun_11_1541,2IFCnew,,RAMA04,
2IFCnew,50,0,50,0,0.63529120991,4,Yes,3.8,-1,Miss,0.492761215195,True,False,stimulusRAMA04_2IFCnew_2019_Jun_11_1541_551,stimulusRAMA04_2IFCnew_2019_Jun_11_1541_552,2019_Jun_11_1541,2IFCnew,,RAMA04,
2IFCnew,51,0,51,0,-1,3,Yes,3.8,-1,Correct Rejection,0.632695314009,False,True,stimulusRAMA04_2IFCnew_2019_Jun_11_1541_553,stimulusRAMA04_2IFCnew_2019_Jun_11_1541_554,2019_Jun_11_1541,2IFCnew,,RAMA04,
2IFCnew,52,0,52,0,-1,3,Yes,3.8,-1,Correct Rejection,0.624820179772,False,True,stimulusRAMA04_2IFCnew_2019_Jun_11_1541_555,stimulusRAMA04_2IFCnew_2019_Jun_11_1541_556,2019_Jun_11_1541,2IFCnew,,RAMA04,
2IFCnew,53,0,53,0,-1,1,Yes,3.8,-1,Hit,0.670570432208,True,False,stimulusRAMA04_2IFCnew_2019_Jun_11_1541_557,stimulusRAMA04_2IFCnew_2019_Jun_11_1541_558,2019_Jun_11_1541,2IFCnew,,RAMA04,
2IFCnew,54,0,54,0,-1,1,Yes,3.8,-1,Hit,0.502219012473,True,False,stimulusRAMA04_2IFCnew_2019_Jun_11_1541_559,stimulusRAMA04_2IFCnew_2019_Jun_11_1541_560,2019_Jun_11_1541,2IFCnew,,RAMA04,
2IFCnew,55,0,55,0,-1,4,Yes,3.8,-1,Miss,0.499570976943,True,False,stimulusRAMA04_2IFCnew_2019_Jun_11_1541_561,stimulusRAMA04_2IFCnew_2019_Jun_11_1541_562,2019_Jun_11_1541,2IFCnew,,RAMA04,
2IFCnew,56,0,56,0,-1,4,Yes,3.8,-1,Miss,0.532678810414,True,False,stimulusRAMA04_2IFCnew_2019_Jun_11_1541_563,stimulusRAMA04_2IFCnew_2019_Jun_11_1541_564,2019_Jun_11_1541,2IFCnew,,RAMA04,
2IFCnew,57,0,57,0,0.668346903287,3,No,3.8,-1,False Alarm,0.624842760153,False,True,stimulusRAMA04_2IFCnew_2019_Jun_11_1541_565,stimulusRAMA04_2IFCnew_2019_Jun_11_1541_566,2019_Jun_11_1541,2IFCnew,,RAMA04,
2IFCnew,58,0,58,0,-1,3,No,3.8,-1,Correct Rejection,0.500595705118,False,True,stimulusRAMA04_2IFCnew_2019_Jun_11_1541_567,stimulusRAMA04_2IFCnew_2019_Jun_11_1541_568,2019_Jun_11_1541,2IFCnew,,RAMA04,
2IFCnew,59,0,59,0,-1,1,No,3.8,-1,Hit,0.470485284459,True,False,stimulusRAMA04_2IFCnew_2019_Jun_11_1541_569,stimulusRAMA04_2IFCnew_2019_Jun_11_1541_570,2019_Jun_11_1541,2IFCnew,,RAMA04,
2IFCnew,60,0,60,0,-1,4,No,3.8,-1,Miss,0.738246828318,True,False,stimulusRAMA04_2IFCnew_2019_Jun_11_1541_571,stimulusRAMA04_2IFCnew_2019_Jun_11_1541_572,2019_Jun_11_1541,2IFCnew,,RAMA04,
2IFCnew,61,0,61,0,-1,4,No,3.8,-1,Miss,0.659881811589,True,False,stimulusRAMA04_2IFCnew_2019_Jun_11_1541_573,stimulusRAMA04_2IFCnew_2019_Jun_11_1541_574,2019_Jun_11_1541,2IFCnew,,RAMA04,
2IFCnew,62,0,62,0,-1,1,No,3.8,-1,Hit,0.56553661963,True,False,stimulusRAMA04_2IFCnew_2019_Jun_11_1541_575,stimulusRAMA04_2IFCnew_2019_Jun_11_1541_576,2019_Jun_11_1541,2IFCnew,,RAMA04,
2IFCnew,63,0,63,0,-1,1,No,3.8,-1,Hit,0.626527649816,True,False,stimulusRAMA04_2IFCnew_2019_Jun_11_1541_577,stimulusRAMA04_2IFCnew_2019_Jun_11_1541_578,2019_Jun_11_1541,2IFCnew,,RAMA04,
2IFCnew,64,0,64,0,-1,2,No,3.8,-1,False Alarm,0.477297509555,False,True,stimulusRAMA04_2IFCnew_2019_Jun_11_1541_579,stimulusRAMA04_2IFCnew_2019_Jun_11_1541_580,2019_Jun_11_1541,2IFCnew,,RAMA04,
2IFCnew,65,0,65,0,0.434990114067,8,No,3.8,-1,Correct Rejection,0.470005353913,False,True,stimulusRAMA04_2IFCnew_2019_Jun_11_1541_581,stimulusRAMA04_2IFCnew_2019_Jun_11_1541_582,2019_Jun_11_1541,2IFCnew,,RAMA04,
2IFCnew,66,0,66,0,-1,1,No,3.8,-1,Hit,0.502880405635,True,False,stimulusRAMA04_2IFCnew_2019_Jun_11_1541_583,stimulusRAMA04_2IFCnew_2019_Jun_11_1541_584,2019_Jun_11_1541,2IFCnew,,RAMA04,
2IFCnew,67,0,67,0,-1,3,No,3.8,-1,Correct Rejection,0.867116655223,False,True,stimulusRAMA04_2IFCnew_2019_Jun_11_1541_585,stimulusRAMA04_2IFCnew_2019_Jun_11_1541_586,2019_Jun_11_1541,2IFCnew,,RAMA04,
2IFCnew,68,0,68,0,-1,1,No,3.8,-1,Hit,0.535934867337,True,False,stimulusRAMA04_2IFCnew_2019_Jun_11_1541_587,stimulusRAMA04_2IFCnew_2019_Jun_11_1541_588,2019_Jun_11_1541,2IFCnew,,RAMA04,
2IFCnew,69,0,69,0,0.565788695589,3,No,3.8,-1,False Alarm,0.438696542289,False,True,stimulusRAMA04_2IFCnew_2019_Jun_11_1541_589,stimulusRAMA04_2IFCnew_2019_Jun_11_1541_590,2019_Jun_11_1541,2IFCnew,,RAMA04,
2IFCnew,70,0,70,0,-1,1,No,3.8,-1,Hit,0.601444390602,True,False,stimulusRAMA04_2IFCnew_2019_Jun_11_1541_591,stimulusRAMA04_2IFCnew_2019_Jun_11_1541_592,2019_Jun_11_1541,2IFCnew,,RAMA04,
2IFCnew,71,0,71,0,-1,1,No,3.8,-1,Hit,0.565819076262,True,False,stimulusRAMA04_2IFCnew_2019_Jun_11_1541_593,stimulusRAMA04_2IFCnew_2019_Jun_11_1541_594,2019_Jun_11_1541,2IFCnew,,RAMA04,
2IFCnew,72,0,72,0,-1,4,No,3.8,-1,Miss,0.690358031075,True,False,stimulusRAMA04_2IFCnew_2019_Jun_11_1541_595,stimulusRAMA04_2IFCnew_2019_Jun_11_1541_596,2019_Jun_11_1541,2IFCnew,,RAMA04,
2IFCnew,73,0,73,0,-1,4,No,3.8,-1,Miss,0.435882234946,True,False,stimulusRAMA04_2IFCnew_2019_Jun_11_1541_597,stimulusRAMA04_2IFCnew_2019_Jun_11_1541_598,2019_Jun_11_1541,2IFCnew,,RAMA04,
2IFCnew,74,0,74,0,-1,0,No,3.8,-1,No Answer,-1,False,True,stimulusRAMA04_2IFCnew_2019_Jun_11_1541_599,stimulusRAMA04_2IFCnew_2019_Jun_11_1541_600,2019_Jun_11_1541,2IFCnew,,RAMA04,
2IFCnew,0,0,0,0,-1,1,No,2.5,-1,Hit,0.532754761167,True,False,stimulusRAMA04_2IFCnew_2019_Jun_11_1541_601,stimulusRAMA04_2IFCnew_2019_Jun_11_1541_602,2019_Jun_11_1541,2IFCnew,,RAMA04,
2IFCnew,1,0,1,0,0.669318670407,3,No,2.5,-1,False Alarm,0.468440344092,False,True,stimulusRAMA04_2IFCnew_2019_Jun_11_1541_603,stimulusRAMA04_2IFCnew_2019_Jun_11_1541_604,2019_Jun_11_1541,2IFCnew,,RAMA04,
2IFCnew,2,0,2,0,-1,3,No,2.5,-1,Correct Rejection,0.768248453736,False,True,stimulusRAMA04_2IFCnew_2019_Jun_11_1541_605,stimulusRAMA04_2IFCnew_2019_Jun_11_1541_606,2019_Jun_11_1541,2IFCnew,,RAMA04,
2IFCnew,3,0,3,0,0.801153886598,3,No,2.5,-1,False Alarm,0.567519156262,False,True,stimulusRAMA04_2IFCnew_2019_Jun_11_1541_607,stimulusRAMA04_2IFCnew_2019_Jun_11_1541_608,2019_Jun_11_1541,2IFCnew,,RAMA04,
2IFCnew,4,0,4,0,-1,1,No,2.5,-1,Hit,0.469019627664,True,False,stimulusRAMA04_2IFCnew_2019_Jun_11_1541_609,stimulusRAMA04_2IFCnew_2019_Jun_11_1541_610,2019_Jun_11_1541,2IFCnew,,RAMA04,
2IFCnew,5,0,5,0,0.168737745378,3,No,2.5,-1,False Alarm,0.500271782745,False,True,stimulusRAMA04_2IFCnew_2019_Jun_11_1541_611,stimulusRAMA04_2IFCnew_2019_Jun_11_1541_612,2019_Jun_11_1541,2IFCnew,,RAMA04,
2IFCnew,6,0,6,0,-1,2,No,2.5,-1,False Alarm,0.365643608384,False,True,stimulusRAMA04_2IFCnew_2019_Jun_11_1541_613,stimulusRAMA04_2IFCnew_2019_Jun_11_1541_614,2019_Jun_11_1541,2IFCnew,,RAMA04,
2IFCnew,7,0,7,0,0.532690305263,4,Yes,2.5,-1,Miss,0.335858341306,True,False,stimulusRAMA04_2IFCnew_2019_Jun_11_1541_615,stimulusRAMA04_2IFCnew_2019_Jun_11_1541_616,2019_Jun_11_1541,2IFCnew,,RAMA04,
2IFCnew,8,0,8,0,-1,2,Yes,2.5,-1,False Alarm,0.500085393898,False,True,stimulusRAMA04_2IFCnew_2019_Jun_11_1541_617,stimulusRAMA04_2IFCnew_2019_Jun_11_1541_618,2019_Jun_11_1541,2IFCnew,,RAMA04,
2IFCnew,9,0,9,0,-1,3,Yes,2.5,-1,Correct Rejection,0.563828328624,False,True,stimulusRAMA04_2IFCnew_2019_Jun_11_1541_619,stimulusRAMA04_2IFCnew_2019_Jun_11_1541_620,2019_Jun_11_1541,2IFCnew,,RAMA04,
2IFCnew,10,0,10,0,-1,3,Yes,2.5,-1,Correct Rejection,0.36676235171,False,True,stimulusRAMA04_2IFCnew_2019_Jun_11_1541_621,stimulusRAMA04_2IFCnew_2019_Jun_11_1541_622,2019_Jun_11_1541,2IFCnew,,RAMA04,
2IFCnew,11,0,11,0,0.468770424835,1,No,2.5,-1,Hit,0.201322129462,True,False,stimulusRAMA04_2IFCnew_2019_Jun_11_1541_623,stimulusRAMA04_2IFCnew_2019_Jun_11_1541_624,2019_Jun_11_1541,2IFCnew,,RAMA04,
2IFCnew,12,0,12,0,0.502260067035,2,Yes,2.5,-1,Correct Rejection,0.568741768599,False,True,stimulusRAMA04_2IFCnew_2019_Jun_11_1541_625,stimulusRAMA04_2IFCnew_2019_Jun_11_1541_626,2019_Jun_11_1541,2IFCnew,,RAMA04,
2IFCnew,13,0,13,0,0.399716639891,3,No,2.5,-1,False Alarm,0.500802621245,False,True,stimulusRAMA04_2IFCnew_2019_Jun_11_1541_627,stimulusRAMA04_2IFCnew_2019_Jun_11_1541_628,2019_Jun_11_1541,2IFCnew,,RAMA04,
2IFCnew,14,0,14,0,0.335281931795,2,Yes,2.5,-1,Correct Rejection,0.625190494582,False,True,stimulusRAMA04_2IFCnew_2019_Jun_11_1541_629,stimulusRAMA04_2IFCnew_2019_Jun_11_1541_630,2019_Jun_11_1541,2IFCnew,,RAMA04,
2IFCnew,15,0,15,0,-1,4,Yes,2.5,-1,Miss,0.570980487391,True,False,stimulusRAMA04_2IFCnew_2019_Jun_11_1541_631,stimulusRAMA04_2IFCnew_2019_Jun_11_1541_632,2019_Jun_11_1541,2IFCnew,,RAMA04,
2IFCnew,16,0,16,0,-1,3,Yes,2.5,-1,Correct Rejection,0.541158681735,False,True,stimulusRAMA04_2IFCnew_2019_Jun_11_1541_633,stimulusRAMA04_2IFCnew_2019_Jun_11_1541_634,2019_Jun_11_1541,2IFCnew,,RAMA04,
2IFCnew,17,0,17,0,-1,3,Yes,2.5,-1,Correct Rejection,0.602068834472,False,True,stimulusRAMA04_2IFCnew_2019_Jun_11_1541_635,stimulusRAMA04_2IFCnew_2019_Jun_11_1541_636,2019_Jun_11_1541,2IFCnew,,RAMA04,
2IFCnew,18,0,18,0,-1,4,Yes,2.5,-1,Miss,0.53502468206,True,False,stimulusRAMA04_2IFCnew_2019_Jun_11_1541_637,stimulusRAMA04_2IFCnew_2019_Jun_11_1541_638,2019_Jun_11_1541,2IFCnew,,RAMA04,
2IFCnew,19,0,19,0,-1,1,Yes,2.5,-1,Hit,0.724228251725,True,False,stimulusRAMA04_2IFCnew_2019_Jun_11_1541_639,stimulusRAMA04_2IFCnew_2019_Jun_11_1541_640,2019_Jun_11_1541,2IFCnew,,RAMA04,
2IFCnew,20,0,20,0,-1,4,Yes,2.5,-1,Miss,0.86935537355,True,False,stimulusRAMA04_2IFCnew_2019_Jun_11_1541_641,stimulusRAMA04_2IFCnew_2019_Jun_11_1541_642,2019_Jun_11_1541,2IFCnew,,RAMA04,
2IFCnew,21,0,21,0,-1,2,Yes,2.5,-1,False Alarm,0.301965950523,False,True,stimulusRAMA04_2IFCnew_2019_Jun_11_1541_643,stimulusRAMA04_2IFCnew_2019_Jun_11_1541_644,2019_Jun_11_1541,2IFCnew,,RAMA04,
2IFCnew,22,0,22,0,-1,2,Yes,2.5,-1,False Alarm,0.504945052322,False,True,stimulusRAMA04_2IFCnew_2019_Jun_11_1541_645,stimulusRAMA04_2IFCnew_2019_Jun_11_1541_646,2019_Jun_11_1541,2IFCnew,,RAMA04,
2IFCnew,23,0,23,0,-1,4,Yes,2.5,-1,Miss,0.634767760988,True,False,stimulusRAMA04_2IFCnew_2019_Jun_11_1541_647,stimulusRAMA04_2IFCnew_2019_Jun_11_1541_648,2019_Jun_11_1541,2IFCnew,,RAMA04,
2IFCnew,24,0,24,0,-1,2,Yes,2.5,-1,False Alarm,0.51007649349,False,True,stimulusRAMA04_2IFCnew_2019_Jun_11_1541_649,stimulusRAMA04_2IFCnew_2019_Jun_11_1541_650,2019_Jun_11_1541,2IFCnew,,RAMA04,
2IFCnew,25,0,25,0,-1,2,Yes,2.5,-1,False Alarm,0.593716232572,False,True,stimulusRAMA04_2IFCnew_2019_Jun_11_1541_651,stimulusRAMA04_2IFCnew_2019_Jun_11_1541_652,2019_Jun_11_1541,2IFCnew,,RAMA04,
2IFCnew,26,0,26,0,-1,3,Yes,2.5,-1,Correct Rejection,0.653892735019,False,True,stimulusRAMA04_2IFCnew_2019_Jun_11_1541_653,stimulusRAMA04_2IFCnew_2019_Jun_11_1541_654,2019_Jun_11_1541,2IFCnew,,RAMA04,
2IFCnew,27,0,27,0,-1,1,Yes,2.5,-1,Hit,0.304002269637,True,False,stimulusRAMA04_2IFCnew_2019_Jun_11_1541_655,stimulusRAMA04_2IFCnew_2019_Jun_11_1541_656,2019_Jun_11_1541,2IFCnew,,RAMA04,
2IFCnew,28,0,28,0,-1,2,Yes,2.5,-1,False Alarm,0.469872335903,False,True,stimulusRAMA04_2IFCnew_2019_Jun_11_1541_657,stimulusRAMA04_2IFCnew_2019_Jun_11_1541_658,2019_Jun_11_1541,2IFCnew,,RAMA04,
2IFCnew,29,0,29,0,-1,4,Yes,2.5,-1,Miss,0.277319515124,True,False,stimulusRAMA04_2IFCnew_2019_Jun_11_1541_659,stimulusRAMA04_2IFCnew_2019_Jun_11_1541_660,2019_Jun_11_1541,2IFCnew,,RAMA04,
2IFCnew,30,0,30,0,-1,2,Yes,2.5,-1,False Alarm,0.270127943251,False,True,stimulusRAMA04_2IFCnew_2019_Jun_11_1541_661,stimulusRAMA04_2IFCnew_2019_Jun_11_1541_662,2019_Jun_11_1541,2IFCnew,,RAMA04,
2IFCnew,31,0,31,0,-1,4,Yes,2.5,-1,Miss,0.341030426323,True,False,stimulusRAMA04_2IFCnew_2019_Jun_11_1541_663,stimulusRAMA04_2IFCnew_2019_Jun_11_1541_664,2019_Jun_11_1541,2IFCnew,,RAMA04,
2IFCnew,32,0,32,0,-1,2,Yes,2.5,-1,False Alarm,0.325475989375,False,True,stimulusRAMA04_2IFCnew_2019_Jun_11_1541_665,stimulusRAMA04_2IFCnew_2019_Jun_11_1541_666,2019_Jun_11_1541,2IFCnew,,RAMA04,
2IFCnew,33,0,33,0,-1,4,Yes,2.5,-1,Miss,0.432923414744,True,False,stimulusRAMA04_2IFCnew_2019_Jun_11_1541_667,stimulusRAMA04_2IFCnew_2019_Jun_11_1541_668,2019_Jun_11_1541,2IFCnew,,RAMA04,
2IFCnew,34,0,34,0,-1,4,Yes,2.5,-1,Miss,0.593392310198,True,False,stimulusRAMA04_2IFCnew_2019_Jun_11_1541_669,stimulusRAMA04_2IFCnew_2019_Jun_11_1541_670,2019_Jun_11_1541,2IFCnew,,RAMA04,
2IFCnew,35,0,35,0,-1,2,Yes,2.5,-1,False Alarm,0.269798683468,False,True,stimulusRAMA04_2IFCnew_2019_Jun_11_1541_671,stimulusRAMA04_2IFCnew_2019_Jun_11_1541_672,2019_Jun_11_1541,2IFCnew,,RAMA04,
2IFCnew,36,0,36,0,-1,4,Yes,2.5,-1,Miss,0.435373976361,True,False,stimulusRAMA04_2IFCnew_2019_Jun_11_1541_673,stimulusRAMA04_2IFCnew_2019_Jun_11_1541_674,2019_Jun_11_1541,2IFCnew,,RAMA04,
2IFCnew,37,0,37,0,-1,1,Yes,2.5,-1,Hit,0.154781572055,True,False,stimulusRAMA04_2IFCnew_2019_Jun_11_1541_675,stimulusRAMA04_2IFCnew_2019_Jun_11_1541_676,2019_Jun_11_1541,2IFCnew,,RAMA04,
2IFCnew,38,0,38,0,-1,2,Yes,2.5,-1,False Alarm,0.199639702681,False,True,stimulusRAMA04_2IFCnew_2019_Jun_11_1541_677,stimulusRAMA04_2IFCnew_2019_Jun_11_1541_678,2019_Jun_11_1541,2IFCnew,,RAMA04,
2IFCnew,39,0,39,0,-1,2,Yes,2.5,-1,False Alarm,0.326758131385,False,True,stimulusRAMA04_2IFCnew_2019_Jun_11_1541_679,stimulusRAMA04_2IFCnew_2019_Jun_11_1541_680,2019_Jun_11_1541,2IFCnew,,RAMA04,
2IFCnew,40,0,40,0,-1,1,Yes,2.5,-1,Hit,0.200057641137,True,False,stimulusRAMA04_2IFCnew_2019_Jun_11_1541_681,stimulusRAMA04_2IFCnew_2019_Jun_11_1541_682,2019_Jun_11_1541,2IFCnew,,RAMA04,
2IFCnew,41,0,41,0,-1,3,Yes,2.5,-1,Correct Rejection,0.269662381615,False,True,stimulusRAMA04_2IFCnew_2019_Jun_11_1541_683,stimulusRAMA04_2IFCnew_2019_Jun_11_1541_684,2019_Jun_11_1541,2IFCnew,,RAMA04,
2IFCnew,42,0,42,0,-1,4,Yes,2.5,-1,Miss,0.472017449792,True,False,stimulusRAMA04_2IFCnew_2019_Jun_11_1541_685,stimulusRAMA04_2IFCnew_2019_Jun_11_1541_686,2019_Jun_11_1541,2IFCnew,,RAMA04,
2IFCnew,43,0,43,0,-1,4,Yes,2.5,-1,Miss,0.500924964901,True,False,stimulusRAMA04_2IFCnew_2019_Jun_11_1541_687,stimulusRAMA04_2IFCnew_2019_Jun_11_1541_688,2019_Jun_11_1541,2IFCnew,,RAMA04,
2IFCnew,44,0,44,0,-1,2,Yes,2.5,-1,False Alarm,0.301847302355,False,True,stimulusRAMA04_2IFCnew_2019_Jun_11_1541_689,stimulusRAMA04_2IFCnew_2019_Jun_11_1541_690,2019_Jun_11_1541,2IFCnew,,RAMA04,
2IFCnew,45,0,45,0,-1,3,Yes,2.5,-1,Correct Rejection,0.11021862505,False,True,stimulusRAMA04_2IFCnew_2019_Jun_11_1541_691,stimulusRAMA04_2IFCnew_2019_Jun_11_1541_692,2019_Jun_11_1541,2IFCnew,,RAMA04,
2IFCnew,46,0,46,0,-1,1,Yes,2.5,-1,Hit,0.567150073592,True,False,stimulusRAMA04_2IFCnew_2019_Jun_11_1541_693,stimulusRAMA04_2IFCnew_2019_Jun_11_1541_694,2019_Jun_11_1541,2IFCnew,,RAMA04,
2IFCnew,47,0,47,0,-1,4,Yes,2.5,-1,Miss,0.438414495904,True,False,stimulusRAMA04_2IFCnew_2019_Jun_11_1541_695,stimulusRAMA04_2IFCnew_2019_Jun_11_1541_696,2019_Jun_11_1541,2IFCnew,,RAMA04,
2IFCnew,48,0,48,0,-1,2,Yes,2.5,-1,False Alarm,0.189474120736,False,True,stimulusRAMA04_2IFCnew_2019_Jun_11_1541_697,stimulusRAMA04_2IFCnew_2019_Jun_11_1541_698,2019_Jun_11_1541,2IFCnew,,RAMA04,
2IFCnew,49,0,49,0,0.268856885843,5,Yes,2.5,-1,False Alarm,0.167805801146,False,True,stimulusRAMA04_2IFCnew_2019_Jun_11_1541_699,stimulusRAMA04_2IFCnew_2019_Jun_11_1541_700,2019_Jun_11_1541,2IFCnew,,RAMA04,
2IFCnew,50,0,50,0,-1,3,Yes,2.5,-1,Correct Rejection,0.723240062129,False,True,stimulusRAMA04_2IFCnew_2019_Jun_11_1541_701,stimulusRAMA04_2IFCnew_2019_Jun_11_1541_702,2019_Jun_11_1541,2IFCnew,,RAMA04,
2IFCnew,51,0,51,0,0.36704562977,6,No,2.5,-1,Miss,0.401097313035,True,False,stimulusRAMA04_2IFCnew_2019_Jun_11_1541_703,stimulusRAMA04_2IFCnew_2019_Jun_11_1541_704,2019_Jun_11_1541,2IFCnew,,RAMA04,
2IFCnew,52,0,52,0,0.670117597096,6,No,2.5,-1,Miss,0.557255863678,True,False,stimulusRAMA04_2IFCnew_2019_Jun_11_1541_705,stimulusRAMA04_2IFCnew_2019_Jun_11_1541_706,2019_Jun_11_1541,2IFCnew,,RAMA04,
2IFCnew,53,0,53,0,-1,1,No,2.5,-1,Hit,0.569316125475,True,False,stimulusRAMA04_2IFCnew_2019_Jun_11_1541_707,stimulusRAMA04_2IFCnew_2019_Jun_11_1541_708,2019_Jun_11_1541,2IFCnew,,RAMA04,
2IFCnew,54,0,54,0,-1,3,No,2.5,-1,Correct Rejection,0.502718649805,False,True,stimulusRAMA04_2IFCnew_2019_Jun_11_1541_709,stimulusRAMA04_2IFCnew_2019_Jun_11_1541_710,2019_Jun_11_1541,2IFCnew,,RAMA04,
2IFCnew,55,0,55,0,-1,1,No,2.5,-1,Hit,0.666832391173,True,False,stimulusRAMA04_2IFCnew_2019_Jun_11_1541_711,stimulusRAMA04_2IFCnew_2019_Jun_11_1541_712,2019_Jun_11_1541,2IFCnew,,RAMA04,
2IFCnew,56,0,56,0,-1,4,No,2.5,-1,Miss,0.536377027631,True,False,stimulusRAMA04_2IFCnew_2019_Jun_11_1541_713,stimulusRAMA04_2IFCnew_2019_Jun_11_1541_714,2019_Jun_11_1541,2IFCnew,,RAMA04,
2IFCnew,57,0,57,0,-1,4,No,2.5,-1,Miss,0.501441434491,True,False,stimulusRAMA04_2IFCnew_2019_Jun_11_1541_715,stimulusRAMA04_2IFCnew_2019_Jun_11_1541_716,2019_Jun_11_1541,2IFCnew,,RAMA04,
2IFCnew,58,0,58,0,-1,1,No,2.5,-1,Hit,0.401588738896,True,False,stimulusRAMA04_2IFCnew_2019_Jun_11_1541_717,stimulusRAMA04_2IFCnew_2019_Jun_11_1541_718,2019_Jun_11_1541,2IFCnew,,RAMA04,
2IFCnew,59,0,59,0,-1,3,No,2.5,-1,Correct Rejection,0.268583050463,False,True,stimulusRAMA04_2IFCnew_2019_Jun_11_1541_719,stimulusRAMA04_2IFCnew_2019_Jun_11_1541_720,2019_Jun_11_1541,2IFCnew,,RAMA04,
2IFCnew,60,0,60,0,-1,4,No,2.5,-1,Miss,0.535252536181,True,False,stimulusRAMA04_2IFCnew_2019_Jun_11_1541_721,stimulusRAMA04_2IFCnew_2019_Jun_11_1541_722,2019_Jun_11_1541,2IFCnew,,RAMA04,
2IFCnew,61,0,61,0,-1,1,No,2.5,-1,Hit,0.402444321197,True,False,stimulusRAMA04_2IFCnew_2019_Jun_11_1541_723,stimulusRAMA04_2IFCnew_2019_Jun_11_1541_724,2019_Jun_11_1541,2IFCnew,,RAMA04,
2IFCnew,62,0,62,0,-1,2,No,2.5,-1,False Alarm,0.507494145539,False,True,stimulusRAMA04_2IFCnew_2019_Jun_11_1541_725,stimulusRAMA04_2IFCnew_2019_Jun_11_1541_726,2019_Jun_11_1541,2IFCnew,,RAMA04,
2IFCnew,63,0,63,0,-1,3,No,2.5,-1,Correct Rejection,0.566334314644,False,True,stimulusRAMA04_2IFCnew_2019_Jun_11_1541_727,stimulusRAMA04_2IFCnew_2019_Jun_11_1541_728,2019_Jun_11_1541,2IFCnew,,RAMA04,
2IFCnew,64,0,64,0,-1,2,No,2.5,-1,False Alarm,0.568928157445,False,True,stimulusRAMA04_2IFCnew_2019_Jun_11_1541_729,stimulusRAMA04_2IFCnew_2019_Jun_11_1541_730,2019_Jun_11_1541,2IFCnew,,RAMA04,
2IFCnew,65,0,65,0,-1,2,No,2.5,-1,False Alarm,0.601396356244,False,True,stimulusRAMA04_2IFCnew_2019_Jun_11_1541_731,stimulusRAMA04_2IFCnew_2019_Jun_11_1541_732,2019_Jun_11_1541,2IFCnew,,RAMA04,
2IFCnew,66,0,66,0,-1,3,No,2.5,-1,Correct Rejection,0.542270856444,False,True,stimulusRAMA04_2IFCnew_2019_Jun_11_1541_733,stimulusRAMA04_2IFCnew_2019_Jun_11_1541_734,2019_Jun_11_1541,2IFCnew,,RAMA04,
2IFCnew,67,0,67,0,0.466707830783,5,Yes,2.5,-1,False Alarm,0.570473049767,False,True,stimulusRAMA04_2IFCnew_2019_Jun_11_1541_735,stimulusRAMA04_2IFCnew_2019_Jun_11_1541_736,2019_Jun_11_1541,2IFCnew,,RAMA04,
2IFCnew,68,0,68,0,-1,3,Yes,2.5,-1,Correct Rejection,0.734152020887,False,True,stimulusRAMA04_2IFCnew_2019_Jun_11_1541_737,stimulusRAMA04_2IFCnew_2019_Jun_11_1541_738,2019_Jun_11_1541,2IFCnew,,RAMA04,
2IFCnew,69,0,69,0,0.265987975989,6,No,2.5,-1,Miss,0.499354618602,True,False,stimulusRAMA04_2IFCnew_2019_Jun_11_1541_739,stimulusRAMA04_2IFCnew_2019_Jun_11_1541_740,2019_Jun_11_1541,2IFCnew,,RAMA04,
2IFCnew,70,0,70,0,-1,4,No,2.5,-1,Miss,0.731607854366,True,False,stimulusRAMA04_2IFCnew_2019_Jun_11_1541_741,stimulusRAMA04_2IFCnew_2019_Jun_11_1541_742,2019_Jun_11_1541,2IFCnew,,RAMA04,
2IFCnew,71,0,71,0,-1,2,No,2.5,-1,False Alarm,0.509583014529,False,True,stimulusRAMA04_2IFCnew_2019_Jun_11_1541_743,stimulusRAMA04_2IFCnew_2019_Jun_11_1541_744,2019_Jun_11_1541,2IFCnew,,RAMA04,
2IFCnew,72,0,72,0,-1,2,No,2.5,-1,False Alarm,0.529731074814,False,True,stimulusRAMA04_2IFCnew_2019_Jun_11_1541_745,stimulusRAMA04_2IFCnew_2019_Jun_11_1541_746,2019_Jun_11_1541,2IFCnew,,RAMA04,
2IFCnew,73,0,73,0,-1,3,No,2.5,-1,Correct Rejection,0.604091605172,False,True,stimulusRAMA04_2IFCnew_2019_Jun_11_1541_747,stimulusRAMA04_2IFCnew_2019_Jun_11_1541_748,2019_Jun_11_1541,2IFCnew,,RAMA04,
2IFCnew,74,0,74,0,0.398574494757,8,No,2.5,-1,Correct Rejection,0.590108335484,False,True,stimulusRAMA04_2IFCnew_2019_Jun_11_1541_749,stimulusRAMA04_2IFCnew_2019_Jun_11_1541_750,2019_Jun_11_1541,2IFCnew,,RAMA04,
2IFCnew,0,0,0,0,-1,2,No,7,-1,False Alarm,0.668343208265,False,True,stimulusRAMA04_2IFCnew_2019_Jun_11_1541_751,stimulusRAMA04_2IFCnew_2019_Jun_11_1541_752,2019_Jun_11_1541,2IFCnew,,RAMA04,
2IFCnew,1,0,1,0,-1,2,No,7,-1,False Alarm,0.501216043252,False,True,stimulusRAMA04_2IFCnew_2019_Jun_11_1541_753,stimulusRAMA04_2IFCnew_2019_Jun_11_1541_754,2019_Jun_11_1541,2IFCnew,,RAMA04,
2IFCnew,2,0,2,0,-1,3,No,7,-1,Correct Rejection,0.469364077318,False,True,stimulusRAMA04_2IFCnew_2019_Jun_11_1541_755,stimulusRAMA04_2IFCnew_2019_Jun_11_1541_756,2019_Jun_11_1541,2IFCnew,,RAMA04,
2IFCnew,3,0,3,0,-1,3,No,7,-1,Correct Rejection,0.612986540888,False,True,stimulusRAMA04_2IFCnew_2019_Jun_11_1541_757,stimulusRAMA04_2IFCnew_2019_Jun_11_1541_758,2019_Jun_11_1541,2IFCnew,,RAMA04,
2IFCnew,4,0,4,0,-1,2,No,7,-1,False Alarm,0.20088571636,False,True,stimulusRAMA04_2IFCnew_2019_Jun_11_1541_759,stimulusRAMA04_2IFCnew_2019_Jun_11_1541_760,2019_Jun_11_1541,2IFCnew,,RAMA04,
2IFCnew,5,0,5,0,-1,1,No,7,-1,Hit,0.602679729927,True,False,stimulusRAMA04_2IFCnew_2019_Jun_11_1541_761,stimulusRAMA04_2IFCnew_2019_Jun_11_1541_762,2019_Jun_11_1541,2IFCnew,,RAMA04,
2IFCnew,6,0,6,0,0.73569486104,3,No,7,-1,False Alarm,0.626350703184,False,True,stimulusRAMA04_2IFCnew_2019_Jun_11_1541_763,stimulusRAMA04_2IFCnew_2019_Jun_11_1541_764,2019_Jun_11_1541,2IFCnew,,RAMA04,
2IFCnew,7,0,7,0,-1,3,No,7,-1,Correct Rejection,0.667552493047,False,True,stimulusRAMA04_2IFCnew_2019_Jun_11_1541_765,stimulusRAMA04_2IFCnew_2019_Jun_11_1541_766,2019_Jun_11_1541,2IFCnew,,RAMA04,
2IFCnew,8,0,8,0,-1,3,No,7,-1,Correct Rejection,0.568059437443,False,True,stimulusRAMA04_2IFCnew_2019_Jun_11_1541_767,stimulusRAMA04_2IFCnew_2019_Jun_11_1541_768,2019_Jun_11_1541,2IFCnew,,RAMA04,
2IFCnew,9,0,9,0,-1,3,No,7,-1,Correct Rejection,0.539078434464,False,True,stimulusRAMA04_2IFCnew_2019_Jun_11_1541_769,stimulusRAMA04_2IFCnew_2019_Jun_11_1541_770,2019_Jun_11_1541,2IFCnew,,RAMA04,
2IFCnew,10,0,10,0,0.0332827265374,2,Yes,7,-1,Correct Rejection,0.504758252762,False,True,stimulusRAMA04_2IFCnew_2019_Jun_11_1541_771,stimulusRAMA04_2IFCnew_2019_Jun_11_1541_772,2019_Jun_11_1541,2IFCnew,,RAMA04,
2IFCnew,11,0,11,0,0.366280368064,2,Yes,7,-1,Correct Rejection,0.49866818171,False,True,stimulusRAMA04_2IFCnew_2019_Jun_11_1541_773,stimulusRAMA04_2IFCnew_2019_Jun_11_1541_774,2019_Jun_11_1541,2IFCnew,,RAMA04,
2IFCnew,12,0,12,0,0.368907876313,6,No,7,-1,Miss,0.401034499053,True,False,stimulusRAMA04_2IFCnew_2019_Jun_11_1541_775,stimulusRAMA04_2IFCnew_2019_Jun_11_1541_776,2019_Jun_11_1541,2IFCnew,,RAMA04,
2IFCnew,13,0,13,0,-1,1,No,7,-1,Hit,0.502513786312,True,False,stimulusRAMA04_2IFCnew_2019_Jun_11_1541_777,stimulusRAMA04_2IFCnew_2019_Jun_11_1541_778,2019_Jun_11_1541,2IFCnew,,RAMA04,
2IFCnew,14,0,14,0,-1,1,No,7,-1,Hit,0.499745870475,True,False,stimulusRAMA04_2IFCnew_2019_Jun_11_1541_779,stimulusRAMA04_2IFCnew_2019_Jun_11_1541_780,2019_Jun_11_1541,2IFCnew,,RAMA04,
2IFCnew,15,0,15,0,0.772859730292,3,No,7,-1,False Alarm,0.605618843809,False,True,stimulusRAMA04_2IFCnew_2019_Jun_11_1541_781,stimulusRAMA04_2IFCnew_2019_Jun_11_1541_782,2019_Jun_11_1541,2IFCnew,,RAMA04,
2IFCnew,16,0,16,0,-1,3,No,7,-1,Correct Rejection,0.701049114577,False,True,stimulusRAMA04_2IFCnew_2019_Jun_11_1541_783,stimulusRAMA04_2IFCnew_2019_Jun_11_1541_784,2019_Jun_11_1541,2IFCnew,,RAMA04,
2IFCnew,17,0,17,0,0.469152234495,2,Yes,7,-1,Correct Rejection,0.8357113651,False,True,stimulusRAMA04_2IFCnew_2019_Jun_11_1541_785,stimulusRAMA04_2IFCnew_2019_Jun_11_1541_786,2019_Jun_11_1541,2IFCnew,,RAMA04,
2IFCnew,18,0,18,0,0.83514070278,3,No,7,-1,False Alarm,0.89903636137,False,True,stimulusRAMA04_2IFCnew_2019_Jun_11_1541_787,stimulusRAMA04_2IFCnew_2019_Jun_11_1541_788,2019_Jun_11_1541,2IFCnew,,RAMA04,
2IFCnew,19,0,19,0,-1,3,No,7,-1,Correct Rejection,0.732795570046,False,True,stimulusRAMA04_2IFCnew_2019_Jun_11_1541_789,stimulusRAMA04_2IFCnew_2019_Jun_11_1541_790,2019_Jun_11_1541,2IFCnew,,RAMA04,
2IFCnew,20,0,20,0,0.334507637657,1,No,7,-1,Hit,0.570936969016,True,False,stimulusRAMA04_2IFCnew_2019_Jun_11_1541_791,stimulusRAMA04_2IFCnew_2019_Jun_11_1541_792,2019_Jun_11_1541,2IFCnew,,RAMA04,
2IFCnew,21,0,21,0,0.568157148082,2,Yes,7,-1,Correct Rejection,0.565802654251,False,True,stimulusRAMA04_2IFCnew_2019_Jun_11_1541_793,stimulusRAMA04_2IFCnew_2019_Jun_11_1541_794,2019_Jun_11_1541,2IFCnew,,RAMA04,
2IFCnew,22,0,22,0,-1,3,Yes,7,-1,Correct Rejection,0.701191574801,False,True,stimulusRAMA04_2IFCnew_2019_Jun_11_1541_795,stimulusRAMA04_2IFCnew_2019_Jun_11_1541_796,2019_Jun_11_1541,2IFCnew,,RAMA04,
2IFCnew,23,0,23,0,-1,1,Yes,7,-1,Hit,0.533857083414,True,False,stimulusRAMA04_2IFCnew_2019_Jun_11_1541_797,stimulusRAMA04_2IFCnew_2019_Jun_11_1541_798,2019_Jun_11_1541,2IFCnew,,RAMA04,
2IFCnew,24,0,24,0,-1,1,Yes,7,-1,Hit,0.609681628179,True,False,stimulusRAMA04_2IFCnew_2019_Jun_11_1541_799,stimulusRAMA04_2IFCnew_2019_Jun_11_1541_800,2019_Jun_11_1541,2IFCnew,,RAMA04,
2IFCnew,25,0,25,0,-1,3,Yes,7,-1,Correct Rejection,0.568362011574,False,True,stimulusRAMA04_2IFCnew_2019_Jun_11_1541_801,stimulusRAMA04_2IFCnew_2019_Jun_11_1541_802,2019_Jun_11_1541,2IFCnew,,RAMA04,
2IFCnew,26,0,26,0,-1,1,Yes,7,-1,Hit,0.600280076265,True,False,stimulusRAMA04_2IFCnew_2019_Jun_11_1541_803,stimulusRAMA04_2IFCnew_2019_Jun_11_1541_804,2019_Jun_11_1541,2IFCnew,,RAMA04,
2IFCnew,27,0,27,0,0.762488463428,3,No,7,-1,False Alarm,0.633550485596,False,True,stimulusRAMA04_2IFCnew_2019_Jun_11_1541_805,stimulusRAMA04_2IFCnew_2019_Jun_11_1541_806,2019_Jun_11_1541,2IFCnew,,RAMA04,
2IFCnew,28,0,28,0,-1,3,No,7,-1,Correct Rejection,0.602571755648,False,True,stimulusRAMA04_2IFCnew_2019_Jun_11_1541_807,stimulusRAMA04_2IFCnew_2019_Jun_11_1541_808,2019_Jun_11_1541,2IFCnew,,RAMA04,
2IFCnew,29,0,29,0,0.632976539433,3,No,7,-1,False Alarm,0.667859172449,False,True,stimulusRAMA04_2IFCnew_2019_Jun_11_1541_809,stimulusRAMA04_2IFCnew_2019_Jun_11_1541_810,2019_Jun_11_1541,2IFCnew,,RAMA04,
2IFCnew,30,0,30,0,-1,1,No,7,-1,Hit,0.805207228288,True,False,stimulusRAMA04_2IFCnew_2019_Jun_11_1541_811,stimulusRAMA04_2IFCnew_2019_Jun_11_1541_812,2019_Jun_11_1541,2IFCnew,,RAMA04,
2IFCnew,31,0,31,0,0.469020448625,1,No,7,-1,Hit,0.699858114589,True,False,stimulusRAMA04_2IFCnew_2019_Jun_11_1541_813,stimulusRAMA04_2IFCnew_2019_Jun_11_1541_814,2019_Jun_11_1541,2IFCnew,,RAMA04,
2IFCnew,32,0,32,0,0.602329121437,1,No,7,-1,Hit,0.560299256817,True,False,stimulusRAMA04_2IFCnew_2019_Jun_11_1541_815,stimulusRAMA04_2IFCnew_2019_Jun_11_1541_816,2019_Jun_11_1541,2IFCnew,,RAMA04,
2IFCnew,33,0,33,0,0.432228767313,1,No,7,-1,Hit,0.604767367244,True,False,stimulusRAMA04_2IFCnew_2019_Jun_11_1541_817,stimulusRAMA04_2IFCnew_2019_Jun_11_1541_818,2019_Jun_11_1541,2IFCnew,,RAMA04,
2IFCnew,34,0,34,0,0.468008036725,3,No,7,-1,False Alarm,0.770725701004,False,True,stimulusRAMA04_2IFCnew_2019_Jun_11_1541_819,stimulusRAMA04_2IFCnew_2019_Jun_11_1541_820,2019_Jun_11_1541,2IFCnew,,RAMA04,
2IFCnew,35,0,35,0,0.634144959506,1,No,7,-1,Hit,0.629758253228,True,False,stimulusRAMA04_2IFCnew_2019_Jun_11_1541_821,stimulusRAMA04_2IFCnew_2019_Jun_11_1541_822,2019_Jun_11_1541,2IFCnew,,RAMA04,
2IFCnew,36,0,36,0,0.634460671339,1,No,7,-1,Hit,0.560038558673,True,False,stimulusRAMA04_2IFCnew_2019_Jun_11_1541_823,stimulusRAMA04_2IFCnew_2019_Jun_11_1541_824,2019_Jun_11_1541,2IFCnew,,RAMA04,
2IFCnew,37,0,37,0,0.435768513009,2,Yes,7,-1,Correct Rejection,0.568634205032,False,True,stimulusRAMA04_2IFCnew_2019_Jun_11_1541_825,stimulusRAMA04_2IFCnew_2019_Jun_11_1541_826,2019_Jun_11_1541,2IFCnew,,RAMA04,
2IFCnew,38,0,38,0,0.467742823064,1,No,7,-1,Hit,0.599784954917,True,False,stimulusRAMA04_2IFCnew_2019_Jun_11_1541_827,stimulusRAMA04_2IFCnew_2019_Jun_11_1541_828,2019_Jun_11_1541,2IFCnew,,RAMA04,
2IFCnew,39,0,39,0,0.399972000625,2,Yes,7,-1,Correct Rejection,0.658706001937,False,True,stimulusRAMA04_2IFCnew_2019_Jun_11_1541_829,stimulusRAMA04_2IFCnew_2019_Jun_11_1541_830,2019_Jun_11_1541,2IFCnew,,RAMA04,
2IFCnew,40,0,40,0,0.33475601906,1,No,7,-1,Hit,0.42762611201,True,False,stimulusRAMA04_2IFCnew_2019_Jun_11_1541_831,stimulusRAMA04_2IFCnew_2019_Jun_11_1541_832,2019_Jun_11_1541,2IFCnew,,RAMA04,
2IFCnew,41,0,41,0,0.401968906634,1,No,7,-1,Hit,0.566706681624,True,False,stimulusRAMA04_2IFCnew_2019_Jun_11_1541_833,stimulusRAMA04_2IFCnew_2019_Jun_11_1541_834,2019_Jun_11_1541,2IFCnew,,RAMA04,
2IFCnew,42,0,42,0,0.366802175064,1,No,7,-1,Hit,0.56951524131,True,False,stimulusRAMA04_2IFCnew_2019_Jun_11_1541_835,stimulusRAMA04_2IFCnew_2019_Jun_11_1541_836,2019_Jun_11_1541,2IFCnew,,RAMA04,
2IFCnew,43,0,43,0,0.299632395152,2,Yes,7,-1,Correct Rejection,0.601965786424,False,True,stimulusRAMA04_2IFCnew_2019_Jun_11_1541_837,stimulusRAMA04_2IFCnew_2019_Jun_11_1541_838,2019_Jun_11_1541,2IFCnew,,RAMA04,
2IFCnew,44,0,44,0,0.399370958097,5,Yes,7,-1,False Alarm,0.567027729936,False,True,stimulusRAMA04_2IFCnew_2019_Jun_11_1541_839,stimulusRAMA04_2IFCnew_2019_Jun_11_1541_840,2019_Jun_11_1541,2IFCnew,,RAMA04,
2IFCnew,45,0,45,0,0.47354674153,2,Yes,7,-1,Correct Rejection,0.600017325021,False,True,stimulusRAMA04_2IFCnew_2019_Jun_11_1541_841,stimulusRAMA04_2IFCnew_2019_Jun_11_1541_842,2019_Jun_11_1541,2IFCnew,,RAMA04,
2IFCnew,46,0,46,0,0.434855043422,2,Yes,7,-1,Correct Rejection,0.599934394471,False,True,stimulusRAMA04_2IFCnew_2019_Jun_11_1541_843,stimulusRAMA04_2IFCnew_2019_Jun_11_1541_844,2019_Jun_11_1541,2IFCnew,,RAMA04,
2IFCnew,47,0,47,0,0.400838667527,1,No,7,-1,Hit,0.623073708266,True,False,stimulusRAMA04_2IFCnew_2019_Jun_11_1541_845,stimulusRAMA04_2IFCnew_2019_Jun_11_1541_846,2019_Jun_11_1541,2IFCnew,,RAMA04,
2IFCnew,48,0,48,0,0.366979531478,2,Yes,7,-1,Correct Rejection,0.49958822038,False,True,stimulusRAMA04_2IFCnew_2019_Jun_11_1541_847,stimulusRAMA04_2IFCnew_2019_Jun_11_1541_848,2019_Jun_11_1541,2IFCnew,,RAMA04,
2IFCnew,49,0,49,0,0.367095306516,1,No,7,-1,Hit,0.470751729794,True,False,stimulusRAMA04_2IFCnew_2019_Jun_11_1541_849,stimulusRAMA04_2IFCnew_2019_Jun_11_1541_850,2019_Jun_11_1541,2IFCnew,,RAMA04,
2IFCnew,50,0,50,0,0.403727284167,2,Yes,7,-1,Correct Rejection,0.567813108675,False,True,stimulusRAMA04_2IFCnew_2019_Jun_11_1541_851,stimulusRAMA04_2IFCnew_2019_Jun_11_1541_852,2019_Jun_11_1541,2IFCnew,,RAMA04,
2IFCnew,51,0,51,0,0.399586495943,2,Yes,7,-1,Correct Rejection,0.59616022557,False,True,stimulusRAMA04_2IFCnew_2019_Jun_11_1541_853,stimulusRAMA04_2IFCnew_2019_Jun_11_1541_854,2019_Jun_11_1541,2IFCnew,,RAMA04,
2IFCnew,52,0,52,0,0.498325373977,4,Yes,7,-1,Miss,0.534723750781,True,False,stimulusRAMA04_2IFCnew_2019_Jun_11_1541_855,stimulusRAMA04_2IFCnew_2019_Jun_11_1541_856,2019_Jun_11_1541,2IFCnew,,RAMA04,
2IFCnew,53,0,53,0,0.540466908365,2,Yes,7,-1,Correct Rejection,0.768257896416,False,True,stimulusRAMA04_2IFCnew_2019_Jun_11_1541_857,stimulusRAMA04_2IFCnew_2019_Jun_11_1541_858,2019_Jun_11_1541,2IFCnew,,RAMA04,
2IFCnew,54,0,54,0,0.434182566125,2,Yes,7,-1,Correct Rejection,0.659219597001,False,True,stimulusRAMA04_2IFCnew_2019_Jun_11_1541_859,stimulusRAMA04_2IFCnew_2019_Jun_11_1541_860,2019_Jun_11_1541,2IFCnew,,RAMA04,
2IFCnew,55,0,55,0,0.265645989217,1,No,7,-1,Hit,0.631081449334,True,False,stimulusRAMA04_2IFCnew_2019_Jun_11_1541_861,stimulusRAMA04_2IFCnew_2019_Jun_11_1541_862,2019_Jun_11_1541,2IFCnew,,RAMA04,
2IFCnew,56,0,56,0,0.444147389848,2,Yes,7,-1,Correct Rejection,0.501877847128,False,True,stimulusRAMA04_2IFCnew_2019_Jun_11_1541_863,stimulusRAMA04_2IFCnew_2019_Jun_11_1541_864,2019_Jun_11_1541,2IFCnew,,RAMA04,
2IFCnew,57,0,57,0,0.434459685814,2,Yes,7,-1,Correct Rejection,0.533005606383,False,True,stimulusRAMA04_2IFCnew_2019_Jun_11_1541_865,stimulusRAMA04_2IFCnew_2019_Jun_11_1541_866,2019_Jun_11_1541,2IFCnew,,RAMA04,
2IFCnew,58,0,58,0,0.63306644978,6,No,7,-1,Miss,0.533647292759,True,False,stimulusRAMA04_2IFCnew_2019_Jun_11_1541_867,stimulusRAMA04_2IFCnew_2019_Jun_11_1541_868,2019_Jun_11_1541,2IFCnew,,RAMA04,
2IFCnew,59,0,59,0,0.770203484222,6,No,7,-1,Miss,0.542476130649,True,False,stimulusRAMA04_2IFCnew_2019_Jun_11_1541_869,stimulusRAMA04_2IFCnew_2019_Jun_11_1541_870,2019_Jun_11_1541,2IFCnew,,RAMA04,
2IFCnew,60,0,60,0,0.305160015356,2,Yes,7,-1,Correct Rejection,0.467224300373,False,True,stimulusRAMA04_2IFCnew_2019_Jun_11_1541_871,stimulusRAMA04_2IFCnew_2019_Jun_11_1541_872,2019_Jun_11_1541,2IFCnew,,RAMA04,
2IFCnew,61,0,61,0,0.432388059795,2,Yes,7,-1,Correct Rejection,0.598704392556,False,True,stimulusRAMA04_2IFCnew_2019_Jun_11_1541_873,stimulusRAMA04_2IFCnew_2019_Jun_11_1541_874,2019_Jun_11_1541,2IFCnew,,RAMA04,
2IFCnew,62,0,62,0,0.434517983813,2,Yes,7,-1,Correct Rejection,0.504490986001,False,True,stimulusRAMA04_2IFCnew_2019_Jun_11_1541_875,stimulusRAMA04_2IFCnew_2019_Jun_11_1541_876,2019_Jun_11_1541,2IFCnew,,RAMA04,
2IFCnew,63,0,63,0,0.368885296397,1,No,7,-1,Hit,0.503842730541,True,False,stimulusRAMA04_2IFCnew_2019_Jun_11_1541_877,stimulusRAMA04_2IFCnew_2019_Jun_11_1541_878,2019_Jun_11_1541,2IFCnew,,RAMA04,
2IFCnew,64,0,64,0,0.265101192053,1,No,7,-1,Hit,0.53258931078,True,False,stimulusRAMA04_2IFCnew_2019_Jun_11_1541_879,stimulusRAMA04_2IFCnew_2019_Jun_11_1541_880,2019_Jun_11_1541,2IFCnew,,RAMA04,
2IFCnew,65,0,65,0,0.368430819362,1,No,7,-1,Hit,0.568741358351,True,False,stimulusRAMA04_2IFCnew_2019_Jun_11_1541_881,stimulusRAMA04_2IFCnew_2019_Jun_11_1541_882,2019_Jun_11_1541,2IFCnew,,RAMA04,
2IFCnew,66,0,66,0,0.404237185139,6,No,7,-1,Miss,0.570847880561,True,False,stimulusRAMA04_2IFCnew_2019_Jun_11_1541_883,stimulusRAMA04_2IFCnew_2019_Jun_11_1541_884,2019_Jun_11_1541,2IFCnew,,RAMA04,
2IFCnew,67,0,67,0,0.334042486735,1,No,7,-1,Hit,0.500557934865,True,False,stimulusRAMA04_2IFCnew_2019_Jun_11_1541_885,stimulusRAMA04_2IFCnew_2019_Jun_11_1541_886,2019_Jun_11_1541,2IFCnew,,RAMA04,
2IFCnew,68,0,68,0,0.299367181025,1,No,7,-1,Hit,0.39971376583,True,False,stimulusRAMA04_2IFCnew_2019_Jun_11_1541_887,stimulusRAMA04_2IFCnew_2019_Jun_11_1541_888,2019_Jun_11_1541,2IFCnew,,RAMA04,
2IFCnew,69,0,69,0,0.301070545334,1,No,7,-1,Hit,0.535707423463,True,False,stimulusRAMA04_2IFCnew_2019_Jun_11_1541_889,stimulusRAMA04_2IFCnew_2019_Jun_11_1541_890,2019_Jun_11_1541,2IFCnew,,RAMA04,
2IFCnew,70,0,70,0,0.534232734703,7,Yes,7,-1,Hit,0.599220861681,True,False,stimulusRAMA04_2IFCnew_2019_Jun_11_1541_891,stimulusRAMA04_2IFCnew_2019_Jun_11_1541_892,2019_Jun_11_1541,2IFCnew,,RAMA04,
2IFCnew,71,0,71,0,0.467724347953,1,No,7,-1,Hit,0.505282933358,True,False,stimulusRAMA04_2IFCnew_2019_Jun_11_1541_893,stimulusRAMA04_2IFCnew_2019_Jun_11_1541_894,2019_Jun_11_1541,2IFCnew,,RAMA04,
2IFCnew,72,0,72,0,-1,4,No,7,-1,Miss,0.633467965759,True,False,stimulusRAMA04_2IFCnew_2019_Jun_11_1541_895,stimulusRAMA04_2IFCnew_2019_Jun_11_1541_896,2019_Jun_11_1541,2IFCnew,,RAMA04,
2IFCnew,73,0,73,0,0.468301578891,1,No,7,-1,Hit,0.60922591947,True,False,stimulusRAMA04_2IFCnew_2019_Jun_11_1541_897,stimulusRAMA04_2IFCnew_2019_Jun_11_1541_898,2019_Jun_11_1541,2IFCnew,,RAMA04,
2IFCnew,74,0,74,0,0.334117617458,2,Yes,7,-1,Correct Rejection,0.567693639547,False,True,stimulusRAMA04_2IFCnew_2019_Jun_11_1541_899,stimulusRAMA04_2IFCnew_2019_Jun_11_1541_900,2019_Jun_11_1541,2IFCnew,,RAMA04,
2IFCnew,0,0,0,0,0.699424986262,1,No,5,-1,Hit,0.767165428028,True,False,stimulusRAMA04_2IFCnew_2019_Jun_11_1541_901,stimulusRAMA04_2IFCnew_2019_Jun_11_1541_902,2019_Jun_11_1541,2IFCnew,,RAMA04,
2IFCnew,1,0,1,0,0.500117416959,6,No,5,-1,Miss,0.467769918963,True,False,stimulusRAMA04_2IFCnew_2019_Jun_11_1541_903,stimulusRAMA04_2IFCnew_2019_Jun_11_1541_904,2019_Jun_11_1541,2IFCnew,,RAMA04,
2IFCnew,2,0,2,0,-1,2,No,5,-1,False Alarm,0.398284647614,False,True,stimulusRAMA04_2IFCnew_2019_Jun_11_1541_905,stimulusRAMA04_2IFCnew_2019_Jun_11_1541_906,2019_Jun_11_1541,2IFCnew,,RAMA04,
2IFCnew,3,0,3,0,0.735101208556,6,No,5,-1,Miss,0.642615799326,True,False,stimulusRAMA04_2IFCnew_2019_Jun_11_1541_907,stimulusRAMA04_2IFCnew_2019_Jun_11_1541_908,2019_Jun_11_1541,2IFCnew,,RAMA04,
2IFCnew,4,0,4,0,-1,4,No,5,-1,Miss,0.535486138426,True,False,stimulusRAMA04_2IFCnew_2019_Jun_11_1541_909,stimulusRAMA04_2IFCnew_2019_Jun_11_1541_910,2019_Jun_11_1541,2IFCnew,,RAMA04,
2IFCnew,5,0,5,0,0.301467545331,3,No,5,-1,False Alarm,0.502479299903,False,True,stimulusRAMA04_2IFCnew_2019_Jun_11_1541_911,stimulusRAMA04_2IFCnew_2019_Jun_11_1541_912,2019_Jun_11_1541,2IFCnew,,RAMA04,
2IFCnew,6,0,6,0,-1,4,No,5,-1,Miss,0.86727800034,True,False,stimulusRAMA04_2IFCnew_2019_Jun_11_1541_913,stimulusRAMA04_2IFCnew_2019_Jun_11_1541_914,2019_Jun_11_1541,2IFCnew,,RAMA04,
2IFCnew,7,0,7,0,-1,1,No,5,-1,Hit,0.394192303997,True,False,stimulusRAMA04_2IFCnew_2019_Jun_11_1541_915,stimulusRAMA04_2IFCnew_2019_Jun_11_1541_916,2019_Jun_11_1541,2IFCnew,,RAMA04,
2IFCnew,8,0,8,0,-1,1,No,5,-1,Hit,0.466734516434,True,False,stimulusRAMA04_2IFCnew_2019_Jun_11_1541_917,stimulusRAMA04_2IFCnew_2019_Jun_11_1541_918,2019_Jun_11_1541,2IFCnew,,RAMA04,
2IFCnew,9,0,9,0,-1,3,No,5,-1,Correct Rejection,0.30948431883,False,True,stimulusRAMA04_2IFCnew_2019_Jun_11_1541_919,stimulusRAMA04_2IFCnew_2019_Jun_11_1541_920,2019_Jun_11_1541,2IFCnew,,RAMA04,
2IFCnew,10,0,10,0,-1,1,No,5,-1,Hit,0.465418709908,True,False,stimulusRAMA04_2IFCnew_2019_Jun_11_1541_921,stimulusRAMA04_2IFCnew_2019_Jun_11_1541_922,2019_Jun_11_1541,2IFCnew,,RAMA04,
2IFCnew,11,0,11,0,0.333635633811,3,No,5,-1,False Alarm,0.501266540959,False,True,stimulusRAMA04_2IFCnew_2019_Jun_11_1541_923,stimulusRAMA04_2IFCnew_2019_Jun_11_1541_924,2019_Jun_11_1541,2IFCnew,,RAMA04,
2IFCnew,12,0,12,0,0.404809079133,4,Yes,5,-1,Miss,0.469366950914,True,False,stimulusRAMA04_2IFCnew_2019_Jun_11_1541_925,stimulusRAMA04_2IFCnew_2019_Jun_11_1541_926,2019_Jun_11_1541,2IFCnew,,RAMA04,
2IFCnew,13,0,13,0,-1,2,Yes,5,-1,False Alarm,0.502026465721,False,True,stimulusRAMA04_2IFCnew_2019_Jun_11_1541_927,stimulusRAMA04_2IFCnew_2019_Jun_11_1541_928,2019_Jun_11_1541,2IFCnew,,RAMA04,
2IFCnew,14,0,14,0,0.606020359788,3,No,5,-1,False Alarm,0.567341799382,False,True,stimulusRAMA04_2IFCnew_2019_Jun_11_1541_929,stimulusRAMA04_2IFCnew_2019_Jun_11_1541_930,2019_Jun_11_1541,2IFCnew,,RAMA04,
2IFCnew,15,0,15,0,-1,1,No,5,-1,Hit,0.501827760134,True,False,stimulusRAMA04_2IFCnew_2019_Jun_11_1541_931,stimulusRAMA04_2IFCnew_2019_Jun_11_1541_932,2019_Jun_11_1541,2IFCnew,,RAMA04,
2IFCnew,16,0,16,0,-1,3,No,5,-1,Correct Rejection,0.571108988952,False,True,stimulusRAMA04_2IFCnew_2019_Jun_11_1541_933,stimulusRAMA04_2IFCnew_2019_Jun_11_1541_934,2019_Jun_11_1541,2IFCnew,,RAMA04,
2IFCnew,17,0,17,0,-1,2,No,5,-1,False Alarm,0.372699288651,False,True,stimulusRAMA04_2IFCnew_2019_Jun_11_1541_935,stimulusRAMA04_2IFCnew_2019_Jun_11_1541_936,2019_Jun_11_1541,2IFCnew,,RAMA04,
2IFCnew,18,0,18,0,-1,4,No,5,-1,Miss,0.56696573738,True,False,stimulusRAMA04_2IFCnew_2019_Jun_11_1541_937,stimulusRAMA04_2IFCnew_2019_Jun_11_1541_938,2019_Jun_11_1541,2IFCnew,,RAMA04,
2IFCnew,19,0,19,0,-1,1,No,5,-1,Hit,0.460371841677,True,False,stimulusRAMA04_2IFCnew_2019_Jun_11_1541_939,stimulusRAMA04_2IFCnew_2019_Jun_11_1541_940,2019_Jun_11_1541,2IFCnew,,RAMA04,
2IFCnew,20,0,20,0,0.600968564861,3,No,5,-1,False Alarm,0.503726955969,False,True,stimulusRAMA04_2IFCnew_2019_Jun_11_1541_941,stimulusRAMA04_2IFCnew_2019_Jun_11_1541_942,2019_Jun_11_1541,2IFCnew,,RAMA04,
2IFCnew,21,0,21,0,-1,2,No,5,-1,False Alarm,0.43189006485,False,True,stimulusRAMA04_2IFCnew_2019_Jun_11_1541_943,stimulusRAMA04_2IFCnew_2019_Jun_11_1541_944,2019_Jun_11_1541,2IFCnew,,RAMA04,
2IFCnew,22,0,22,0,0.367178647779,2,Yes,5,-1,Correct Rejection,0.634514863603,False,True,stimulusRAMA04_2IFCnew_2019_Jun_11_1541_945,stimulusRAMA04_2IFCnew_2019_Jun_11_1541_946,2019_Jun_11_1541,2IFCnew,,RAMA04,
2IFCnew,23,0,23,0,0.668305027764,2,Yes,5,-1,Correct Rejection,0.503671942744,False,True,stimulusRAMA04_2IFCnew_2019_Jun_11_1541_947,stimulusRAMA04_2IFCnew_2019_Jun_11_1541_948,2019_Jun_11_1541,2IFCnew,,RAMA04,
2IFCnew,24,0,24,0,0.403012930881,4,Yes,5,-1,Miss,0.49900318915,True,False,stimulusRAMA04_2IFCnew_2019_Jun_11_1541_949,stimulusRAMA04_2IFCnew_2019_Jun_11_1541_950,2019_Jun_11_1541,2IFCnew,,RAMA04,
2IFCnew,25,0,25,0,0.366869505029,1,No,5,-1,Hit,0.433435778599,True,False,stimulusRAMA04_2IFCnew_2019_Jun_11_1541_951,stimulusRAMA04_2IFCnew_2019_Jun_11_1541_952,2019_Jun_11_1541,2IFCnew,,RAMA04,
2IFCnew,26,0,26,0,0.501122438349,3,No,5,-1,False Alarm,0.438587336801,False,True,stimulusRAMA04_2IFCnew_2019_Jun_11_1541_953,stimulusRAMA04_2IFCnew_2019_Jun_11_1541_954,2019_Jun_11_1541,2IFCnew,,RAMA04,
2IFCnew,27,0,27,0,0.504020908382,1,No,5,-1,Hit,0.568159610964,True,False,stimulusRAMA04_2IFCnew_2019_Jun_11_1541_955,stimulusRAMA04_2IFCnew_2019_Jun_11_1541_956,2019_Jun_11_1541,2IFCnew,,RAMA04,
2IFCnew,28,0,28,0,0.527075649239,1,No,5,-1,Hit,0.466961549595,True,False,stimulusRAMA04_2IFCnew_2019_Jun_11_1541_957,stimulusRAMA04_2IFCnew_2019_Jun_11_1541_958,2019_Jun_11_1541,2IFCnew,,RAMA04,
2IFCnew,29,0,29,0,0.300040890928,1,No,5,-1,Hit,0.465499998536,True,False,stimulusRAMA04_2IFCnew_2019_Jun_11_1541_959,stimulusRAMA04_2IFCnew_2019_Jun_11_1541_960,2019_Jun_11_1541,2IFCnew,,RAMA04,
2IFCnew,30,0,30,0,0.833436517511,2,Yes,5,-1,Correct Rejection,0.56883167848,False,True,stimulusRAMA04_2IFCnew_2019_Jun_11_1541_961,stimulusRAMA04_2IFCnew_2019_Jun_11_1541_962,2019_Jun_11_1541,2IFCnew,,RAMA04,
2IFCnew,31,0,31,0,0.368227597792,2,Yes,5,-1,Correct Rejection,0.499928975012,False,True,stimulusRAMA04_2IFCnew_2019_Jun_11_1541_963,stimulusRAMA04_2IFCnew_2019_Jun_11_1541_964,2019_Jun_11_1541,2IFCnew,,RAMA04,
2IFCnew,32,0,32,0,0.502244466916,2,Yes,5,-1,Correct Rejection,0.536269874778,False,True,stimulusRAMA04_2IFCnew_2019_Jun_11_1541_965,stimulusRAMA04_2IFCnew_2019_Jun_11_1541_966,2019_Jun_11_1541,2IFCnew,,RAMA04,
2IFCnew,33,0,33,0,-1,4,Yes,5,-1,Miss,0.604674583301,True,False,stimulusRAMA04_2IFCnew_2019_Jun_11_1541_967,stimulusRAMA04_2IFCnew_2019_Jun_11_1541_968,2019_Jun_11_1541,2IFCnew,,RAMA04,
2IFCnew,34,0,34,0,0.402002981864,2,Yes,5,-1,Correct Rejection,0.562056402676,False,True,stimulusRAMA04_2IFCnew_2019_Jun_11_1541_969,stimulusRAMA04_2IFCnew_2019_Jun_11_1541_970,2019_Jun_11_1541,2IFCnew,,RAMA04,
2IFCnew,35,0,35,0,-1,0,Yes,5,-1,No Answer,-1,False,True,stimulusRAMA04_2IFCnew_2019_Jun_11_1541_971,stimulusRAMA04_2IFCnew_2019_Jun_11_1541_972,2019_Jun_11_1541,2IFCnew,,RAMA04,
2IFCnew,36,0,36,0,-1,0,Yes,5,-1,No Answer,-1,True,False,stimulusRAMA04_2IFCnew_2019_Jun_11_1541_973,stimulusRAMA04_2IFCnew_2019_Jun_11_1541_974,2019_Jun_11_1541,2IFCnew,,RAMA04,
2IFCnew,37,0,37,0,0.702348909806,1,No,5,-1,Hit,0.500702037476,True,False,stimulusRAMA04_2IFCnew_2019_Jun_11_1541_975,stimulusRAMA04_2IFCnew_2019_Jun_11_1541_976,2019_Jun_11_1541,2IFCnew,,RAMA04,
2IFCnew,38,0,38,0,0.365866125096,1,No,5,-1,Hit,0.442501502577,True,False,stimulusRAMA04_2IFCnew_2019_Jun_11_1541_977,stimulusRAMA04_2IFCnew_2019_Jun_11_1541_978,2019_Jun_11_1541,2IFCnew,,RAMA04,
2IFCnew,39,0,39,0,0.367229555268,2,Yes,5,-1,Correct Rejection,0.533293400891,False,True,stimulusRAMA04_2IFCnew_2019_Jun_11_1541_979,stimulusRAMA04_2IFCnew_2019_Jun_11_1541_980,2019_Jun_11_1541,2IFCnew,,RAMA04,
2IFCnew,40,0,40,0,0.401056258474,4,Yes,5,-1,Miss,0.632966686506,True,False,stimulusRAMA04_2IFCnew_2019_Jun_11_1541_981,stimulusRAMA04_2IFCnew_2019_Jun_11_1541_982,2019_Jun_11_1541,2IFCnew,,RAMA04,
2IFCnew,41,0,41,0,-1,2,Yes,5,-1,False Alarm,0.513329676818,False,True,stimulusRAMA04_2IFCnew_2019_Jun_11_1541_983,stimulusRAMA04_2IFCnew_2019_Jun_11_1541_984,2019_Jun_11_1541,2IFCnew,,RAMA04,
2IFCnew,42,0,42,0,0.603762344923,6,No,5,-1,Miss,0.632272039074,True,False,stimulusRAMA04_2IFCnew_2019_Jun_11_1541_985,stimulusRAMA04_2IFCnew_2019_Jun_11_1541_986,2019_Jun_11_1541,2IFCnew,,RAMA04,
2IFCnew,43,0,43,0,-1,1,No,5,-1,Hit,0.536325298715,True,False,stimulusRAMA04_2IFCnew_2019_Jun_11_1541_987,stimulusRAMA04_2IFCnew_2019_Jun_11_1541_988,2019_Jun_11_1541,2IFCnew,,RAMA04,
2IFCnew,44,0,44,0,0.399108618032,1,No,5,-1,Hit,0.53372817114,True,False,stimulusRAMA04_2IFCnew_2019_Jun_11_1541_989,stimulusRAMA04_2IFCnew_2019_Jun_11_1541_990,2019_Jun_11_1541,2IFCnew,,RAMA04,
2IFCnew,45,0,45,0,0.599964364432,2,Yes,5,-1,Correct Rejection,0.635663166642,False,True,stimulusRAMA04_2IFCnew_2019_Jun_11_1541_991,stimulusRAMA04_2IFCnew_2019_Jun_11_1541_992,2019_Jun_11_1541,2IFCnew,,RAMA04,
2IFCnew,46,0,46,0,0.434940027073,1,No,5,-1,Hit,0.433265811764,True,False,stimulusRAMA04_2IFCnew_2019_Jun_11_1541_993,stimulusRAMA04_2IFCnew_2019_Jun_11_1541_994,2019_Jun_11_1541,2IFCnew,,RAMA04,
2IFCnew,47,0,47,0,0.735323314555,3,No,5,-1,False Alarm,0.600827747025,False,True,stimulusRAMA04_2IFCnew_2019_Jun_11_1541_995,stimulusRAMA04_2IFCnew_2019_Jun_11_1541_996,2019_Jun_11_1541,2IFCnew,,RAMA04,
2IFCnew,48,0,48,0,-1,1,No,5,-1,Hit,0.570232878905,True,False,stimulusRAMA04_2IFCnew_2019_Jun_11_1541_997,stimulusRAMA04_2IFCnew_2019_Jun_11_1541_998,2019_Jun_11_1541,2IFCnew,,RAMA04,
2IFCnew,49,0,49,0,0.871692624409,3,No,5,-1,False Alarm,0.404177245218,False,True,stimulusRAMA04_2IFCnew_2019_Jun_11_1541_999,stimulusRAMA04_2IFCnew_2019_Jun_11_1541_1000,2019_Jun_11_1541,2IFCnew,,RAMA04,
2IFCnew,50,0,50,0,-1,3,No,5,-1,Correct Rejection,0.365530707408,False,True,stimulusRAMA04_2IFCnew_2019_Jun_11_1541_1001,stimulusRAMA04_2IFCnew_2019_Jun_11_1541_1002,2019_Jun_11_1541,2IFCnew,,RAMA04,
2IFCnew,51,0,51,0,0.766155479476,1,No,5,-1,Hit,0.692070426885,True,False,stimulusRAMA04_2IFCnew_2019_Jun_11_1541_1003,stimulusRAMA04_2IFCnew_2019_Jun_11_1541_1004,2019_Jun_11_1541,2IFCnew,,RAMA04,
2IFCnew,52,0,52,0,0.332775124814,2,Yes,5,-1,Correct Rejection,0.502070805058,False,True,stimulusRAMA04_2IFCnew_2019_Jun_11_1541_1005,stimulusRAMA04_2IFCnew_2019_Jun_11_1541_1006,2019_Jun_11_1541,2IFCnew,,RAMA04,
2IFCnew,53,0,53,0,0.899915345013,6,No,5,-1,Miss,0.568259784952,True,False,stimulusRAMA04_2IFCnew_2019_Jun_11_1541_1007,stimulusRAMA04_2IFCnew_2019_Jun_11_1541_1008,2019_Jun_11_1541,2IFCnew,,RAMA04,
2IFCnew,54,0,54,0,-1,4,No,5,-1,Miss,0.602348006796,True,False,stimulusRAMA04_2IFCnew_2019_Jun_11_1541_1009,stimulusRAMA04_2IFCnew_2019_Jun_11_1541_1010,2019_Jun_11_1541,2IFCnew,,RAMA04,
2IFCnew,55,0,55,0,-1,1,No,5,-1,Hit,0.50456488505,True,False,stimulusRAMA04_2IFCnew_2019_Jun_11_1541_1011,stimulusRAMA04_2IFCnew_2019_Jun_11_1541_1012,2019_Jun_11_1541,2IFCnew,,RAMA04,
2IFCnew,56,0,56,0,-1,2,No,5,-1,False Alarm,0.369208808057,False,True,stimulusRAMA04_2IFCnew_2019_Jun_11_1541_1013,stimulusRAMA04_2IFCnew_2019_Jun_11_1541_1014,2019_Jun_11_1541,2IFCnew,,RAMA04,
2IFCnew,57,0,57,0,-1,4,No,5,-1,Miss,0.63275607489,True,False,stimulusRAMA04_2IFCnew_2019_Jun_11_1541_1015,stimulusRAMA04_2IFCnew_2019_Jun_11_1541_1016,2019_Jun_11_1541,2IFCnew,,RAMA04,
2IFCnew,58,0,58,0,-1,2,No,5,-1,False Alarm,0.291921480093,False,True,stimulusRAMA04_2IFCnew_2019_Jun_11_1541_1017,stimulusRAMA04_2IFCnew_2019_Jun_11_1541_1018,2019_Jun_11_1541,2IFCnew,,RAMA04,
2IFCnew,59,0,59,0,-1,1,No,5,-1,Hit,0.466030837037,True,False,stimulusRAMA04_2IFCnew_2019_Jun_11_1541_1019,stimulusRAMA04_2IFCnew_2019_Jun_11_1541_1020,2019_Jun_11_1541,2IFCnew,,RAMA04,
2IFCnew,60,0,60,0,-1,1,No,5,-1,Hit,0.301922022365,True,False,stimulusRAMA04_2IFCnew_2019_Jun_11_1541_1021,stimulusRAMA04_2IFCnew_2019_Jun_11_1541_1022,2019_Jun_11_1541,2IFCnew,,RAMA04,
2IFCnew,61,0,61,0,-1,2,No,5,-1,False Alarm,0.302472977433,False,True,stimulusRAMA04_2IFCnew_2019_Jun_11_1541_1023,stimulusRAMA04_2IFCnew_2019_Jun_11_1541_1024,2019_Jun_11_1541,2IFCnew,,RAMA04,
2IFCnew,62,0,62,0,-1,1,No,5,-1,Hit,0.233282890636,True,False,stimulusRAMA04_2IFCnew_2019_Jun_11_1541_1025,stimulusRAMA04_2IFCnew_2019_Jun_11_1541_1026,2019_Jun_11_1541,2IFCnew,,RAMA04,
2IFCnew,63,0,63,0,-1,3,No,5,-1,Correct Rejection,0.666083962191,False,True,stimulusRAMA04_2IFCnew_2019_Jun_11_1541_1027,stimulusRAMA04_2IFCnew_2019_Jun_11_1541_1028,2019_Jun_11_1541,2IFCnew,,RAMA04,
2IFCnew,64,0,64,0,-1,3,No,5,-1,Correct Rejection,0.533921128605,False,True,stimulusRAMA04_2IFCnew_2019_Jun_11_1541_1029,stimulusRAMA04_2IFCnew_2019_Jun_11_1541_1030,2019_Jun_11_1541,2IFCnew,,RAMA04,
