Task,trials.thisRepN,trials.thisTrialN,trials.thisN,trials.thisIndex,signal_intensity,constant Value,response,time_response,signal_on_stimuluspos1,signal_on_stimuluspos2,stimulus_name_pos1,stimulus_name_pos2,date,expName,session,participant,
2IFC,0,0,0,0,9.7,-1,correct answer,0.46762212133,False,True,stimulusRAMA04_2IFC_2019_Jun_11_1449_1,stimulusRAMA04_2IFC_2019_Jun_11_1449_2,2019_Jun_11_1449,2IFC,,RAMA04,
2IFC,1,0,1,0,9.7,-1,correct answer,0.399466204923,False,True,stimulusRAMA04_2IFC_2019_Jun_11_1449_3,stimulusRAMA04_2IFC_2019_Jun_11_1449_4,2019_Jun_11_1449,2IFC,,RAMA04,
2IFC,2,0,2,0,9.7,-1,correct answer,0.301077524666,True,False,stimulusRAMA04_2IFC_2019_Jun_11_1449_5,stimulusRAMA04_2IFC_2019_Jun_11_1449_6,2019_Jun_11_1449,2IFC,,RAMA04,
2IFC,3,0,3,0,9.7,-1,correct answer,0.266993408091,True,False,stimulusRAMA04_2IFC_2019_Jun_11_1449_7,stimulusRAMA04_2IFC_2019_Jun_11_1449_8,2019_Jun_11_1449,2IFC,,RAMA04,
2IFC,4,0,4,0,9.7,-1,correct answer,0.367968952749,False,True,stimulusRAMA04_2IFC_2019_Jun_11_1449_9,stimulusRAMA04_2IFC_2019_Jun_11_1449_10,2019_Jun_11_1449,2IFC,,RAMA04,
2IFC,5,0,5,0,9.7,-1,correct answer,0.470326402225,False,True,stimulusRAMA04_2IFC_2019_Jun_11_1449_11,stimulusRAMA04_2IFC_2019_Jun_11_1449_12,2019_Jun_11_1449,2IFC,,RAMA04,
2IFC,6,0,6,0,9.7,-1,correct answer,0.534646567423,True,False,stimulusRAMA04_2IFC_2019_Jun_11_1449_13,stimulusRAMA04_2IFC_2019_Jun_11_1449_14,2019_Jun_11_1449,2IFC,,RAMA04,
2IFC,7,0,7,0,9.7,-1,correct answer,0.368364310358,True,False,stimulusRAMA04_2IFC_2019_Jun_11_1449_15,stimulusRAMA04_2IFC_2019_Jun_11_1449_16,2019_Jun_11_1449,2IFC,,RAMA04,
2IFC,8,0,8,0,9.7,-1,correct answer,0.300666976254,False,True,stimulusRAMA04_2IFC_2019_Jun_11_1449_17,stimulusRAMA04_2IFC_2019_Jun_11_1449_18,2019_Jun_11_1449,2IFC,,RAMA04,
2IFC,9,0,9,0,9.7,-1,correct answer,0.401131388731,False,True,stimulusRAMA04_2IFC_2019_Jun_11_1449_19,stimulusRAMA04_2IFC_2019_Jun_11_1449_20,2019_Jun_11_1449,2IFC,,RAMA04,
2IFC,10,0,10,0,9.7,-1,correct answer,0.402168843895,False,True,stimulusRAMA04_2IFC_2019_Jun_11_1449_21,stimulusRAMA04_2IFC_2019_Jun_11_1449_22,2019_Jun_11_1449,2IFC,,RAMA04,
2IFC,11,0,11,0,9.7,-1,correct answer,0.42989562219,False,True,stimulusRAMA04_2IFC_2019_Jun_11_1449_23,stimulusRAMA04_2IFC_2019_Jun_11_1449_24,2019_Jun_11_1449,2IFC,,RAMA04,
2IFC,12,0,12,0,9.7,-1,correct answer,0.434053243138,False,True,stimulusRAMA04_2IFC_2019_Jun_11_1449_25,stimulusRAMA04_2IFC_2019_Jun_11_1449_26,2019_Jun_11_1449,2IFC,,RAMA04,
2IFC,13,0,13,0,9.7,-1,correct answer,0.468359876424,False,True,stimulusRAMA04_2IFC_2019_Jun_11_1449_27,stimulusRAMA04_2IFC_2019_Jun_11_1449_28,2019_Jun_11_1449,2IFC,,RAMA04,
2IFC,14,0,14,0,9.7,-1,correct answer,0.499169460963,False,True,stimulusRAMA04_2IFC_2019_Jun_11_1449_29,stimulusRAMA04_2IFC_2019_Jun_11_1449_30,2019_Jun_11_1449,2IFC,,RAMA04,
2IFC,15,0,15,0,9.7,-1,correct answer,0.368035872001,True,False,stimulusRAMA04_2IFC_2019_Jun_11_1449_31,stimulusRAMA04_2IFC_2019_Jun_11_1449_32,2019_Jun_11_1449,2IFC,,RAMA04,
2IFC,16,0,16,0,9.7,-1,correct answer,0.467634438071,False,True,stimulusRAMA04_2IFC_2019_Jun_11_1449_33,stimulusRAMA04_2IFC_2019_Jun_11_1449_34,2019_Jun_11_1449,2IFC,,RAMA04,
2IFC,17,0,17,0,9.7,-1,correct answer,0.470648271963,False,True,stimulusRAMA04_2IFC_2019_Jun_11_1449_35,stimulusRAMA04_2IFC_2019_Jun_11_1449_36,2019_Jun_11_1449,2IFC,,RAMA04,
2IFC,18,0,18,0,9.7,-1,correct answer,0.500883499626,True,False,stimulusRAMA04_2IFC_2019_Jun_11_1449_37,stimulusRAMA04_2IFC_2019_Jun_11_1449_38,2019_Jun_11_1449,2IFC,,RAMA04,
2IFC,19,0,19,0,9.7,-1,correct answer,0.468674766831,False,True,stimulusRAMA04_2IFC_2019_Jun_11_1449_39,stimulusRAMA04_2IFC_2019_Jun_11_1449_40,2019_Jun_11_1449,2IFC,,RAMA04,
2IFC,20,0,20,0,9.7,-1,correct answer,0.572667429689,True,False,stimulusRAMA04_2IFC_2019_Jun_11_1449_41,stimulusRAMA04_2IFC_2019_Jun_11_1449_42,2019_Jun_11_1449,2IFC,,RAMA04,
2IFC,21,0,21,0,9.7,-1,wrong answer,0.533369762823,True,False,stimulusRAMA04_2IFC_2019_Jun_11_1449_43,stimulusRAMA04_2IFC_2019_Jun_11_1449_44,2019_Jun_11_1449,2IFC,,RAMA04,
2IFC,22,0,22,0,9.7,-1,correct answer,0.567933809478,True,False,stimulusRAMA04_2IFC_2019_Jun_11_1449_45,stimulusRAMA04_2IFC_2019_Jun_11_1449_46,2019_Jun_11_1449,2IFC,,RAMA04,
2IFC,23,0,23,0,9.7,-1,correct answer,0.467797015328,False,True,stimulusRAMA04_2IFC_2019_Jun_11_1449_47,stimulusRAMA04_2IFC_2019_Jun_11_1449_48,2019_Jun_11_1449,2IFC,,RAMA04,
2IFC,24,0,24,0,9.7,-1,correct answer,0.63577360427,True,False,stimulusRAMA04_2IFC_2019_Jun_11_1449_49,stimulusRAMA04_2IFC_2019_Jun_11_1449_50,2019_Jun_11_1449,2IFC,,RAMA04,
2IFC,25,0,25,0,9.7,-1,correct answer,0.639081390575,True,False,stimulusRAMA04_2IFC_2019_Jun_11_1449_51,stimulusRAMA04_2IFC_2019_Jun_11_1449_52,2019_Jun_11_1449,2IFC,,RAMA04,
2IFC,26,0,26,0,9.7,-1,correct answer,0.499255676288,True,False,stimulusRAMA04_2IFC_2019_Jun_11_1449_53,stimulusRAMA04_2IFC_2019_Jun_11_1449_54,2019_Jun_11_1449,2IFC,,RAMA04,
2IFC,27,0,27,0,9.7,-1,wrong answer,0.662417356856,False,True,stimulusRAMA04_2IFC_2019_Jun_11_1449_55,stimulusRAMA04_2IFC_2019_Jun_11_1449_56,2019_Jun_11_1449,2IFC,,RAMA04,
2IFC,28,0,28,0,9.7,-1,correct answer,0.500802621711,False,True,stimulusRAMA04_2IFC_2019_Jun_11_1449_57,stimulusRAMA04_2IFC_2019_Jun_11_1449_58,2019_Jun_11_1449,2IFC,,RAMA04,
2IFC,29,0,29,0,9.7,-1,correct answer,0.637806227896,True,False,stimulusRAMA04_2IFC_2019_Jun_11_1449_59,stimulusRAMA04_2IFC_2019_Jun_11_1449_60,2019_Jun_11_1449,2IFC,,RAMA04,
2IFC,30,0,30,0,9.7,-1,correct answer,0.569497587625,True,False,stimulusRAMA04_2IFC_2019_Jun_11_1449_61,stimulusRAMA04_2IFC_2019_Jun_11_1449_62,2019_Jun_11_1449,2IFC,,RAMA04,
2IFC,31,0,31,0,9.7,-1,correct answer,0.501097805798,True,False,stimulusRAMA04_2IFC_2019_Jun_11_1449_63,stimulusRAMA04_2IFC_2019_Jun_11_1449_64,2019_Jun_11_1449,2IFC,,RAMA04,
2IFC,32,0,32,0,9.7,-1,correct answer,0.566120008472,True,False,stimulusRAMA04_2IFC_2019_Jun_11_1449_65,stimulusRAMA04_2IFC_2019_Jun_11_1449_66,2019_Jun_11_1449,2IFC,,RAMA04,
2IFC,33,0,33,0,9.7,-1,correct answer,0.502083531581,True,False,stimulusRAMA04_2IFC_2019_Jun_11_1449_67,stimulusRAMA04_2IFC_2019_Jun_11_1449_68,2019_Jun_11_1449,2IFC,,RAMA04,
2IFC,34,0,34,0,9.7,-1,correct answer,0.501590874046,False,True,stimulusRAMA04_2IFC_2019_Jun_11_1449_69,stimulusRAMA04_2IFC_2019_Jun_11_1449_70,2019_Jun_11_1449,2IFC,,RAMA04,
2IFC,35,0,35,0,9.7,-1,correct answer,0.564566083252,True,False,stimulusRAMA04_2IFC_2019_Jun_11_1449_71,stimulusRAMA04_2IFC_2019_Jun_11_1449_72,2019_Jun_11_1449,2IFC,,RAMA04,
2IFC,36,0,36,0,9.7,-1,correct answer,0.501226307359,False,True,stimulusRAMA04_2IFC_2019_Jun_11_1449_73,stimulusRAMA04_2IFC_2019_Jun_11_1449_74,2019_Jun_11_1449,2IFC,,RAMA04,
2IFC,37,0,37,0,9.7,-1,correct answer,0.466991108842,True,False,stimulusRAMA04_2IFC_2019_Jun_11_1449_75,stimulusRAMA04_2IFC_2019_Jun_11_1449_76,2019_Jun_11_1449,2IFC,,RAMA04,
2IFC,38,0,38,0,9.7,-1,correct answer,0.569855585694,True,False,stimulusRAMA04_2IFC_2019_Jun_11_1449_77,stimulusRAMA04_2IFC_2019_Jun_11_1449_78,2019_Jun_11_1449,2IFC,,RAMA04,
2IFC,39,0,39,0,9.7,-1,correct answer,0.542548387311,True,False,stimulusRAMA04_2IFC_2019_Jun_11_1449_79,stimulusRAMA04_2IFC_2019_Jun_11_1449_80,2019_Jun_11_1449,2IFC,,RAMA04,
2IFC,40,0,40,0,9.7,-1,correct answer,0.438664519694,False,True,stimulusRAMA04_2IFC_2019_Jun_11_1449_81,stimulusRAMA04_2IFC_2019_Jun_11_1449_82,2019_Jun_11_1449,2IFC,,RAMA04,
2IFC,41,0,41,0,9.7,-1,correct answer,0.466574813705,False,True,stimulusRAMA04_2IFC_2019_Jun_11_1449_83,stimulusRAMA04_2IFC_2019_Jun_11_1449_84,2019_Jun_11_1449,2IFC,,RAMA04,
2IFC,42,0,42,0,9.7,-1,correct answer,0.564716754481,False,True,stimulusRAMA04_2IFC_2019_Jun_11_1449_85,stimulusRAMA04_2IFC_2019_Jun_11_1449_86,2019_Jun_11_1449,2IFC,,RAMA04,
2IFC,43,0,43,0,9.7,-1,correct answer,0.701227703132,True,False,stimulusRAMA04_2IFC_2019_Jun_11_1449_87,stimulusRAMA04_2IFC_2019_Jun_11_1449_88,2019_Jun_11_1449,2IFC,,RAMA04,
2IFC,44,0,44,0,9.7,-1,correct answer,0.436992767733,False,True,stimulusRAMA04_2IFC_2019_Jun_11_1449_89,stimulusRAMA04_2IFC_2019_Jun_11_1449_90,2019_Jun_11_1449,2IFC,,RAMA04,
2IFC,45,0,45,0,9.7,-1,correct answer,0.569731189404,True,False,stimulusRAMA04_2IFC_2019_Jun_11_1449_91,stimulusRAMA04_2IFC_2019_Jun_11_1449_92,2019_Jun_11_1449,2IFC,,RAMA04,
2IFC,46,0,46,0,9.7,-1,correct answer,0.50002504373,False,True,stimulusRAMA04_2IFC_2019_Jun_11_1449_93,stimulusRAMA04_2IFC_2019_Jun_11_1449_94,2019_Jun_11_1449,2IFC,,RAMA04,
2IFC,47,0,47,0,9.7,-1,wrong answer,0.495742615778,False,True,stimulusRAMA04_2IFC_2019_Jun_11_1449_95,stimulusRAMA04_2IFC_2019_Jun_11_1449_96,2019_Jun_11_1449,2IFC,,RAMA04,
2IFC,48,0,48,0,9.7,-1,correct answer,0.369214145001,True,False,stimulusRAMA04_2IFC_2019_Jun_11_1449_97,stimulusRAMA04_2IFC_2019_Jun_11_1449_98,2019_Jun_11_1449,2IFC,,RAMA04,
2IFC,49,0,49,0,9.7,-1,correct answer,0.466968528926,True,False,stimulusRAMA04_2IFC_2019_Jun_11_1449_99,stimulusRAMA04_2IFC_2019_Jun_11_1449_100,2019_Jun_11_1449,2IFC,,RAMA04,
2IFC,50,0,50,0,9.7,-1,correct answer,0.533358677756,False,True,stimulusRAMA04_2IFC_2019_Jun_11_1449_101,stimulusRAMA04_2IFC_2019_Jun_11_1449_102,2019_Jun_11_1449,2IFC,,RAMA04,
2IFC,51,0,51,0,9.7,-1,correct answer,0.508935169782,True,False,stimulusRAMA04_2IFC_2019_Jun_11_1449_103,stimulusRAMA04_2IFC_2019_Jun_11_1449_104,2019_Jun_11_1449,2IFC,,RAMA04,
2IFC,52,0,52,0,9.7,-1,correct answer,0.270987220574,True,False,stimulusRAMA04_2IFC_2019_Jun_11_1449_105,stimulusRAMA04_2IFC_2019_Jun_11_1449_106,2019_Jun_11_1449,2IFC,,RAMA04,
2IFC,53,0,53,0,9.7,-1,correct answer,0.4998029368,False,True,stimulusRAMA04_2IFC_2019_Jun_11_1449_107,stimulusRAMA04_2IFC_2019_Jun_11_1449_108,2019_Jun_11_1449,2IFC,,RAMA04,
2IFC,54,0,54,0,9.7,-1,correct answer,0.601339700632,False,True,stimulusRAMA04_2IFC_2019_Jun_11_1449_109,stimulusRAMA04_2IFC_2019_Jun_11_1449_110,2019_Jun_11_1449,2IFC,,RAMA04,
2IFC,55,0,55,0,9.7,-1,correct answer,0.634248417802,True,False,stimulusRAMA04_2IFC_2019_Jun_11_1449_111,stimulusRAMA04_2IFC_2019_Jun_11_1449_112,2019_Jun_11_1449,2IFC,,RAMA04,
2IFC,56,0,56,0,9.7,-1,correct answer,0.50498487521,True,False,stimulusRAMA04_2IFC_2019_Jun_11_1449_113,stimulusRAMA04_2IFC_2019_Jun_11_1449_114,2019_Jun_11_1449,2IFC,,RAMA04,
2IFC,57,0,57,0,9.7,-1,correct answer,0.402387255337,False,True,stimulusRAMA04_2IFC_2019_Jun_11_1449_115,stimulusRAMA04_2IFC_2019_Jun_11_1449_116,2019_Jun_11_1449,2IFC,,RAMA04,
2IFC,58,0,58,0,9.7,-1,correct answer,0.568465059157,False,True,stimulusRAMA04_2IFC_2019_Jun_11_1449_117,stimulusRAMA04_2IFC_2019_Jun_11_1449_118,2019_Jun_11_1449,2IFC,,RAMA04,
2IFC,59,0,59,0,9.7,-1,correct answer,0.533533571288,False,True,stimulusRAMA04_2IFC_2019_Jun_11_1449_119,stimulusRAMA04_2IFC_2019_Jun_11_1449_120,2019_Jun_11_1449,2IFC,,RAMA04,
2IFC,60,0,60,0,9.7,-1,correct answer,0.535674169194,False,True,stimulusRAMA04_2IFC_2019_Jun_11_1449_121,stimulusRAMA04_2IFC_2019_Jun_11_1449_122,2019_Jun_11_1449,2IFC,,RAMA04,
2IFC,61,0,61,0,9.7,-1,correct answer,0.433734657709,True,False,stimulusRAMA04_2IFC_2019_Jun_11_1449_123,stimulusRAMA04_2IFC_2019_Jun_11_1449_124,2019_Jun_11_1449,2IFC,,RAMA04,
2IFC,62,0,62,0,9.7,-1,correct answer,0.502303175163,True,False,stimulusRAMA04_2IFC_2019_Jun_11_1449_125,stimulusRAMA04_2IFC_2019_Jun_11_1449_126,2019_Jun_11_1449,2IFC,,RAMA04,
2IFC,63,0,63,0,9.7,-1,wrong answer,0.597842241172,True,False,stimulusRAMA04_2IFC_2019_Jun_11_1449_127,stimulusRAMA04_2IFC_2019_Jun_11_1449_128,2019_Jun_11_1449,2IFC,,RAMA04,
2IFC,64,0,64,0,9.7,-1,correct answer,0.468896052334,False,True,stimulusRAMA04_2IFC_2019_Jun_11_1449_129,stimulusRAMA04_2IFC_2019_Jun_11_1449_130,2019_Jun_11_1449,2IFC,,RAMA04,
2IFC,65,0,65,0,9.7,-1,correct answer,0.567458394915,False,True,stimulusRAMA04_2IFC_2019_Jun_11_1449_131,stimulusRAMA04_2IFC_2019_Jun_11_1449_132,2019_Jun_11_1449,2IFC,,RAMA04,
2IFC,66,0,66,0,9.7,-1,correct answer,0.600037442055,False,True,stimulusRAMA04_2IFC_2019_Jun_11_1449_133,stimulusRAMA04_2IFC_2019_Jun_11_1449_134,2019_Jun_11_1449,2IFC,,RAMA04,
2IFC,67,0,67,0,9.7,-1,correct answer,0.329596661031,True,False,stimulusRAMA04_2IFC_2019_Jun_11_1449_135,stimulusRAMA04_2IFC_2019_Jun_11_1449_136,2019_Jun_11_1449,2IFC,,RAMA04,
2IFC,68,0,68,0,9.7,-1,correct answer,0.501677499618,True,False,stimulusRAMA04_2IFC_2019_Jun_11_1449_137,stimulusRAMA04_2IFC_2019_Jun_11_1449_138,2019_Jun_11_1449,2IFC,,RAMA04,
2IFC,69,0,69,0,9.7,-1,correct answer,0.567254763097,True,False,stimulusRAMA04_2IFC_2019_Jun_11_1449_139,stimulusRAMA04_2IFC_2019_Jun_11_1449_140,2019_Jun_11_1449,2IFC,,RAMA04,
2IFC,70,0,70,0,9.7,-1,correct answer,0.566760463174,True,False,stimulusRAMA04_2IFC_2019_Jun_11_1449_141,stimulusRAMA04_2IFC_2019_Jun_11_1449_142,2019_Jun_11_1449,2IFC,,RAMA04,
2IFC,71,0,71,0,9.7,-1,correct answer,0.467344180681,False,True,stimulusRAMA04_2IFC_2019_Jun_11_1449_143,stimulusRAMA04_2IFC_2019_Jun_11_1449_144,2019_Jun_11_1449,2IFC,,RAMA04,
2IFC,72,0,72,0,9.7,-1,correct answer,0.535218460951,True,False,stimulusRAMA04_2IFC_2019_Jun_11_1449_145,stimulusRAMA04_2IFC_2019_Jun_11_1449_146,2019_Jun_11_1449,2IFC,,RAMA04,
2IFC,73,0,73,0,9.7,-1,correct answer,0.466215994209,False,True,stimulusRAMA04_2IFC_2019_Jun_11_1449_147,stimulusRAMA04_2IFC_2019_Jun_11_1449_148,2019_Jun_11_1449,2IFC,,RAMA04,
2IFC,74,0,74,0,9.7,-1,correct answer,0.601459580939,True,False,stimulusRAMA04_2IFC_2019_Jun_11_1449_149,stimulusRAMA04_2IFC_2019_Jun_11_1449_150,2019_Jun_11_1449,2IFC,,RAMA04,
2IFC,75,0,75,0,9.7,-1,correct answer,0.567793402355,False,True,stimulusRAMA04_2IFC_2019_Jun_11_1449_151,stimulusRAMA04_2IFC_2019_Jun_11_1449_152,2019_Jun_11_1449,2IFC,,RAMA04,
2IFC,76,0,76,0,9.7,-1,correct answer,0.468687494285,False,True,stimulusRAMA04_2IFC_2019_Jun_11_1449_153,stimulusRAMA04_2IFC_2019_Jun_11_1449_154,2019_Jun_11_1449,2IFC,,RAMA04,
2IFC,77,0,77,0,9.7,-1,correct answer,0.602248243522,False,True,stimulusRAMA04_2IFC_2019_Jun_11_1449_155,stimulusRAMA04_2IFC_2019_Jun_11_1449_156,2019_Jun_11_1449,2IFC,,RAMA04,
2IFC,78,0,78,0,9.7,-1,correct answer,0.434211303946,True,False,stimulusRAMA04_2IFC_2019_Jun_11_1449_157,stimulusRAMA04_2IFC_2019_Jun_11_1449_158,2019_Jun_11_1449,2IFC,,RAMA04,
2IFC,79,0,79,0,9.7,-1,correct answer,0.533099622,True,False,stimulusRAMA04_2IFC_2019_Jun_11_1449_159,stimulusRAMA04_2IFC_2019_Jun_11_1449_160,2019_Jun_11_1449,2IFC,,RAMA04,
2IFC,80,0,80,0,9.7,-1,correct answer,0.501917670481,True,False,stimulusRAMA04_2IFC_2019_Jun_11_1449_161,stimulusRAMA04_2IFC_2019_Jun_11_1449_162,2019_Jun_11_1449,2IFC,,RAMA04,
2IFC,81,0,81,0,9.7,-1,correct answer,0.631544547621,True,False,stimulusRAMA04_2IFC_2019_Jun_11_1449_163,stimulusRAMA04_2IFC_2019_Jun_11_1449_164,2019_Jun_11_1449,2IFC,,RAMA04,
2IFC,82,0,82,0,9.7,-1,correct answer,0.444590782281,False,True,stimulusRAMA04_2IFC_2019_Jun_11_1449_165,stimulusRAMA04_2IFC_2019_Jun_11_1449_166,2019_Jun_11_1449,2IFC,,RAMA04,
2IFC,83,0,83,0,9.7,-1,correct answer,0.534219186753,True,False,stimulusRAMA04_2IFC_2019_Jun_11_1449_167,stimulusRAMA04_2IFC_2019_Jun_11_1449_168,2019_Jun_11_1449,2IFC,,RAMA04,
2IFC,84,0,84,0,9.7,-1,correct answer,0.498570471536,False,True,stimulusRAMA04_2IFC_2019_Jun_11_1449_169,stimulusRAMA04_2IFC_2019_Jun_11_1449_170,2019_Jun_11_1449,2IFC,,RAMA04,
2IFC,85,0,85,0,9.7,-1,correct answer,0.41143532563,True,False,stimulusRAMA04_2IFC_2019_Jun_11_1449_171,stimulusRAMA04_2IFC_2019_Jun_11_1449_172,2019_Jun_11_1449,2IFC,,RAMA04,
2IFC,86,0,86,0,9.7,-1,correct answer,0.502420181409,True,False,stimulusRAMA04_2IFC_2019_Jun_11_1449_173,stimulusRAMA04_2IFC_2019_Jun_11_1449_174,2019_Jun_11_1449,2IFC,,RAMA04,
2IFC,87,0,87,0,9.7,-1,correct answer,0.533198974561,False,True,stimulusRAMA04_2IFC_2019_Jun_11_1449_175,stimulusRAMA04_2IFC_2019_Jun_11_1449_176,2019_Jun_11_1449,2IFC,,RAMA04,
2IFC,88,0,88,0,9.7,-1,correct answer,0.428552719299,True,False,stimulusRAMA04_2IFC_2019_Jun_11_1449_177,stimulusRAMA04_2IFC_2019_Jun_11_1449_178,2019_Jun_11_1449,2IFC,,RAMA04,
2IFC,89,0,89,0,9.7,-1,correct answer,0.469965940807,False,True,stimulusRAMA04_2IFC_2019_Jun_11_1449_179,stimulusRAMA04_2IFC_2019_Jun_11_1449_180,2019_Jun_11_1449,2IFC,,RAMA04,
2IFC,90,0,90,0,9.7,-1,correct answer,0.567655047402,False,True,stimulusRAMA04_2IFC_2019_Jun_11_1449_181,stimulusRAMA04_2IFC_2019_Jun_11_1449_182,2019_Jun_11_1449,2IFC,,RAMA04,
2IFC,91,0,91,0,9.7,-1,correct answer,0.532455061097,False,True,stimulusRAMA04_2IFC_2019_Jun_11_1449_183,stimulusRAMA04_2IFC_2019_Jun_11_1449_184,2019_Jun_11_1449,2IFC,,RAMA04,
2IFC,92,0,92,0,9.7,-1,correct answer,0.496004545595,False,True,stimulusRAMA04_2IFC_2019_Jun_11_1449_185,stimulusRAMA04_2IFC_2019_Jun_11_1449_186,2019_Jun_11_1449,2IFC,,RAMA04,
2IFC,93,0,93,0,9.7,-1,wrong answer,0.567717861384,True,False,stimulusRAMA04_2IFC_2019_Jun_11_1449_187,stimulusRAMA04_2IFC_2019_Jun_11_1449_188,2019_Jun_11_1449,2IFC,,RAMA04,
2IFC,94,0,94,0,9.7,-1,correct answer,0.438902637456,False,True,stimulusRAMA04_2IFC_2019_Jun_11_1449_189,stimulusRAMA04_2IFC_2019_Jun_11_1449_190,2019_Jun_11_1449,2IFC,,RAMA04,
2IFC,95,0,95,0,9.7,-1,correct answer,0.466803899035,True,False,stimulusRAMA04_2IFC_2019_Jun_11_1449_191,stimulusRAMA04_2IFC_2019_Jun_11_1449_192,2019_Jun_11_1449,2IFC,,RAMA04,
2IFC,96,0,96,0,9.7,-1,correct answer,0.296108250041,True,False,stimulusRAMA04_2IFC_2019_Jun_11_1449_193,stimulusRAMA04_2IFC_2019_Jun_11_1449_194,2019_Jun_11_1449,2IFC,,RAMA04,
2IFC,97,0,97,0,9.7,-1,correct answer,0.601695235353,False,True,stimulusRAMA04_2IFC_2019_Jun_11_1449_195,stimulusRAMA04_2IFC_2019_Jun_11_1449_196,2019_Jun_11_1449,2IFC,,RAMA04,
2IFC,98,0,98,0,9.7,-1,correct answer,0.60169687774,False,True,stimulusRAMA04_2IFC_2019_Jun_11_1449_197,stimulusRAMA04_2IFC_2019_Jun_11_1449_198,2019_Jun_11_1449,2IFC,,RAMA04,
2IFC,99,0,99,0,9.7,-1,correct answer,0.599660558626,False,True,stimulusRAMA04_2IFC_2019_Jun_11_1449_199,stimulusRAMA04_2IFC_2019_Jun_11_1449_200,2019_Jun_11_1449,2IFC,,RAMA04,
2IFC,0,0,0,0,8.2,-1,wrong answer,0.568148526829,True,False,stimulusRAMA04_2IFC_2019_Jun_11_1449_201,stimulusRAMA04_2IFC_2019_Jun_11_1449_202,2019_Jun_11_1449,2IFC,,RAMA04,
2IFC,1,0,1,0,8.2,-1,correct answer,0.567306902725,False,True,stimulusRAMA04_2IFC_2019_Jun_11_1449_203,stimulusRAMA04_2IFC_2019_Jun_11_1449_204,2019_Jun_11_1449,2IFC,,RAMA04,
2IFC,2,0,2,0,8.2,-1,correct answer,0.468688725494,True,False,stimulusRAMA04_2IFC_2019_Jun_11_1449_205,stimulusRAMA04_2IFC_2019_Jun_11_1449_206,2019_Jun_11_1449,2IFC,,RAMA04,
2IFC,3,0,3,0,8.2,-1,correct answer,0.504240140785,True,False,stimulusRAMA04_2IFC_2019_Jun_11_1449_207,stimulusRAMA04_2IFC_2019_Jun_11_1449_208,2019_Jun_11_1449,2IFC,,RAMA04,
2IFC,4,0,4,0,8.2,-1,correct answer,0.400861247908,False,True,stimulusRAMA04_2IFC_2019_Jun_11_1449_209,stimulusRAMA04_2IFC_2019_Jun_11_1449_210,2019_Jun_11_1449,2IFC,,RAMA04,
2IFC,5,0,5,0,8.2,-1,correct answer,0.46757860342,True,False,stimulusRAMA04_2IFC_2019_Jun_11_1449_211,stimulusRAMA04_2IFC_2019_Jun_11_1449_212,2019_Jun_11_1449,2IFC,,RAMA04,
2IFC,6,0,6,0,8.2,-1,correct answer,0.667589442339,False,True,stimulusRAMA04_2IFC_2019_Jun_11_1449_213,stimulusRAMA04_2IFC_2019_Jun_11_1449_214,2019_Jun_11_1449,2IFC,,RAMA04,
2IFC,7,0,7,0,8.2,-1,correct answer,0.501135576051,False,True,stimulusRAMA04_2IFC_2019_Jun_11_1449_215,stimulusRAMA04_2IFC_2019_Jun_11_1449_216,2019_Jun_11_1449,2IFC,,RAMA04,
2IFC,8,0,8,0,8.2,-1,correct answer,0.502744103316,True,False,stimulusRAMA04_2IFC_2019_Jun_11_1449_217,stimulusRAMA04_2IFC_2019_Jun_11_1449_218,2019_Jun_11_1449,2IFC,,RAMA04,
2IFC,9,0,9,0,8.2,-1,wrong answer,0.708616337739,False,True,stimulusRAMA04_2IFC_2019_Jun_11_1449_219,stimulusRAMA04_2IFC_2019_Jun_11_1449_220,2019_Jun_11_1449,2IFC,,RAMA04,
2IFC,10,0,10,0,8.2,-1,correct answer,0.604271014221,True,False,stimulusRAMA04_2IFC_2019_Jun_11_1449_221,stimulusRAMA04_2IFC_2019_Jun_11_1449_222,2019_Jun_11_1449,2IFC,,RAMA04,
2IFC,11,0,11,0,8.2,-1,correct answer,0.70004984038,True,False,stimulusRAMA04_2IFC_2019_Jun_11_1449_223,stimulusRAMA04_2IFC_2019_Jun_11_1449_224,2019_Jun_11_1449,2IFC,,RAMA04,
2IFC,12,0,12,0,8.2,-1,correct answer,0.667351734824,True,False,stimulusRAMA04_2IFC_2019_Jun_11_1449_225,stimulusRAMA04_2IFC_2019_Jun_11_1449_226,2019_Jun_11_1449,2IFC,,RAMA04,
2IFC,13,0,13,0,8.2,-1,correct answer,0.499397315085,False,True,stimulusRAMA04_2IFC_2019_Jun_11_1449_227,stimulusRAMA04_2IFC_2019_Jun_11_1449_228,2019_Jun_11_1449,2IFC,,RAMA04,
2IFC,14,0,14,0,8.2,-1,correct answer,0.569046805613,False,True,stimulusRAMA04_2IFC_2019_Jun_11_1449_229,stimulusRAMA04_2IFC_2019_Jun_11_1449_230,2019_Jun_11_1449,2IFC,,RAMA04,
2IFC,15,0,15,0,8.2,-1,correct answer,0.601604914758,False,True,stimulusRAMA04_2IFC_2019_Jun_11_1449_231,stimulusRAMA04_2IFC_2019_Jun_11_1449_232,2019_Jun_11_1449,2IFC,,RAMA04,
2IFC,16,0,16,0,8.2,-1,correct answer,0.472742477898,False,True,stimulusRAMA04_2IFC_2019_Jun_11_1449_233,stimulusRAMA04_2IFC_2019_Jun_11_1449_234,2019_Jun_11_1449,2IFC,,RAMA04,
2IFC,17,0,17,0,8.2,-1,correct answer,0.600241895299,True,False,stimulusRAMA04_2IFC_2019_Jun_11_1449_235,stimulusRAMA04_2IFC_2019_Jun_11_1449_236,2019_Jun_11_1449,2IFC,,RAMA04,
2IFC,18,0,18,0,8.2,-1,wrong answer,0.499845223036,True,False,stimulusRAMA04_2IFC_2019_Jun_11_1449_237,stimulusRAMA04_2IFC_2019_Jun_11_1449_238,2019_Jun_11_1449,2IFC,,RAMA04,
2IFC,19,0,19,0,8.2,-1,correct answer,0.501843771432,False,True,stimulusRAMA04_2IFC_2019_Jun_11_1449_239,stimulusRAMA04_2IFC_2019_Jun_11_1449_240,2019_Jun_11_1449,2IFC,,RAMA04,
2IFC,20,0,20,0,8.2,-1,correct answer,0.602205546573,False,True,stimulusRAMA04_2IFC_2019_Jun_11_1449_241,stimulusRAMA04_2IFC_2019_Jun_11_1449_242,2019_Jun_11_1449,2IFC,,RAMA04,
2IFC,21,0,21,0,8.2,-1,correct answer,0.566647151951,False,True,stimulusRAMA04_2IFC_2019_Jun_11_1449_243,stimulusRAMA04_2IFC_2019_Jun_11_1449_244,2019_Jun_11_1449,2IFC,,RAMA04,
2IFC,22,0,22,0,8.2,-1,correct answer,0.533627586905,False,True,stimulusRAMA04_2IFC_2019_Jun_11_1449_245,stimulusRAMA04_2IFC_2019_Jun_11_1449_246,2019_Jun_11_1449,2IFC,,RAMA04,
2IFC,23,0,23,0,8.2,-1,correct answer,0.602507709991,True,False,stimulusRAMA04_2IFC_2019_Jun_11_1449_247,stimulusRAMA04_2IFC_2019_Jun_11_1449_248,2019_Jun_11_1449,2IFC,,RAMA04,
2IFC,24,0,24,0,8.2,-1,correct answer,0.602157101966,False,True,stimulusRAMA04_2IFC_2019_Jun_11_1449_249,stimulusRAMA04_2IFC_2019_Jun_11_1449_250,2019_Jun_11_1449,2IFC,,RAMA04,
2IFC,25,0,25,0,8.2,-1,correct answer,0.435529574286,False,True,stimulusRAMA04_2IFC_2019_Jun_11_1449_251,stimulusRAMA04_2IFC_2019_Jun_11_1449_252,2019_Jun_11_1449,2IFC,,RAMA04,
2IFC,26,0,26,0,8.2,-1,correct answer,0.499681414571,True,False,stimulusRAMA04_2IFC_2019_Jun_11_1449_253,stimulusRAMA04_2IFC_2019_Jun_11_1449_254,2019_Jun_11_1449,2IFC,,RAMA04,
2IFC,27,0,27,0,8.2,-1,correct answer,0.400330409408,False,True,stimulusRAMA04_2IFC_2019_Jun_11_1449_255,stimulusRAMA04_2IFC_2019_Jun_11_1449_256,2019_Jun_11_1449,2IFC,,RAMA04,
2IFC,28,0,28,0,8.2,-1,correct answer,0.33338273596,True,False,stimulusRAMA04_2IFC_2019_Jun_11_1449_257,stimulusRAMA04_2IFC_2019_Jun_11_1449_258,2019_Jun_11_1449,2IFC,,RAMA04,
2IFC,29,0,29,0,8.2,-1,correct answer,0.442250657827,True,False,stimulusRAMA04_2IFC_2019_Jun_11_1449_259,stimulusRAMA04_2IFC_2019_Jun_11_1449_260,2019_Jun_11_1449,2IFC,,RAMA04,
2IFC,30,0,30,0,8.2,-1,correct answer,0.467570803128,True,False,stimulusRAMA04_2IFC_2019_Jun_11_1449_261,stimulusRAMA04_2IFC_2019_Jun_11_1449_262,2019_Jun_11_1449,2IFC,,RAMA04,
2IFC,31,0,31,0,8.2,-1,correct answer,0.402370833326,False,True,stimulusRAMA04_2IFC_2019_Jun_11_1449_263,stimulusRAMA04_2IFC_2019_Jun_11_1449_264,2019_Jun_11_1449,2IFC,,RAMA04,
2IFC,32,0,32,0,8.2,-1,wrong answer,0.400855089538,True,False,stimulusRAMA04_2IFC_2019_Jun_11_1449_265,stimulusRAMA04_2IFC_2019_Jun_11_1449_266,2019_Jun_11_1449,2IFC,,RAMA04,
2IFC,33,0,33,0,8.2,-1,correct answer,0.568238846958,True,False,stimulusRAMA04_2IFC_2019_Jun_11_1449_267,stimulusRAMA04_2IFC_2019_Jun_11_1449_268,2019_Jun_11_1449,2IFC,,RAMA04,
2IFC,34,0,34,0,8.2,-1,correct answer,0.402994045056,False,True,stimulusRAMA04_2IFC_2019_Jun_11_1449_269,stimulusRAMA04_2IFC_2019_Jun_11_1449_270,2019_Jun_11_1449,2IFC,,RAMA04,
2IFC,35,0,35,0,8.2,-1,correct answer,0.337822403293,True,False,stimulusRAMA04_2IFC_2019_Jun_11_1449_271,stimulusRAMA04_2IFC_2019_Jun_11_1449_272,2019_Jun_11_1449,2IFC,,RAMA04,
2IFC,36,0,36,0,8.2,-1,correct answer,0.399530250579,False,True,stimulusRAMA04_2IFC_2019_Jun_11_1449_273,stimulusRAMA04_2IFC_2019_Jun_11_1449_274,2019_Jun_11_1449,2IFC,,RAMA04,
2IFC,37,0,37,0,8.2,-1,correct answer,0.402229604777,False,True,stimulusRAMA04_2IFC_2019_Jun_11_1449_275,stimulusRAMA04_2IFC_2019_Jun_11_1449_276,2019_Jun_11_1449,2IFC,,RAMA04,
2IFC,38,0,38,0,8.2,-1,correct answer,0.534558299463,False,True,stimulusRAMA04_2IFC_2019_Jun_11_1449_277,stimulusRAMA04_2IFC_2019_Jun_11_1449_278,2019_Jun_11_1449,2IFC,,RAMA04,
2IFC,39,0,39,0,8.2,-1,correct answer,0.600853611715,False,True,stimulusRAMA04_2IFC_2019_Jun_11_1449_279,stimulusRAMA04_2IFC_2019_Jun_11_1449_280,2019_Jun_11_1449,2IFC,,RAMA04,
2IFC,40,0,40,0,8.2,-1,correct answer,0.568458900787,True,False,stimulusRAMA04_2IFC_2019_Jun_11_1449_281,stimulusRAMA04_2IFC_2019_Jun_11_1449_282,2019_Jun_11_1449,2IFC,,RAMA04,
2IFC,41,0,41,0,8.2,-1,correct answer,0.531204531435,True,False,stimulusRAMA04_2IFC_2019_Jun_11_1449_283,stimulusRAMA04_2IFC_2019_Jun_11_1449_284,2019_Jun_11_1449,2IFC,,RAMA04,
2IFC,42,0,42,0,8.2,-1,correct answer,0.502235434484,False,True,stimulusRAMA04_2IFC_2019_Jun_11_1449_285,stimulusRAMA04_2IFC_2019_Jun_11_1449_286,2019_Jun_11_1449,2IFC,,RAMA04,
2IFC,43,0,43,0,8.2,-1,correct answer,0.60082979966,True,False,stimulusRAMA04_2IFC_2019_Jun_11_1449_287,stimulusRAMA04_2IFC_2019_Jun_11_1449_288,2019_Jun_11_1449,2IFC,,RAMA04,
2IFC,44,0,44,0,8.2,-1,correct answer,0.400123082101,False,True,stimulusRAMA04_2IFC_2019_Jun_11_1449_289,stimulusRAMA04_2IFC_2019_Jun_11_1449_290,2019_Jun_11_1449,2IFC,,RAMA04,
2IFC,45,0,45,0,8.2,-1,wrong answer,0.601795819588,False,True,stimulusRAMA04_2IFC_2019_Jun_11_1449_291,stimulusRAMA04_2IFC_2019_Jun_11_1449_292,2019_Jun_11_1449,2IFC,,RAMA04,
2IFC,46,0,46,0,8.2,-1,correct answer,0.468031848781,True,False,stimulusRAMA04_2IFC_2019_Jun_11_1449_293,stimulusRAMA04_2IFC_2019_Jun_11_1449_294,2019_Jun_11_1449,2IFC,,RAMA04,
2IFC,47,0,47,0,8.2,-1,correct answer,0.598829198629,True,False,stimulusRAMA04_2IFC_2019_Jun_11_1449_295,stimulusRAMA04_2IFC_2019_Jun_11_1449_296,2019_Jun_11_1449,2IFC,,RAMA04,
2IFC,48,0,48,0,8.2,-1,no answer,-1,True,False,stimulusRAMA04_2IFC_2019_Jun_11_1449_297,stimulusRAMA04_2IFC_2019_Jun_11_1449_298,2019_Jun_11_1449,2IFC,,RAMA04,
2IFC,49,0,49,0,8.2,-1,correct answer,0.575175057631,True,False,stimulusRAMA04_2IFC_2019_Jun_11_1449_299,stimulusRAMA04_2IFC_2019_Jun_11_1449_300,2019_Jun_11_1449,2IFC,,RAMA04,
2IFC,50,0,50,0,8.2,-1,correct answer,0.600042779464,False,True,stimulusRAMA04_2IFC_2019_Jun_11_1449_301,stimulusRAMA04_2IFC_2019_Jun_11_1449_302,2019_Jun_11_1449,2IFC,,RAMA04,
2IFC,51,0,51,0,8.2,-1,correct answer,0.734351547435,True,False,stimulusRAMA04_2IFC_2019_Jun_11_1449_303,stimulusRAMA04_2IFC_2019_Jun_11_1449_304,2019_Jun_11_1449,2IFC,,RAMA04,
2IFC,52,0,52,0,8.2,-1,correct answer,0.805809502024,True,False,stimulusRAMA04_2IFC_2019_Jun_11_1449_305,stimulusRAMA04_2IFC_2019_Jun_11_1449_306,2019_Jun_11_1449,2IFC,,RAMA04,
2IFC,53,0,53,0,8.2,-1,correct answer,0.434469538741,True,False,stimulusRAMA04_2IFC_2019_Jun_11_1449_307,stimulusRAMA04_2IFC_2019_Jun_11_1449_308,2019_Jun_11_1449,2IFC,,RAMA04,
2IFC,54,0,54,0,8.2,-1,correct answer,0.433028514963,True,False,stimulusRAMA04_2IFC_2019_Jun_11_1449_309,stimulusRAMA04_2IFC_2019_Jun_11_1449_310,2019_Jun_11_1449,2IFC,,RAMA04,
2IFC,55,0,55,0,8.2,-1,correct answer,0.535664316267,True,False,stimulusRAMA04_2IFC_2019_Jun_11_1449_311,stimulusRAMA04_2IFC_2019_Jun_11_1449_312,2019_Jun_11_1449,2IFC,,RAMA04,
2IFC,56,0,56,0,8.2,-1,correct answer,0.468753592111,True,False,stimulusRAMA04_2IFC_2019_Jun_11_1449_313,stimulusRAMA04_2IFC_2019_Jun_11_1449_314,2019_Jun_11_1449,2IFC,,RAMA04,
2IFC,57,0,57,0,8.2,-1,correct answer,0.40999553306,False,True,stimulusRAMA04_2IFC_2019_Jun_11_1449_315,stimulusRAMA04_2IFC_2019_Jun_11_1449_316,2019_Jun_11_1449,2IFC,,RAMA04,
2IFC,58,0,58,0,8.2,-1,correct answer,0.533455977682,True,False,stimulusRAMA04_2IFC_2019_Jun_11_1449_317,stimulusRAMA04_2IFC_2019_Jun_11_1449_318,2019_Jun_11_1449,2IFC,,RAMA04,
2IFC,59,0,59,0,8.2,-1,correct answer,0.468828312121,True,False,stimulusRAMA04_2IFC_2019_Jun_11_1449_319,stimulusRAMA04_2IFC_2019_Jun_11_1449_320,2019_Jun_11_1449,2IFC,,RAMA04,
2IFC,60,0,60,0,8.2,-1,correct answer,0.432827346493,True,False,stimulusRAMA04_2IFC_2019_Jun_11_1449_321,stimulusRAMA04_2IFC_2019_Jun_11_1449_322,2019_Jun_11_1449,2IFC,,RAMA04,
2IFC,61,0,61,0,8.2,-1,correct answer,0.33353422815,True,False,stimulusRAMA04_2IFC_2019_Jun_11_1449_323,stimulusRAMA04_2IFC_2019_Jun_11_1449_324,2019_Jun_11_1449,2IFC,,RAMA04,
2IFC,62,0,62,0,8.2,-1,correct answer,0.436082582921,True,False,stimulusRAMA04_2IFC_2019_Jun_11_1449_325,stimulusRAMA04_2IFC_2019_Jun_11_1449_326,2019_Jun_11_1449,2IFC,,RAMA04,
2IFC,63,0,63,0,8.2,-1,correct answer,0.474540268071,True,False,stimulusRAMA04_2IFC_2019_Jun_11_1449_327,stimulusRAMA04_2IFC_2019_Jun_11_1449_328,2019_Jun_11_1449,2IFC,,RAMA04,
2IFC,64,0,64,0,8.2,-1,correct answer,0.265861527063,False,True,stimulusRAMA04_2IFC_2019_Jun_11_1449_329,stimulusRAMA04_2IFC_2019_Jun_11_1449_330,2019_Jun_11_1449,2IFC,,RAMA04,
2IFC,65,0,65,0,8.2,-1,correct answer,0.402588834055,False,True,stimulusRAMA04_2IFC_2019_Jun_11_1449_331,stimulusRAMA04_2IFC_2019_Jun_11_1449_332,2019_Jun_11_1449,2IFC,,RAMA04,
2IFC,66,0,66,0,8.2,-1,correct answer,0.332383872475,True,False,stimulusRAMA04_2IFC_2019_Jun_11_1449_333,stimulusRAMA04_2IFC_2019_Jun_11_1449_334,2019_Jun_11_1449,2IFC,,RAMA04,
2IFC,67,0,67,0,8.2,-1,correct answer,0.633504915051,False,True,stimulusRAMA04_2IFC_2019_Jun_11_1449_335,stimulusRAMA04_2IFC_2019_Jun_11_1449_336,2019_Jun_11_1449,2IFC,,RAMA04,
2IFC,68,0,68,0,8.2,-1,correct answer,0.470738181844,False,True,stimulusRAMA04_2IFC_2019_Jun_11_1449_337,stimulusRAMA04_2IFC_2019_Jun_11_1449_338,2019_Jun_11_1449,2IFC,,RAMA04,
2IFC,69,0,69,0,8.2,-1,correct answer,0.367069852538,True,False,stimulusRAMA04_2IFC_2019_Jun_11_1449_339,stimulusRAMA04_2IFC_2019_Jun_11_1449_340,2019_Jun_11_1449,2IFC,,RAMA04,
2IFC,70,0,70,0,8.2,-1,wrong answer,0.430400185753,False,True,stimulusRAMA04_2IFC_2019_Jun_11_1449_341,stimulusRAMA04_2IFC_2019_Jun_11_1449_342,2019_Jun_11_1449,2IFC,,RAMA04,
2IFC,71,0,71,0,8.2,-1,correct answer,0.470319833141,False,True,stimulusRAMA04_2IFC_2019_Jun_11_1449_343,stimulusRAMA04_2IFC_2019_Jun_11_1449_344,2019_Jun_11_1449,2IFC,,RAMA04,
2IFC,72,0,72,0,8.2,-1,correct answer,0.43562317919,False,True,stimulusRAMA04_2IFC_2019_Jun_11_1449_345,stimulusRAMA04_2IFC_2019_Jun_11_1449_346,2019_Jun_11_1449,2IFC,,RAMA04,
2IFC,73,0,73,0,8.2,-1,correct answer,0.533396858722,True,False,stimulusRAMA04_2IFC_2019_Jun_11_1449_347,stimulusRAMA04_2IFC_2019_Jun_11_1449_348,2019_Jun_11_1449,2IFC,,RAMA04,
2IFC,74,0,74,0,8.2,-1,correct answer,0.469854271505,False,True,stimulusRAMA04_2IFC_2019_Jun_11_1449_349,stimulusRAMA04_2IFC_2019_Jun_11_1449_350,2019_Jun_11_1449,2IFC,,RAMA04,
2IFC,75,0,75,0,8.2,-1,correct answer,0.639239451382,True,False,stimulusRAMA04_2IFC_2019_Jun_11_1449_351,stimulusRAMA04_2IFC_2019_Jun_11_1449_352,2019_Jun_11_1449,2IFC,,RAMA04,
2IFC,76,0,76,0,8.2,-1,correct answer,0.477401378099,True,False,stimulusRAMA04_2IFC_2019_Jun_11_1449_353,stimulusRAMA04_2IFC_2019_Jun_11_1449_354,2019_Jun_11_1449,2IFC,,RAMA04,
2IFC,77,0,77,0,8.2,-1,correct answer,0.333223032765,True,False,stimulusRAMA04_2IFC_2019_Jun_11_1449_355,stimulusRAMA04_2IFC_2019_Jun_11_1449_356,2019_Jun_11_1449,2IFC,,RAMA04,
2IFC,78,0,78,0,8.2,-1,correct answer,0.268085466232,False,True,stimulusRAMA04_2IFC_2019_Jun_11_1449_357,stimulusRAMA04_2IFC_2019_Jun_11_1449_358,2019_Jun_11_1449,2IFC,,RAMA04,
2IFC,79,0,79,0,8.2,-1,correct answer,0.400064784568,True,False,stimulusRAMA04_2IFC_2019_Jun_11_1449_359,stimulusRAMA04_2IFC_2019_Jun_11_1449_360,2019_Jun_11_1449,2IFC,,RAMA04,
2IFC,80,0,80,0,8.2,-1,correct answer,0.309896508697,False,True,stimulusRAMA04_2IFC_2019_Jun_11_1449_361,stimulusRAMA04_2IFC_2019_Jun_11_1449_362,2019_Jun_11_1449,2IFC,,RAMA04,
2IFC,81,0,81,0,8.2,-1,correct answer,0.301667482127,True,False,stimulusRAMA04_2IFC_2019_Jun_11_1449_363,stimulusRAMA04_2IFC_2019_Jun_11_1449_364,2019_Jun_11_1449,2IFC,,RAMA04,
2IFC,82,0,82,0,8.2,-1,correct answer,0.26687968662,True,False,stimulusRAMA04_2IFC_2019_Jun_11_1449_365,stimulusRAMA04_2IFC_2019_Jun_11_1449_366,2019_Jun_11_1449,2IFC,,RAMA04,
2IFC,83,0,83,0,8.2,-1,correct answer,0.232356694061,True,False,stimulusRAMA04_2IFC_2019_Jun_11_1449_367,stimulusRAMA04_2IFC_2019_Jun_11_1449_368,2019_Jun_11_1449,2IFC,,RAMA04,
2IFC,84,0,84,0,8.2,-1,correct answer,0.601044927258,True,False,stimulusRAMA04_2IFC_2019_Jun_11_1449_369,stimulusRAMA04_2IFC_2019_Jun_11_1449_370,2019_Jun_11_1449,2IFC,,RAMA04,
2IFC,85,0,85,0,8.2,-1,correct answer,0.299477618653,True,False,stimulusRAMA04_2IFC_2019_Jun_11_1449_371,stimulusRAMA04_2IFC_2019_Jun_11_1449_372,2019_Jun_11_1449,2IFC,,RAMA04,
2IFC,86,0,86,0,8.2,-1,correct answer,0.267567764968,True,False,stimulusRAMA04_2IFC_2019_Jun_11_1449_373,stimulusRAMA04_2IFC_2019_Jun_11_1449_374,2019_Jun_11_1449,2IFC,,RAMA04,
2IFC,87,0,87,0,8.2,-1,correct answer,0.36781828152,True,False,stimulusRAMA04_2IFC_2019_Jun_11_1449_375,stimulusRAMA04_2IFC_2019_Jun_11_1449_376,2019_Jun_11_1449,2IFC,,RAMA04,
2IFC,88,0,88,0,8.2,-1,correct answer,0.304584016092,True,False,stimulusRAMA04_2IFC_2019_Jun_11_1449_377,stimulusRAMA04_2IFC_2019_Jun_11_1449_378,2019_Jun_11_1449,2IFC,,RAMA04,
2IFC,89,0,89,0,8.2,-1,correct answer,0.300437890459,False,True,stimulusRAMA04_2IFC_2019_Jun_11_1449_379,stimulusRAMA04_2IFC_2019_Jun_11_1449_380,2019_Jun_11_1449,2IFC,,RAMA04,
2IFC,90,0,90,0,8.2,-1,no answer,-1,True,False,stimulusRAMA04_2IFC_2019_Jun_11_1449_381,stimulusRAMA04_2IFC_2019_Jun_11_1449_382,2019_Jun_11_1449,2IFC,,RAMA04,
2IFC,91,0,91,0,8.2,-1,correct answer,0.300040069502,False,True,stimulusRAMA04_2IFC_2019_Jun_11_1449_383,stimulusRAMA04_2IFC_2019_Jun_11_1449_384,2019_Jun_11_1449,2IFC,,RAMA04,
2IFC,92,0,92,0,8.2,-1,correct answer,0.810379724018,False,True,stimulusRAMA04_2IFC_2019_Jun_11_1449_385,stimulusRAMA04_2IFC_2019_Jun_11_1449_386,2019_Jun_11_1449,2IFC,,RAMA04,
2IFC,93,0,93,0,8.2,-1,correct answer,0.465045932215,False,True,stimulusRAMA04_2IFC_2019_Jun_11_1449_387,stimulusRAMA04_2IFC_2019_Jun_11_1449_388,2019_Jun_11_1449,2IFC,,RAMA04,
2IFC,94,0,94,0,8.2,-1,correct answer,0.370655579492,False,True,stimulusRAMA04_2IFC_2019_Jun_11_1449_389,stimulusRAMA04_2IFC_2019_Jun_11_1449_390,2019_Jun_11_1449,2IFC,,RAMA04,
2IFC,95,0,95,0,8.2,-1,correct answer,0.332917174324,False,True,stimulusRAMA04_2IFC_2019_Jun_11_1449_391,stimulusRAMA04_2IFC_2019_Jun_11_1449_392,2019_Jun_11_1449,2IFC,,RAMA04,
2IFC,96,0,96,0,8.2,-1,correct answer,0.302782530896,True,False,stimulusRAMA04_2IFC_2019_Jun_11_1449_393,stimulusRAMA04_2IFC_2019_Jun_11_1449_394,2019_Jun_11_1449,2IFC,,RAMA04,
2IFC,97,0,97,0,8.2,-1,correct answer,0.299923884217,True,False,stimulusRAMA04_2IFC_2019_Jun_11_1449_395,stimulusRAMA04_2IFC_2019_Jun_11_1449_396,2019_Jun_11_1449,2IFC,,RAMA04,
2IFC,98,0,98,0,8.2,-1,correct answer,0.469100915827,True,False,stimulusRAMA04_2IFC_2019_Jun_11_1449_397,stimulusRAMA04_2IFC_2019_Jun_11_1449_398,2019_Jun_11_1449,2IFC,,RAMA04,
2IFC,99,0,99,0,8.2,-1,correct answer,0.333196347114,False,True,stimulusRAMA04_2IFC_2019_Jun_11_1449_399,stimulusRAMA04_2IFC_2019_Jun_11_1449_400,2019_Jun_11_1449,2IFC,,RAMA04,
2IFC,0,0,0,0,6,-1,correct answer,0.569833416026,False,True,stimulusRAMA04_2IFC_2019_Jun_11_1449_401,stimulusRAMA04_2IFC_2019_Jun_11_1449_402,2019_Jun_11_1449,2IFC,,RAMA04,
2IFC,1,0,1,0,6,-1,correct answer,0.370033599436,False,True,stimulusRAMA04_2IFC_2019_Jun_11_1449_403,stimulusRAMA04_2IFC_2019_Jun_11_1449_404,2019_Jun_11_1449,2IFC,,RAMA04,
2IFC,2,0,2,0,6,-1,correct answer,0.400697438978,True,False,stimulusRAMA04_2IFC_2019_Jun_11_1449_405,stimulusRAMA04_2IFC_2019_Jun_11_1449_406,2019_Jun_11_1449,2IFC,,RAMA04,
2IFC,3,0,3,0,6,-1,correct answer,0.366904401686,False,True,stimulusRAMA04_2IFC_2019_Jun_11_1449_407,stimulusRAMA04_2IFC_2019_Jun_11_1449_408,2019_Jun_11_1449,2IFC,,RAMA04,
2IFC,4,0,4,0,6,-1,wrong answer,0.43542611599,False,True,stimulusRAMA04_2IFC_2019_Jun_11_1449_409,stimulusRAMA04_2IFC_2019_Jun_11_1449_410,2019_Jun_11_1449,2IFC,,RAMA04,
2IFC,5,0,5,0,6,-1,wrong answer,0.368094990961,False,True,stimulusRAMA04_2IFC_2019_Jun_11_1449_411,stimulusRAMA04_2IFC_2019_Jun_11_1449_412,2019_Jun_11_1449,2IFC,,RAMA04,
2IFC,6,0,6,0,6,-1,correct answer,0.303540813271,True,False,stimulusRAMA04_2IFC_2019_Jun_11_1449_413,stimulusRAMA04_2IFC_2019_Jun_11_1449_414,2019_Jun_11_1449,2IFC,,RAMA04,
2IFC,7,0,7,0,6,-1,wrong answer,0.775926525239,True,False,stimulusRAMA04_2IFC_2019_Jun_11_1449_415,stimulusRAMA04_2IFC_2019_Jun_11_1449_416,2019_Jun_11_1449,2IFC,,RAMA04,
2IFC,8,0,8,0,6,-1,correct answer,0.670722745359,False,True,stimulusRAMA04_2IFC_2019_Jun_11_1449_417,stimulusRAMA04_2IFC_2019_Jun_11_1449_418,2019_Jun_11_1449,2IFC,,RAMA04,
2IFC,9,0,9,0,6,-1,correct answer,0.368345425464,True,False,stimulusRAMA04_2IFC_2019_Jun_11_1449_419,stimulusRAMA04_2IFC_2019_Jun_11_1449_420,2019_Jun_11_1449,2IFC,,RAMA04,
2IFC,10,0,10,0,6,-1,no answer,-1,True,False,stimulusRAMA04_2IFC_2019_Jun_11_1449_421,stimulusRAMA04_2IFC_2019_Jun_11_1449_422,2019_Jun_11_1449,2IFC,,RAMA04,
2IFC,11,0,11,0,6,-1,correct answer,0.599542731419,True,False,stimulusRAMA04_2IFC_2019_Jun_11_1449_423,stimulusRAMA04_2IFC_2019_Jun_11_1449_424,2019_Jun_11_1449,2IFC,,RAMA04,
2IFC,12,0,12,0,6,-1,correct answer,0.633088619448,False,True,stimulusRAMA04_2IFC_2019_Jun_11_1449_425,stimulusRAMA04_2IFC_2019_Jun_11_1449_426,2019_Jun_11_1449,2IFC,,RAMA04,
2IFC,13,0,13,0,6,-1,correct answer,0.57254180219,False,True,stimulusRAMA04_2IFC_2019_Jun_11_1449_427,stimulusRAMA04_2IFC_2019_Jun_11_1449_428,2019_Jun_11_1449,2IFC,,RAMA04,
2IFC,14,0,14,0,6,-1,correct answer,0.569786613341,True,False,stimulusRAMA04_2IFC_2019_Jun_11_1449_429,stimulusRAMA04_2IFC_2019_Jun_11_1449_430,2019_Jun_11_1449,2IFC,,RAMA04,
2IFC,15,0,15,0,6,-1,correct answer,0.499304120895,True,False,stimulusRAMA04_2IFC_2019_Jun_11_1449_431,stimulusRAMA04_2IFC_2019_Jun_11_1449_432,2019_Jun_11_1449,2IFC,,RAMA04,
2IFC,16,0,16,0,6,-1,correct answer,0.532975225709,True,False,stimulusRAMA04_2IFC_2019_Jun_11_1449_433,stimulusRAMA04_2IFC_2019_Jun_11_1449_434,2019_Jun_11_1449,2IFC,,RAMA04,
2IFC,17,0,17,0,6,-1,correct answer,0.433979344089,True,False,stimulusRAMA04_2IFC_2019_Jun_11_1449_435,stimulusRAMA04_2IFC_2019_Jun_11_1449_436,2019_Jun_11_1449,2IFC,,RAMA04,
2IFC,18,0,18,0,6,-1,correct answer,0.469593573827,True,False,stimulusRAMA04_2IFC_2019_Jun_11_1449_437,stimulusRAMA04_2IFC_2019_Jun_11_1449_438,2019_Jun_11_1449,2IFC,,RAMA04,
2IFC,19,0,19,0,6,-1,correct answer,0.298749306239,False,True,stimulusRAMA04_2IFC_2019_Jun_11_1449_439,stimulusRAMA04_2IFC_2019_Jun_11_1449_440,2019_Jun_11_1449,2IFC,,RAMA04,
2IFC,20,0,20,0,6,-1,wrong answer,0.365504843183,False,True,stimulusRAMA04_2IFC_2019_Jun_11_1449_441,stimulusRAMA04_2IFC_2019_Jun_11_1449_442,2019_Jun_11_1449,2IFC,,RAMA04,
2IFC,21,0,21,0,6,-1,correct answer,0.434992577415,False,True,stimulusRAMA04_2IFC_2019_Jun_11_1449_443,stimulusRAMA04_2IFC_2019_Jun_11_1449_444,2019_Jun_11_1449,2IFC,,RAMA04,
2IFC,22,0,22,0,6,-1,correct answer,0.402005034965,False,True,stimulusRAMA04_2IFC_2019_Jun_11_1449_445,stimulusRAMA04_2IFC_2019_Jun_11_1449_446,2019_Jun_11_1449,2IFC,,RAMA04,
2IFC,23,0,23,0,6,-1,wrong answer,0.435937248636,True,False,stimulusRAMA04_2IFC_2019_Jun_11_1449_447,stimulusRAMA04_2IFC_2019_Jun_11_1449_448,2019_Jun_11_1449,2IFC,,RAMA04,
2IFC,24,0,24,0,6,-1,correct answer,0.533799196128,False,True,stimulusRAMA04_2IFC_2019_Jun_11_1449_449,stimulusRAMA04_2IFC_2019_Jun_11_1449_450,2019_Jun_11_1449,2IFC,,RAMA04,
2IFC,25,0,25,0,6,-1,correct answer,0.536689455155,False,True,stimulusRAMA04_2IFC_2019_Jun_11_1449_451,stimulusRAMA04_2IFC_2019_Jun_11_1449_452,2019_Jun_11_1449,2IFC,,RAMA04,
2IFC,26,0,26,0,6,-1,correct answer,0.603142417502,False,True,stimulusRAMA04_2IFC_2019_Jun_11_1449_453,stimulusRAMA04_2IFC_2019_Jun_11_1449_454,2019_Jun_11_1449,2IFC,,RAMA04,
2IFC,27,0,27,0,6,-1,correct answer,0.502143471967,True,False,stimulusRAMA04_2IFC_2019_Jun_11_1449_455,stimulusRAMA04_2IFC_2019_Jun_11_1449_456,2019_Jun_11_1449,2IFC,,RAMA04,
2IFC,28,0,28,0,6,-1,wrong answer,0.333137638867,True,False,stimulusRAMA04_2IFC_2019_Jun_11_1449_457,stimulusRAMA04_2IFC_2019_Jun_11_1449_458,2019_Jun_11_1449,2IFC,,RAMA04,
2IFC,29,0,29,0,6,-1,correct answer,0.536918540485,True,False,stimulusRAMA04_2IFC_2019_Jun_11_1449_459,stimulusRAMA04_2IFC_2019_Jun_11_1449_460,2019_Jun_11_1449,2IFC,,RAMA04,
2IFC,30,0,30,0,6,-1,correct answer,0.468216184527,True,False,stimulusRAMA04_2IFC_2019_Jun_11_1449_461,stimulusRAMA04_2IFC_2019_Jun_11_1449_462,2019_Jun_11_1449,2IFC,,RAMA04,
2IFC,31,0,31,0,6,-1,correct answer,0.668237697333,True,False,stimulusRAMA04_2IFC_2019_Jun_11_1449_463,stimulusRAMA04_2IFC_2019_Jun_11_1449_464,2019_Jun_11_1449,2IFC,,RAMA04,
2IFC,32,0,32,0,6,-1,correct answer,0.466614225879,False,True,stimulusRAMA04_2IFC_2019_Jun_11_1449_465,stimulusRAMA04_2IFC_2019_Jun_11_1449_466,2019_Jun_11_1449,2IFC,,RAMA04,
2IFC,33,0,33,0,6,-1,correct answer,0.601933763828,True,False,stimulusRAMA04_2IFC_2019_Jun_11_1449_467,stimulusRAMA04_2IFC_2019_Jun_11_1449_468,2019_Jun_11_1449,2IFC,,RAMA04,
2IFC,34,0,34,0,6,-1,correct answer,0.664744343143,False,True,stimulusRAMA04_2IFC_2019_Jun_11_1449_469,stimulusRAMA04_2IFC_2019_Jun_11_1449_470,2019_Jun_11_1449,2IFC,,RAMA04,
2IFC,35,0,35,0,6,-1,correct answer,0.635148749687,False,True,stimulusRAMA04_2IFC_2019_Jun_11_1449_471,stimulusRAMA04_2IFC_2019_Jun_11_1449_472,2019_Jun_11_1449,2IFC,,RAMA04,
2IFC,36,0,36,0,6,-1,correct answer,0.602775797714,True,False,stimulusRAMA04_2IFC_2019_Jun_11_1449_473,stimulusRAMA04_2IFC_2019_Jun_11_1449_474,2019_Jun_11_1449,2IFC,,RAMA04,
2IFC,37,0,37,0,6,-1,correct answer,0.499678130262,False,True,stimulusRAMA04_2IFC_2019_Jun_11_1449_475,stimulusRAMA04_2IFC_2019_Jun_11_1449_476,2019_Jun_11_1449,2IFC,,RAMA04,
2IFC,38,0,38,0,6,-1,correct answer,0.769336816855,False,True,stimulusRAMA04_2IFC_2019_Jun_11_1449_477,stimulusRAMA04_2IFC_2019_Jun_11_1449_478,2019_Jun_11_1449,2IFC,,RAMA04,
2IFC,39,0,39,0,6,-1,correct answer,0.610705535393,True,False,stimulusRAMA04_2IFC_2019_Jun_11_1449_479,stimulusRAMA04_2IFC_2019_Jun_11_1449_480,2019_Jun_11_1449,2IFC,,RAMA04,
2IFC,40,0,40,0,6,-1,correct answer,0.403597961646,False,True,stimulusRAMA04_2IFC_2019_Jun_11_1449_481,stimulusRAMA04_2IFC_2019_Jun_11_1449_482,2019_Jun_11_1449,2IFC,,RAMA04,
2IFC,41,0,41,0,6,-1,correct answer,0.401438068133,True,False,stimulusRAMA04_2IFC_2019_Jun_11_1449_483,stimulusRAMA04_2IFC_2019_Jun_11_1449_484,2019_Jun_11_1449,2IFC,,RAMA04,
2IFC,42,0,42,0,6,-1,correct answer,0.631679618265,False,True,stimulusRAMA04_2IFC_2019_Jun_11_1449_485,stimulusRAMA04_2IFC_2019_Jun_11_1449_486,2019_Jun_11_1449,2IFC,,RAMA04,
2IFC,43,0,43,0,6,-1,correct answer,0.636019933037,True,False,stimulusRAMA04_2IFC_2019_Jun_11_1449_487,stimulusRAMA04_2IFC_2019_Jun_11_1449_488,2019_Jun_11_1449,2IFC,,RAMA04,
2IFC,44,0,44,0,6,-1,correct answer,0.468535180669,True,False,stimulusRAMA04_2IFC_2019_Jun_11_1449_489,stimulusRAMA04_2IFC_2019_Jun_11_1449_490,2019_Jun_11_1449,2IFC,,RAMA04,
2IFC,45,0,45,0,6,-1,correct answer,0.667293847073,True,False,stimulusRAMA04_2IFC_2019_Jun_11_1449_491,stimulusRAMA04_2IFC_2019_Jun_11_1449_492,2019_Jun_11_1449,2IFC,,RAMA04,
2IFC,46,0,46,0,6,-1,correct answer,0.612727484666,True,False,stimulusRAMA04_2IFC_2019_Jun_11_1449_493,stimulusRAMA04_2IFC_2019_Jun_11_1449_494,2019_Jun_11_1449,2IFC,,RAMA04,
2IFC,47,0,47,0,6,-1,correct answer,0.400118976831,True,False,stimulusRAMA04_2IFC_2019_Jun_11_1449_495,stimulusRAMA04_2IFC_2019_Jun_11_1449_496,2019_Jun_11_1449,2IFC,,RAMA04,
2IFC,48,0,48,0,6,-1,correct answer,0.500509490259,False,True,stimulusRAMA04_2IFC_2019_Jun_11_1449_497,stimulusRAMA04_2IFC_2019_Jun_11_1449_498,2019_Jun_11_1449,2IFC,,RAMA04,
2IFC,49,0,49,0,6,-1,correct answer,0.53625263134,False,True,stimulusRAMA04_2IFC_2019_Jun_11_1449_499,stimulusRAMA04_2IFC_2019_Jun_11_1449_500,2019_Jun_11_1449,2IFC,,RAMA04,
2IFC,50,0,50,0,6,-1,wrong answer,0.70207137987,True,False,stimulusRAMA04_2IFC_2019_Jun_11_1449_501,stimulusRAMA04_2IFC_2019_Jun_11_1449_502,2019_Jun_11_1449,2IFC,,RAMA04,
2IFC,51,0,51,0,6,-1,correct answer,0.667919522617,True,False,stimulusRAMA04_2IFC_2019_Jun_11_1449_503,stimulusRAMA04_2IFC_2019_Jun_11_1449_504,2019_Jun_11_1449,2IFC,,RAMA04,
2IFC,52,0,52,0,6,-1,correct answer,0.566429972183,False,True,stimulusRAMA04_2IFC_2019_Jun_11_1449_505,stimulusRAMA04_2IFC_2019_Jun_11_1449_506,2019_Jun_11_1449,2IFC,,RAMA04,
2IFC,53,0,53,0,6,-1,correct answer,0.634957844857,False,True,stimulusRAMA04_2IFC_2019_Jun_11_1449_507,stimulusRAMA04_2IFC_2019_Jun_11_1449_508,2019_Jun_11_1449,2IFC,,RAMA04,
2IFC,54,0,54,0,6,-1,wrong answer,0.701829977334,True,False,stimulusRAMA04_2IFC_2019_Jun_11_1449_509,stimulusRAMA04_2IFC_2019_Jun_11_1449_510,2019_Jun_11_1449,2IFC,,RAMA04,
2IFC,55,0,55,0,6,-1,no answer,-1,True,False,stimulusRAMA04_2IFC_2019_Jun_11_1449_511,stimulusRAMA04_2IFC_2019_Jun_11_1449_512,2019_Jun_11_1449,2IFC,,RAMA04,
2IFC,56,0,56,0,6,-1,correct answer,0.69978011027,True,False,stimulusRAMA04_2IFC_2019_Jun_11_1449_513,stimulusRAMA04_2IFC_2019_Jun_11_1449_514,2019_Jun_11_1449,2IFC,,RAMA04,
2IFC,57,0,57,0,6,-1,correct answer,0.60002060933,True,False,stimulusRAMA04_2IFC_2019_Jun_11_1449_515,stimulusRAMA04_2IFC_2019_Jun_11_1449_516,2019_Jun_11_1449,2IFC,,RAMA04,
2IFC,58,0,58,0,6,-1,correct answer,0.635907032061,True,False,stimulusRAMA04_2IFC_2019_Jun_11_1449_517,stimulusRAMA04_2IFC_2019_Jun_11_1449_518,2019_Jun_11_1449,2IFC,,RAMA04,
2IFC,59,0,59,0,6,-1,correct answer,0.567860321607,False,True,stimulusRAMA04_2IFC_2019_Jun_11_1449_519,stimulusRAMA04_2IFC_2019_Jun_11_1449_520,2019_Jun_11_1449,2IFC,,RAMA04,
2IFC,60,0,60,0,6,-1,no answer,-1,False,True,stimulusRAMA04_2IFC_2019_Jun_11_1449_521,stimulusRAMA04_2IFC_2019_Jun_11_1449_522,2019_Jun_11_1449,2IFC,,RAMA04,
2IFC,61,0,61,0,6,-1,correct answer,0.833410242572,True,False,stimulusRAMA04_2IFC_2019_Jun_11_1449_523,stimulusRAMA04_2IFC_2019_Jun_11_1449_524,2019_Jun_11_1449,2IFC,,RAMA04,
2IFC,62,0,62,0,6,-1,correct answer,0.713689891621,False,True,stimulusRAMA04_2IFC_2019_Jun_11_1449_525,stimulusRAMA04_2IFC_2019_Jun_11_1449_526,2019_Jun_11_1449,2IFC,,RAMA04,
2IFC,63,0,63,0,6,-1,correct answer,0.666084372438,True,False,stimulusRAMA04_2IFC_2019_Jun_11_1449_527,stimulusRAMA04_2IFC_2019_Jun_11_1449_528,2019_Jun_11_1449,2IFC,,RAMA04,
2IFC,64,0,64,0,6,-1,correct answer,0.466239395551,True,False,stimulusRAMA04_2IFC_2019_Jun_11_1449_529,stimulusRAMA04_2IFC_2019_Jun_11_1449_530,2019_Jun_11_1449,2IFC,,RAMA04,
2IFC,65,0,65,0,6,-1,wrong answer,0.543458161876,False,True,stimulusRAMA04_2IFC_2019_Jun_11_1449_531,stimulusRAMA04_2IFC_2019_Jun_11_1449_532,2019_Jun_11_1449,2IFC,,RAMA04,
2IFC,66,0,66,0,6,-1,correct answer,0.434875160456,True,False,stimulusRAMA04_2IFC_2019_Jun_11_1449_533,stimulusRAMA04_2IFC_2019_Jun_11_1449_534,2019_Jun_11_1449,2IFC,,RAMA04,
2IFC,67,0,67,0,6,-1,no answer,-1,False,True,stimulusRAMA04_2IFC_2019_Jun_11_1449_535,stimulusRAMA04_2IFC_2019_Jun_11_1449_536,2019_Jun_11_1449,2IFC,,RAMA04,
2IFC,68,0,68,0,6,-1,wrong answer,0.700705075637,True,False,stimulusRAMA04_2IFC_2019_Jun_11_1449_537,stimulusRAMA04_2IFC_2019_Jun_11_1449_538,2019_Jun_11_1449,2IFC,,RAMA04,
2IFC,69,0,69,0,6,-1,correct answer,0.671162853017,False,True,stimulusRAMA04_2IFC_2019_Jun_11_1449_539,stimulusRAMA04_2IFC_2019_Jun_11_1449_540,2019_Jun_11_1449,2IFC,,RAMA04,
2IFC,70,0,70,0,6,-1,no answer,-1,True,False,stimulusRAMA04_2IFC_2019_Jun_11_1449_541,stimulusRAMA04_2IFC_2019_Jun_11_1449_542,2019_Jun_11_1449,2IFC,,RAMA04,
2IFC,71,0,71,0,6,-1,correct answer,0.567476459313,True,False,stimulusRAMA04_2IFC_2019_Jun_11_1449_543,stimulusRAMA04_2IFC_2019_Jun_11_1449_544,2019_Jun_11_1449,2IFC,,RAMA04,
2IFC,72,0,72,0,6,-1,correct answer,0.60258571431,False,True,stimulusRAMA04_2IFC_2019_Jun_11_1449_545,stimulusRAMA04_2IFC_2019_Jun_11_1449_546,2019_Jun_11_1449,2IFC,,RAMA04,
2IFC,73,0,73,0,6,-1,wrong answer,0.670113902539,True,False,stimulusRAMA04_2IFC_2019_Jun_11_1449_547,stimulusRAMA04_2IFC_2019_Jun_11_1449_548,2019_Jun_11_1449,2IFC,,RAMA04,
2IFC,74,0,74,0,6,-1,correct answer,0.502447277308,False,True,stimulusRAMA04_2IFC_2019_Jun_11_1449_549,stimulusRAMA04_2IFC_2019_Jun_11_1449_550,2019_Jun_11_1449,2IFC,,RAMA04,
2IFC,75,0,75,0,6,-1,correct answer,0.605271520559,False,True,stimulusRAMA04_2IFC_2019_Jun_11_1449_551,stimulusRAMA04_2IFC_2019_Jun_11_1449_552,2019_Jun_11_1449,2IFC,,RAMA04,
2IFC,76,0,76,0,6,-1,correct answer,0.499703584239,False,True,stimulusRAMA04_2IFC_2019_Jun_11_1449_553,stimulusRAMA04_2IFC_2019_Jun_11_1449_554,2019_Jun_11_1449,2IFC,,RAMA04,
2IFC,77,0,77,0,6,-1,wrong answer,0.468768782448,True,False,stimulusRAMA04_2IFC_2019_Jun_11_1449_555,stimulusRAMA04_2IFC_2019_Jun_11_1449_556,2019_Jun_11_1449,2IFC,,RAMA04,
2IFC,78,0,78,0,6,-1,wrong answer,0.669774379116,True,False,stimulusRAMA04_2IFC_2019_Jun_11_1449_557,stimulusRAMA04_2IFC_2019_Jun_11_1449_558,2019_Jun_11_1449,2IFC,,RAMA04,
2IFC,79,0,79,0,6,-1,wrong answer,0.735907935537,False,True,stimulusRAMA04_2IFC_2019_Jun_11_1449_559,stimulusRAMA04_2IFC_2019_Jun_11_1449_560,2019_Jun_11_1449,2IFC,,RAMA04,
2IFC,80,0,80,0,6,-1,correct answer,0.504071816336,True,False,stimulusRAMA04_2IFC_2019_Jun_11_1449_561,stimulusRAMA04_2IFC_2019_Jun_11_1449_562,2019_Jun_11_1449,2IFC,,RAMA04,
2IFC,81,0,81,0,6,-1,correct answer,0.503198170103,False,True,stimulusRAMA04_2IFC_2019_Jun_11_1449_563,stimulusRAMA04_2IFC_2019_Jun_11_1449_564,2019_Jun_11_1449,2IFC,,RAMA04,
2IFC,82,0,82,0,6,-1,correct answer,0.533298737835,False,True,stimulusRAMA04_2IFC_2019_Jun_11_1449_565,stimulusRAMA04_2IFC_2019_Jun_11_1449_566,2019_Jun_11_1449,2IFC,,RAMA04,
2IFC,83,0,83,0,6,-1,correct answer,0.53521558689,False,True,stimulusRAMA04_2IFC_2019_Jun_11_1449_567,stimulusRAMA04_2IFC_2019_Jun_11_1449_568,2019_Jun_11_1449,2IFC,,RAMA04,
2IFC,84,0,84,0,6,-1,correct answer,0.56940110866,False,True,stimulusRAMA04_2IFC_2019_Jun_11_1449_569,stimulusRAMA04_2IFC_2019_Jun_11_1449_570,2019_Jun_11_1449,2IFC,,RAMA04,
2IFC,85,0,85,0,6,-1,correct answer,0.602733100764,True,False,stimulusRAMA04_2IFC_2019_Jun_11_1449_571,stimulusRAMA04_2IFC_2019_Jun_11_1449_572,2019_Jun_11_1449,2IFC,,RAMA04,
2IFC,86,0,86,0,6,-1,correct answer,0.801603026222,True,False,stimulusRAMA04_2IFC_2019_Jun_11_1449_573,stimulusRAMA04_2IFC_2019_Jun_11_1449_574,2019_Jun_11_1449,2IFC,,RAMA04,
2IFC,87,0,87,0,6,-1,correct answer,0.735459616873,True,False,stimulusRAMA04_2IFC_2019_Jun_11_1449_575,stimulusRAMA04_2IFC_2019_Jun_11_1449_576,2019_Jun_11_1449,2IFC,,RAMA04,
2IFC,88,0,88,0,6,-1,correct answer,0.400726587977,True,False,stimulusRAMA04_2IFC_2019_Jun_11_1449_577,stimulusRAMA04_2IFC_2019_Jun_11_1449_578,2019_Jun_11_1449,2IFC,,RAMA04,
2IFC,89,0,89,0,6,-1,no answer,-1,True,False,stimulusRAMA04_2IFC_2019_Jun_11_1449_579,stimulusRAMA04_2IFC_2019_Jun_11_1449_580,2019_Jun_11_1449,2IFC,,RAMA04,
2IFC,90,0,90,0,6,-1,correct answer,0.475618367549,False,True,stimulusRAMA04_2IFC_2019_Jun_11_1449_581,stimulusRAMA04_2IFC_2019_Jun_11_1449_582,2019_Jun_11_1449,2IFC,,RAMA04,
2IFC,91,0,91,0,6,-1,correct answer,0.569798519369,False,True,stimulusRAMA04_2IFC_2019_Jun_11_1449_583,stimulusRAMA04_2IFC_2019_Jun_11_1449_584,2019_Jun_11_1449,2IFC,,RAMA04,
2IFC,92,0,92,0,6,-1,wrong answer,0.567880027927,True,False,stimulusRAMA04_2IFC_2019_Jun_11_1449_585,stimulusRAMA04_2IFC_2019_Jun_11_1449_586,2019_Jun_11_1449,2IFC,,RAMA04,
2IFC,93,0,93,0,6,-1,correct answer,0.602041327395,False,True,stimulusRAMA04_2IFC_2019_Jun_11_1449_587,stimulusRAMA04_2IFC_2019_Jun_11_1449_588,2019_Jun_11_1449,2IFC,,RAMA04,
2IFC,94,0,94,0,6,-1,correct answer,0.60221129423,False,True,stimulusRAMA04_2IFC_2019_Jun_11_1449_589,stimulusRAMA04_2IFC_2019_Jun_11_1449_590,2019_Jun_11_1449,2IFC,,RAMA04,
2IFC,95,0,95,0,6,-1,correct answer,0.566454605199,False,True,stimulusRAMA04_2IFC_2019_Jun_11_1449_591,stimulusRAMA04_2IFC_2019_Jun_11_1449_592,2019_Jun_11_1449,2IFC,,RAMA04,
2IFC,96,0,96,0,6,-1,correct answer,0.573412985075,False,True,stimulusRAMA04_2IFC_2019_Jun_11_1449_593,stimulusRAMA04_2IFC_2019_Jun_11_1449_594,2019_Jun_11_1449,2IFC,,RAMA04,
2IFC,97,0,97,0,6,-1,correct answer,0.599386312999,False,True,stimulusRAMA04_2IFC_2019_Jun_11_1449_595,stimulusRAMA04_2IFC_2019_Jun_11_1449_596,2019_Jun_11_1449,2IFC,,RAMA04,
2IFC,98,0,98,0,6,-1,correct answer,0.803005458787,True,False,stimulusRAMA04_2IFC_2019_Jun_11_1449_597,stimulusRAMA04_2IFC_2019_Jun_11_1449_598,2019_Jun_11_1449,2IFC,,RAMA04,
2IFC,99,0,99,0,6,-1,correct answer,0.507876365911,True,False,stimulusRAMA04_2IFC_2019_Jun_11_1449_599,stimulusRAMA04_2IFC_2019_Jun_11_1449_600,2019_Jun_11_1449,2IFC,,RAMA04,
2IFC,0,0,0,0,3.8,-1,wrong answer,0.600569101516,False,True,stimulusRAMA04_2IFC_2019_Jun_11_1449_601,stimulusRAMA04_2IFC_2019_Jun_11_1449_602,2019_Jun_11_1449,2IFC,,RAMA04,
2IFC,1,0,1,0,3.8,-1,correct answer,0.56704250956,True,False,stimulusRAMA04_2IFC_2019_Jun_11_1449_603,stimulusRAMA04_2IFC_2019_Jun_11_1449_604,2019_Jun_11_1449,2IFC,,RAMA04,
2IFC,2,0,2,0,3.8,-1,correct answer,0.633865376003,False,True,stimulusRAMA04_2IFC_2019_Jun_11_1449_605,stimulusRAMA04_2IFC_2019_Jun_11_1449_606,2019_Jun_11_1449,2IFC,,RAMA04,
2IFC,3,0,3,0,3.8,-1,correct answer,0.404993004166,True,False,stimulusRAMA04_2IFC_2019_Jun_11_1449_607,stimulusRAMA04_2IFC_2019_Jun_11_1449_608,2019_Jun_11_1449,2IFC,,RAMA04,
2IFC,4,0,4,0,3.8,-1,correct answer,0.369590617716,False,True,stimulusRAMA04_2IFC_2019_Jun_11_1449_609,stimulusRAMA04_2IFC_2019_Jun_11_1449_610,2019_Jun_11_1449,2IFC,,RAMA04,
2IFC,5,0,5,0,3.8,-1,wrong answer,0.534826797899,True,False,stimulusRAMA04_2IFC_2019_Jun_11_1449_611,stimulusRAMA04_2IFC_2019_Jun_11_1449_612,2019_Jun_11_1449,2IFC,,RAMA04,
2IFC,6,0,6,0,3.8,-1,correct answer,0.531887684017,False,True,stimulusRAMA04_2IFC_2019_Jun_11_1449_613,stimulusRAMA04_2IFC_2019_Jun_11_1449_614,2019_Jun_11_1449,2IFC,,RAMA04,
2IFC,7,0,7,0,3.8,-1,correct answer,0.767236863729,True,False,stimulusRAMA04_2IFC_2019_Jun_11_1449_615,stimulusRAMA04_2IFC_2019_Jun_11_1449_616,2019_Jun_11_1449,2IFC,,RAMA04,
2IFC,8,0,8,0,3.8,-1,correct answer,0.600027999375,True,False,stimulusRAMA04_2IFC_2019_Jun_11_1449_617,stimulusRAMA04_2IFC_2019_Jun_11_1449_618,2019_Jun_11_1449,2IFC,,RAMA04,
2IFC,9,0,9,0,3.8,-1,correct answer,0.568068059161,False,True,stimulusRAMA04_2IFC_2019_Jun_11_1449_619,stimulusRAMA04_2IFC_2019_Jun_11_1449_620,2019_Jun_11_1449,2IFC,,RAMA04,
2IFC,10,0,10,0,3.8,-1,correct answer,0.602262612898,False,True,stimulusRAMA04_2IFC_2019_Jun_11_1449_621,stimulusRAMA04_2IFC_2019_Jun_11_1449_622,2019_Jun_11_1449,2IFC,,RAMA04,
2IFC,11,0,11,0,3.8,-1,correct answer,0.600352743175,False,True,stimulusRAMA04_2IFC_2019_Jun_11_1449_623,stimulusRAMA04_2IFC_2019_Jun_11_1449_624,2019_Jun_11_1449,2IFC,,RAMA04,
2IFC,12,0,12,0,3.8,-1,correct answer,0.502395548392,False,True,stimulusRAMA04_2IFC_2019_Jun_11_1449_625,stimulusRAMA04_2IFC_2019_Jun_11_1449_626,2019_Jun_11_1449,2IFC,,RAMA04,
2IFC,13,0,13,0,3.8,-1,wrong answer,0.500417527743,True,False,stimulusRAMA04_2IFC_2019_Jun_11_1449_627,stimulusRAMA04_2IFC_2019_Jun_11_1449_628,2019_Jun_11_1449,2IFC,,RAMA04,
2IFC,14,0,14,0,3.8,-1,correct answer,0.501535860356,False,True,stimulusRAMA04_2IFC_2019_Jun_11_1449_629,stimulusRAMA04_2IFC_2019_Jun_11_1449_630,2019_Jun_11_1449,2IFC,,RAMA04,
2IFC,15,0,15,0,3.8,-1,correct answer,0.572917453479,False,True,stimulusRAMA04_2IFC_2019_Jun_11_1449_631,stimulusRAMA04_2IFC_2019_Jun_11_1449_632,2019_Jun_11_1449,2IFC,,RAMA04,
2IFC,16,0,16,0,3.8,-1,correct answer,0.568133336026,False,True,stimulusRAMA04_2IFC_2019_Jun_11_1449_633,stimulusRAMA04_2IFC_2019_Jun_11_1449_634,2019_Jun_11_1449,2IFC,,RAMA04,
2IFC,17,0,17,0,3.8,-1,wrong answer,0.567768359091,True,False,stimulusRAMA04_2IFC_2019_Jun_11_1449_635,stimulusRAMA04_2IFC_2019_Jun_11_1449_636,2019_Jun_11_1449,2IFC,,RAMA04,
2IFC,18,0,18,0,3.8,-1,wrong answer,0.633228616323,False,True,stimulusRAMA04_2IFC_2019_Jun_11_1449_637,stimulusRAMA04_2IFC_2019_Jun_11_1449_638,2019_Jun_11_1449,2IFC,,RAMA04,
2IFC,19,0,19,0,3.8,-1,correct answer,0.771970483009,True,False,stimulusRAMA04_2IFC_2019_Jun_11_1449_639,stimulusRAMA04_2IFC_2019_Jun_11_1449_640,2019_Jun_11_1449,2IFC,,RAMA04,
2IFC,20,0,20,0,3.8,-1,wrong answer,0.865714222193,False,True,stimulusRAMA04_2IFC_2019_Jun_11_1449_641,stimulusRAMA04_2IFC_2019_Jun_11_1449_642,2019_Jun_11_1449,2IFC,,RAMA04,
2IFC,21,0,21,0,3.8,-1,wrong answer,0.608172863722,True,False,stimulusRAMA04_2IFC_2019_Jun_11_1449_643,stimulusRAMA04_2IFC_2019_Jun_11_1449_644,2019_Jun_11_1449,2IFC,,RAMA04,
2IFC,22,0,22,0,3.8,-1,correct answer,0.601212020032,True,False,stimulusRAMA04_2IFC_2019_Jun_11_1449_645,stimulusRAMA04_2IFC_2019_Jun_11_1449_646,2019_Jun_11_1449,2IFC,,RAMA04,
2IFC,23,0,23,0,3.8,-1,wrong answer,0.767637968995,False,True,stimulusRAMA04_2IFC_2019_Jun_11_1449_647,stimulusRAMA04_2IFC_2019_Jun_11_1449_648,2019_Jun_11_1449,2IFC,,RAMA04,
2IFC,24,0,24,0,3.8,-1,correct answer,0.60065449588,False,True,stimulusRAMA04_2IFC_2019_Jun_11_1449_649,stimulusRAMA04_2IFC_2019_Jun_11_1449_650,2019_Jun_11_1449,2IFC,,RAMA04,
2IFC,25,0,25,0,3.8,-1,wrong answer,0.735782307573,False,True,stimulusRAMA04_2IFC_2019_Jun_11_1449_651,stimulusRAMA04_2IFC_2019_Jun_11_1449_652,2019_Jun_11_1449,2IFC,,RAMA04,
2IFC,26,0,26,0,3.8,-1,correct answer,0.597889454104,False,True,stimulusRAMA04_2IFC_2019_Jun_11_1449_653,stimulusRAMA04_2IFC_2019_Jun_11_1449_654,2019_Jun_11_1449,2IFC,,RAMA04,
2IFC,27,0,27,0,3.8,-1,correct answer,0.73484625807,False,True,stimulusRAMA04_2IFC_2019_Jun_11_1449_655,stimulusRAMA04_2IFC_2019_Jun_11_1449_656,2019_Jun_11_1449,2IFC,,RAMA04,
2IFC,28,0,28,0,3.8,-1,wrong answer,0.868023965973,True,False,stimulusRAMA04_2IFC_2019_Jun_11_1449_657,stimulusRAMA04_2IFC_2019_Jun_11_1449_658,2019_Jun_11_1449,2IFC,,RAMA04,
2IFC,29,0,29,0,3.8,-1,correct answer,0.602044612169,False,True,stimulusRAMA04_2IFC_2019_Jun_11_1449_659,stimulusRAMA04_2IFC_2019_Jun_11_1449_660,2019_Jun_11_1449,2IFC,,RAMA04,
2IFC,30,0,30,0,3.8,-1,correct answer,0.56985435402,False,True,stimulusRAMA04_2IFC_2019_Jun_11_1449_661,stimulusRAMA04_2IFC_2019_Jun_11_1449_662,2019_Jun_11_1449,2IFC,,RAMA04,
2IFC,31,0,31,0,3.8,-1,correct answer,0.499141954817,True,False,stimulusRAMA04_2IFC_2019_Jun_11_1449_663,stimulusRAMA04_2IFC_2019_Jun_11_1449_664,2019_Jun_11_1449,2IFC,,RAMA04,
2IFC,32,0,32,0,3.8,-1,correct answer,0.467489514966,True,False,stimulusRAMA04_2IFC_2019_Jun_11_1449_665,stimulusRAMA04_2IFC_2019_Jun_11_1449_666,2019_Jun_11_1449,2IFC,,RAMA04,
2IFC,33,0,33,0,3.8,-1,wrong answer,0.599400681444,False,True,stimulusRAMA04_2IFC_2019_Jun_11_1449_667,stimulusRAMA04_2IFC_2019_Jun_11_1449_668,2019_Jun_11_1449,2IFC,,RAMA04,
2IFC,34,0,34,0,3.8,-1,correct answer,0.402717746329,False,True,stimulusRAMA04_2IFC_2019_Jun_11_1449_669,stimulusRAMA04_2IFC_2019_Jun_11_1449_670,2019_Jun_11_1449,2IFC,,RAMA04,
2IFC,35,0,35,0,3.8,-1,correct answer,0.568634615745,True,False,stimulusRAMA04_2IFC_2019_Jun_11_1449_671,stimulusRAMA04_2IFC_2019_Jun_11_1449_672,2019_Jun_11_1449,2IFC,,RAMA04,
2IFC,36,0,36,0,3.8,-1,correct answer,0.599828472827,True,False,stimulusRAMA04_2IFC_2019_Jun_11_1449_673,stimulusRAMA04_2IFC_2019_Jun_11_1449_674,2019_Jun_11_1449,2IFC,,RAMA04,
2IFC,37,0,37,0,3.8,-1,correct answer,0.535510771442,False,True,stimulusRAMA04_2IFC_2019_Jun_11_1449_675,stimulusRAMA04_2IFC_2019_Jun_11_1449_676,2019_Jun_11_1449,2IFC,,RAMA04,
2IFC,38,0,38,0,3.8,-1,correct answer,0.602173113264,True,False,stimulusRAMA04_2IFC_2019_Jun_11_1449_677,stimulusRAMA04_2IFC_2019_Jun_11_1449_678,2019_Jun_11_1449,2IFC,,RAMA04,
2IFC,39,0,39,0,3.8,-1,wrong answer,0.601616820786,True,False,stimulusRAMA04_2IFC_2019_Jun_11_1449_679,stimulusRAMA04_2IFC_2019_Jun_11_1449_680,2019_Jun_11_1449,2IFC,,RAMA04,
2IFC,40,0,40,0,3.8,-1,correct answer,0.46827160893,True,False,stimulusRAMA04_2IFC_2019_Jun_11_1449_681,stimulusRAMA04_2IFC_2019_Jun_11_1449_682,2019_Jun_11_1449,2IFC,,RAMA04,
2IFC,41,0,41,0,3.8,-1,correct answer,0.46721978439,True,False,stimulusRAMA04_2IFC_2019_Jun_11_1449_683,stimulusRAMA04_2IFC_2019_Jun_11_1449_684,2019_Jun_11_1449,2IFC,,RAMA04,
2IFC,42,0,42,0,3.8,-1,wrong answer,0.699851545971,False,True,stimulusRAMA04_2IFC_2019_Jun_11_1449_685,stimulusRAMA04_2IFC_2019_Jun_11_1449_686,2019_Jun_11_1449,2IFC,,RAMA04,
2IFC,43,0,43,0,3.8,-1,correct answer,0.733633498661,True,False,stimulusRAMA04_2IFC_2019_Jun_11_1449_687,stimulusRAMA04_2IFC_2019_Jun_11_1449_688,2019_Jun_11_1449,2IFC,,RAMA04,
2IFC,44,0,44,0,3.8,-1,wrong answer,0.600397082046,False,True,stimulusRAMA04_2IFC_2019_Jun_11_1449_689,stimulusRAMA04_2IFC_2019_Jun_11_1449_690,2019_Jun_11_1449,2IFC,,RAMA04,
2IFC,45,0,45,0,3.8,-1,correct answer,0.47630685661,False,True,stimulusRAMA04_2IFC_2019_Jun_11_1449_691,stimulusRAMA04_2IFC_2019_Jun_11_1449_692,2019_Jun_11_1449,2IFC,,RAMA04,
2IFC,46,0,46,0,3.8,-1,correct answer,0.604363387451,False,True,stimulusRAMA04_2IFC_2019_Jun_11_1449_693,stimulusRAMA04_2IFC_2019_Jun_11_1449_694,2019_Jun_11_1449,2IFC,,RAMA04,
2IFC,47,0,47,0,3.8,-1,correct answer,0.535790765192,False,True,stimulusRAMA04_2IFC_2019_Jun_11_1449_695,stimulusRAMA04_2IFC_2019_Jun_11_1449_696,2019_Jun_11_1449,2IFC,,RAMA04,
2IFC,48,0,48,0,3.8,-1,correct answer,0.334417727776,True,False,stimulusRAMA04_2IFC_2019_Jun_11_1449_697,stimulusRAMA04_2IFC_2019_Jun_11_1449_698,2019_Jun_11_1449,2IFC,,RAMA04,
2IFC,49,0,49,0,3.8,-1,correct answer,0.600753438193,True,False,stimulusRAMA04_2IFC_2019_Jun_11_1449_699,stimulusRAMA04_2IFC_2019_Jun_11_1449_700,2019_Jun_11_1449,2IFC,,RAMA04,
2IFC,50,0,50,0,3.8,-1,wrong answer,0.665937396232,False,True,stimulusRAMA04_2IFC_2019_Jun_11_1449_701,stimulusRAMA04_2IFC_2019_Jun_11_1449_702,2019_Jun_11_1449,2IFC,,RAMA04,
2IFC,51,0,51,0,3.8,-1,correct answer,0.403066302184,False,True,stimulusRAMA04_2IFC_2019_Jun_11_1449_703,stimulusRAMA04_2IFC_2019_Jun_11_1449_704,2019_Jun_11_1449,2IFC,,RAMA04,
2IFC,52,0,52,0,3.8,-1,correct answer,0.635128222406,True,False,stimulusRAMA04_2IFC_2019_Jun_11_1449_705,stimulusRAMA04_2IFC_2019_Jun_11_1449_706,2019_Jun_11_1449,2IFC,,RAMA04,
2IFC,53,0,53,0,3.8,-1,correct answer,0.734376180451,False,True,stimulusRAMA04_2IFC_2019_Jun_11_1449_707,stimulusRAMA04_2IFC_2019_Jun_11_1449_708,2019_Jun_11_1449,2IFC,,RAMA04,
2IFC,54,0,54,0,3.8,-1,wrong answer,0.834129112307,True,False,stimulusRAMA04_2IFC_2019_Jun_11_1449_709,stimulusRAMA04_2IFC_2019_Jun_11_1449_710,2019_Jun_11_1449,2IFC,,RAMA04,
2IFC,55,0,55,0,3.8,-1,wrong answer,0.667683046777,True,False,stimulusRAMA04_2IFC_2019_Jun_11_1449_711,stimulusRAMA04_2IFC_2019_Jun_11_1449_712,2019_Jun_11_1449,2IFC,,RAMA04,
2IFC,56,0,56,0,3.8,-1,correct answer,0.333989936858,True,False,stimulusRAMA04_2IFC_2019_Jun_11_1449_713,stimulusRAMA04_2IFC_2019_Jun_11_1449_714,2019_Jun_11_1449,2IFC,,RAMA04,
2IFC,57,0,57,0,3.8,-1,correct answer,0.634871629998,True,False,stimulusRAMA04_2IFC_2019_Jun_11_1449_715,stimulusRAMA04_2IFC_2019_Jun_11_1449_716,2019_Jun_11_1449,2IFC,,RAMA04,
2IFC,58,0,58,0,3.8,-1,correct answer,0.706342312042,True,False,stimulusRAMA04_2IFC_2019_Jun_11_1449_717,stimulusRAMA04_2IFC_2019_Jun_11_1449_718,2019_Jun_11_1449,2IFC,,RAMA04,
2IFC,59,0,59,0,3.8,-1,correct answer,0.735528178513,False,True,stimulusRAMA04_2IFC_2019_Jun_11_1449_719,stimulusRAMA04_2IFC_2019_Jun_11_1449_720,2019_Jun_11_1449,2IFC,,RAMA04,
2IFC,60,0,60,0,3.8,-1,correct answer,0.700175058097,False,True,stimulusRAMA04_2IFC_2019_Jun_11_1449_721,stimulusRAMA04_2IFC_2019_Jun_11_1449_722,2019_Jun_11_1449,2IFC,,RAMA04,
2IFC,61,0,61,0,3.8,-1,correct answer,0.562259624247,False,True,stimulusRAMA04_2IFC_2019_Jun_11_1449_723,stimulusRAMA04_2IFC_2019_Jun_11_1449_724,2019_Jun_11_1449,2IFC,,RAMA04,
2IFC,62,0,62,0,3.8,-1,correct answer,0.602450232953,False,True,stimulusRAMA04_2IFC_2019_Jun_11_1449_725,stimulusRAMA04_2IFC_2019_Jun_11_1449_726,2019_Jun_11_1449,2IFC,,RAMA04,
2IFC,63,0,63,0,3.8,-1,correct answer,0.564077530988,False,True,stimulusRAMA04_2IFC_2019_Jun_11_1449_727,stimulusRAMA04_2IFC_2019_Jun_11_1449_728,2019_Jun_11_1449,2IFC,,RAMA04,
2IFC,64,0,64,0,3.8,-1,correct answer,0.368016986642,True,False,stimulusRAMA04_2IFC_2019_Jun_11_1449_729,stimulusRAMA04_2IFC_2019_Jun_11_1449_730,2019_Jun_11_1449,2IFC,,RAMA04,
2IFC,65,0,65,0,3.8,-1,correct answer,0.635288335849,True,False,stimulusRAMA04_2IFC_2019_Jun_11_1449_731,stimulusRAMA04_2IFC_2019_Jun_11_1449_732,2019_Jun_11_1449,2IFC,,RAMA04,
2IFC,66,0,66,0,3.8,-1,wrong answer,0.604081341531,True,False,stimulusRAMA04_2IFC_2019_Jun_11_1449_733,stimulusRAMA04_2IFC_2019_Jun_11_1449_734,2019_Jun_11_1449,2IFC,,RAMA04,
2IFC,67,0,67,0,3.8,-1,correct answer,0.703374048695,False,True,stimulusRAMA04_2IFC_2019_Jun_11_1449_735,stimulusRAMA04_2IFC_2019_Jun_11_1449_736,2019_Jun_11_1449,2IFC,,RAMA04,
2IFC,68,0,68,0,3.8,-1,wrong answer,0.736095556058,True,False,stimulusRAMA04_2IFC_2019_Jun_11_1449_737,stimulusRAMA04_2IFC_2019_Jun_11_1449_738,2019_Jun_11_1449,2IFC,,RAMA04,
2IFC,69,0,69,0,3.8,-1,no answer,-1,False,True,stimulusRAMA04_2IFC_2019_Jun_11_1449_739,stimulusRAMA04_2IFC_2019_Jun_11_1449_740,2019_Jun_11_1449,2IFC,,RAMA04,
2IFC,70,0,70,0,3.8,-1,correct answer,0.570645069703,False,True,stimulusRAMA04_2IFC_2019_Jun_11_1449_741,stimulusRAMA04_2IFC_2019_Jun_11_1449_742,2019_Jun_11_1449,2IFC,,RAMA04,
2IFC,71,0,71,0,3.8,-1,correct answer,0.466441385448,True,False,stimulusRAMA04_2IFC_2019_Jun_11_1449_743,stimulusRAMA04_2IFC_2019_Jun_11_1449_744,2019_Jun_11_1449,2IFC,,RAMA04,
2IFC,72,0,72,0,3.8,-1,correct answer,0.67167152185,True,False,stimulusRAMA04_2IFC_2019_Jun_11_1449_745,stimulusRAMA04_2IFC_2019_Jun_11_1449_746,2019_Jun_11_1449,2IFC,,RAMA04,
2IFC,73,0,73,0,3.8,-1,wrong answer,0.599847358186,False,True,stimulusRAMA04_2IFC_2019_Jun_11_1449_747,stimulusRAMA04_2IFC_2019_Jun_11_1449_748,2019_Jun_11_1449,2IFC,,RAMA04,
2IFC,74,0,74,0,3.8,-1,correct answer,0.366541887168,True,False,stimulusRAMA04_2IFC_2019_Jun_11_1449_749,stimulusRAMA04_2IFC_2019_Jun_11_1449_750,2019_Jun_11_1449,2IFC,,RAMA04,
2IFC,75,0,75,0,3.8,-1,wrong answer,0.602576682344,True,False,stimulusRAMA04_2IFC_2019_Jun_11_1449_751,stimulusRAMA04_2IFC_2019_Jun_11_1449_752,2019_Jun_11_1449,2IFC,,RAMA04,
2IFC,76,0,76,0,3.8,-1,no answer,-1,True,False,stimulusRAMA04_2IFC_2019_Jun_11_1449_753,stimulusRAMA04_2IFC_2019_Jun_11_1449_754,2019_Jun_11_1449,2IFC,,RAMA04,
2IFC,77,0,77,0,3.8,-1,correct answer,0.410628187936,False,True,stimulusRAMA04_2IFC_2019_Jun_11_1449_755,stimulusRAMA04_2IFC_2019_Jun_11_1449_756,2019_Jun_11_1449,2IFC,,RAMA04,
2IFC,78,0,78,0,3.8,-1,wrong answer,0.535872874316,True,False,stimulusRAMA04_2IFC_2019_Jun_11_1449_757,stimulusRAMA04_2IFC_2019_Jun_11_1449_758,2019_Jun_11_1449,2IFC,,RAMA04,
2IFC,79,0,79,0,3.8,-1,correct answer,0.434148490429,True,False,stimulusRAMA04_2IFC_2019_Jun_11_1449_759,stimulusRAMA04_2IFC_2019_Jun_11_1449_760,2019_Jun_11_1449,2IFC,,RAMA04,
2IFC,80,0,80,0,3.8,-1,correct answer,0.632450216915,True,False,stimulusRAMA04_2IFC_2019_Jun_11_1449_761,stimulusRAMA04_2IFC_2019_Jun_11_1449_762,2019_Jun_11_1449,2IFC,,RAMA04,
2IFC,81,0,81,0,3.8,-1,wrong answer,0.301227785181,False,True,stimulusRAMA04_2IFC_2019_Jun_11_1449_763,stimulusRAMA04_2IFC_2019_Jun_11_1449_764,2019_Jun_11_1449,2IFC,,RAMA04,
2IFC,82,0,82,0,3.8,-1,wrong answer,0.501709932927,True,False,stimulusRAMA04_2IFC_2019_Jun_11_1449_765,stimulusRAMA04_2IFC_2019_Jun_11_1449_766,2019_Jun_11_1449,2IFC,,RAMA04,
2IFC,83,0,83,0,3.8,-1,wrong answer,0.60137623921,True,False,stimulusRAMA04_2IFC_2019_Jun_11_1449_767,stimulusRAMA04_2IFC_2019_Jun_11_1449_768,2019_Jun_11_1449,2IFC,,RAMA04,
2IFC,84,0,84,0,3.8,-1,correct answer,0.6651733662,False,True,stimulusRAMA04_2IFC_2019_Jun_11_1449_769,stimulusRAMA04_2IFC_2019_Jun_11_1449_770,2019_Jun_11_1449,2IFC,,RAMA04,
2IFC,85,0,85,0,3.8,-1,no answer,-1,False,True,stimulusRAMA04_2IFC_2019_Jun_11_1449_771,stimulusRAMA04_2IFC_2019_Jun_11_1449_772,2019_Jun_11_1449,2IFC,,RAMA04,
2IFC,86,0,86,0,3.8,-1,wrong answer,0.566658647265,True,False,stimulusRAMA04_2IFC_2019_Jun_11_1449_773,stimulusRAMA04_2IFC_2019_Jun_11_1449_774,2019_Jun_11_1449,2IFC,,RAMA04,
2IFC,87,0,87,0,3.8,-1,correct answer,0.533346361015,False,True,stimulusRAMA04_2IFC_2019_Jun_11_1449_775,stimulusRAMA04_2IFC_2019_Jun_11_1449_776,2019_Jun_11_1449,2IFC,,RAMA04,
2IFC,88,0,88,0,3.8,-1,correct answer,0.606216191314,False,True,stimulusRAMA04_2IFC_2019_Jun_11_1449_777,stimulusRAMA04_2IFC_2019_Jun_11_1449_778,2019_Jun_11_1449,2IFC,,RAMA04,
2IFC,89,0,89,0,3.8,-1,correct answer,0.264699675608,True,False,stimulusRAMA04_2IFC_2019_Jun_11_1449_779,stimulusRAMA04_2IFC_2019_Jun_11_1449_780,2019_Jun_11_1449,2IFC,,RAMA04,
2IFC,90,0,90,0,3.8,-1,wrong answer,0.533876789734,True,False,stimulusRAMA04_2IFC_2019_Jun_11_1449_781,stimulusRAMA04_2IFC_2019_Jun_11_1449_782,2019_Jun_11_1449,2IFC,,RAMA04,
2IFC,91,0,91,0,3.8,-1,wrong answer,0.667542228941,True,False,stimulusRAMA04_2IFC_2019_Jun_11_1449_783,stimulusRAMA04_2IFC_2019_Jun_11_1449_784,2019_Jun_11_1449,2IFC,,RAMA04,
2IFC,92,0,92,0,3.8,-1,correct answer,0.634400730953,True,False,stimulusRAMA04_2IFC_2019_Jun_11_1449_785,stimulusRAMA04_2IFC_2019_Jun_11_1449_786,2019_Jun_11_1449,2IFC,,RAMA04,
2IFC,93,0,93,0,3.8,-1,correct answer,0.733816603199,True,False,stimulusRAMA04_2IFC_2019_Jun_11_1449_787,stimulusRAMA04_2IFC_2019_Jun_11_1449_788,2019_Jun_11_1449,2IFC,,RAMA04,
2IFC,94,0,94,0,3.8,-1,correct answer,0.667632960249,False,True,stimulusRAMA04_2IFC_2019_Jun_11_1449_789,stimulusRAMA04_2IFC_2019_Jun_11_1449_790,2019_Jun_11_1449,2IFC,,RAMA04,
2IFC,95,0,95,0,3.8,-1,correct answer,0.468662450556,True,False,stimulusRAMA04_2IFC_2019_Jun_11_1449_791,stimulusRAMA04_2IFC_2019_Jun_11_1449_792,2019_Jun_11_1449,2IFC,,RAMA04,
2IFC,96,0,96,0,3.8,-1,correct answer,0.400901070796,False,True,stimulusRAMA04_2IFC_2019_Jun_11_1449_793,stimulusRAMA04_2IFC_2019_Jun_11_1449_794,2019_Jun_11_1449,2IFC,,RAMA04,
2IFC,97,0,97,0,3.8,-1,correct answer,0.598844389431,False,True,stimulusRAMA04_2IFC_2019_Jun_11_1449_795,stimulusRAMA04_2IFC_2019_Jun_11_1449_796,2019_Jun_11_1449,2IFC,,RAMA04,
2IFC,98,0,98,0,3.8,-1,wrong answer,0.801958971657,True,False,stimulusRAMA04_2IFC_2019_Jun_11_1449_797,stimulusRAMA04_2IFC_2019_Jun_11_1449_798,2019_Jun_11_1449,2IFC,,RAMA04,
2IFC,99,0,99,0,3.8,-1,correct answer,0.534473316278,False,True,stimulusRAMA04_2IFC_2019_Jun_11_1449_799,stimulusRAMA04_2IFC_2019_Jun_11_1449_800,2019_Jun_11_1449,2IFC,,RAMA04,
2IFC,0,0,0,0,2.5,-1,correct answer,0.634801015723,False,True,stimulusRAMA04_2IFC_2019_Jun_11_1449_801,stimulusRAMA04_2IFC_2019_Jun_11_1449_802,2019_Jun_11_1449,2IFC,,RAMA04,
2IFC,1,0,1,0,2.5,-1,wrong answer,0.50099886395,True,False,stimulusRAMA04_2IFC_2019_Jun_11_1449_803,stimulusRAMA04_2IFC_2019_Jun_11_1449_804,2019_Jun_11_1449,2IFC,,RAMA04,
2IFC,2,0,2,0,2.5,-1,correct answer,0.600046884734,True,False,stimulusRAMA04_2IFC_2019_Jun_11_1449_805,stimulusRAMA04_2IFC_2019_Jun_11_1449_806,2019_Jun_11_1449,2IFC,,RAMA04,
2IFC,3,0,3,0,2.5,-1,correct answer,0.733781706542,True,False,stimulusRAMA04_2IFC_2019_Jun_11_1449_807,stimulusRAMA04_2IFC_2019_Jun_11_1449_808,2019_Jun_11_1449,2IFC,,RAMA04,
2IFC,4,0,4,0,2.5,-1,correct answer,0.340078365523,True,False,stimulusRAMA04_2IFC_2019_Jun_11_1449_809,stimulusRAMA04_2IFC_2019_Jun_11_1449_810,2019_Jun_11_1449,2IFC,,RAMA04,
2IFC,5,0,5,0,2.5,-1,correct answer,0.300547917839,False,True,stimulusRAMA04_2IFC_2019_Jun_11_1449_811,stimulusRAMA04_2IFC_2019_Jun_11_1449_812,2019_Jun_11_1449,2IFC,,RAMA04,
2IFC,6,0,6,0,2.5,-1,wrong answer,0.600324825849,False,True,stimulusRAMA04_2IFC_2019_Jun_11_1449_813,stimulusRAMA04_2IFC_2019_Jun_11_1449_814,2019_Jun_11_1449,2IFC,,RAMA04,
2IFC,7,0,7,0,2.5,-1,wrong answer,0.569013962056,True,False,stimulusRAMA04_2IFC_2019_Jun_11_1449_815,stimulusRAMA04_2IFC_2019_Jun_11_1449_816,2019_Jun_11_1449,2IFC,,RAMA04,
2IFC,8,0,8,0,2.5,-1,correct answer,0.597238324583,False,True,stimulusRAMA04_2IFC_2019_Jun_11_1449_817,stimulusRAMA04_2IFC_2019_Jun_11_1449_818,2019_Jun_11_1449,2IFC,,RAMA04,
2IFC,9,0,9,0,2.5,-1,correct answer,0.536627051421,True,False,stimulusRAMA04_2IFC_2019_Jun_11_1449_819,stimulusRAMA04_2IFC_2019_Jun_11_1449_820,2019_Jun_11_1449,2IFC,,RAMA04,
2IFC,10,0,10,0,2.5,-1,correct answer,0.60063478956,False,True,stimulusRAMA04_2IFC_2019_Jun_11_1449_821,stimulusRAMA04_2IFC_2019_Jun_11_1449_822,2019_Jun_11_1449,2IFC,,RAMA04,
2IFC,11,0,11,0,2.5,-1,correct answer,0.597949394025,True,False,stimulusRAMA04_2IFC_2019_Jun_11_1449_823,stimulusRAMA04_2IFC_2019_Jun_11_1449_824,2019_Jun_11_1449,2IFC,,RAMA04,
2IFC,12,0,12,0,2.5,-1,wrong answer,0.633389551193,False,True,stimulusRAMA04_2IFC_2019_Jun_11_1449_825,stimulusRAMA04_2IFC_2019_Jun_11_1449_826,2019_Jun_11_1449,2IFC,,RAMA04,
2IFC,13,0,13,0,2.5,-1,wrong answer,0.468245333526,True,False,stimulusRAMA04_2IFC_2019_Jun_11_1449_827,stimulusRAMA04_2IFC_2019_Jun_11_1449_828,2019_Jun_11_1449,2IFC,,RAMA04,
2IFC,14,0,14,0,2.5,-1,correct answer,0.502280594781,False,True,stimulusRAMA04_2IFC_2019_Jun_11_1449_829,stimulusRAMA04_2IFC_2019_Jun_11_1449_830,2019_Jun_11_1449,2IFC,,RAMA04,
2IFC,15,0,15,0,2.5,-1,wrong answer,0.670252257027,True,False,stimulusRAMA04_2IFC_2019_Jun_11_1449_831,stimulusRAMA04_2IFC_2019_Jun_11_1449_832,2019_Jun_11_1449,2IFC,,RAMA04,
2IFC,16,0,16,0,2.5,-1,correct answer,0.534206870478,False,True,stimulusRAMA04_2IFC_2019_Jun_11_1449_833,stimulusRAMA04_2IFC_2019_Jun_11_1449_834,2019_Jun_11_1449,2IFC,,RAMA04,
2IFC,17,0,17,0,2.5,-1,wrong answer,0.632909209933,True,False,stimulusRAMA04_2IFC_2019_Jun_11_1449_835,stimulusRAMA04_2IFC_2019_Jun_11_1449_836,2019_Jun_11_1449,2IFC,,RAMA04,
2IFC,18,0,18,0,2.5,-1,wrong answer,0.468088915106,True,False,stimulusRAMA04_2IFC_2019_Jun_11_1449_837,stimulusRAMA04_2IFC_2019_Jun_11_1449_838,2019_Jun_11_1449,2IFC,,RAMA04,
2IFC,19,0,19,0,2.5,-1,correct answer,0.379935199395,False,True,stimulusRAMA04_2IFC_2019_Jun_11_1449_839,stimulusRAMA04_2IFC_2019_Jun_11_1449_840,2019_Jun_11_1449,2IFC,,RAMA04,
2IFC,20,0,20,0,2.5,-1,correct answer,0.535630651284,False,True,stimulusRAMA04_2IFC_2019_Jun_11_1449_841,stimulusRAMA04_2IFC_2019_Jun_11_1449_842,2019_Jun_11_1449,2IFC,,RAMA04,
2IFC,21,0,21,0,2.5,-1,correct answer,0.533313107211,False,True,stimulusRAMA04_2IFC_2019_Jun_11_1449_843,stimulusRAMA04_2IFC_2019_Jun_11_1449_844,2019_Jun_11_1449,2IFC,,RAMA04,
2IFC,22,0,22,0,2.5,-1,correct answer,0.434078286402,False,True,stimulusRAMA04_2IFC_2019_Jun_11_1449_845,stimulusRAMA04_2IFC_2019_Jun_11_1449_846,2019_Jun_11_1449,2IFC,,RAMA04,
2IFC,23,0,23,0,2.5,-1,correct answer,0.509915968869,False,True,stimulusRAMA04_2IFC_2019_Jun_11_1449_847,stimulusRAMA04_2IFC_2019_Jun_11_1449_848,2019_Jun_11_1449,2IFC,,RAMA04,
2IFC,24,0,24,0,2.5,-1,correct answer,0.601620515343,True,False,stimulusRAMA04_2IFC_2019_Jun_11_1449_849,stimulusRAMA04_2IFC_2019_Jun_11_1449_850,2019_Jun_11_1449,2IFC,,RAMA04,
2IFC,25,0,25,0,2.5,-1,correct answer,0.396870309487,True,False,stimulusRAMA04_2IFC_2019_Jun_11_1449_851,stimulusRAMA04_2IFC_2019_Jun_11_1449_852,2019_Jun_11_1449,2IFC,,RAMA04,
2IFC,26,0,26,0,2.5,-1,wrong answer,0.366458956618,False,True,stimulusRAMA04_2IFC_2019_Jun_11_1449_853,stimulusRAMA04_2IFC_2019_Jun_11_1449_854,2019_Jun_11_1449,2IFC,,RAMA04,
2IFC,27,0,27,0,2.5,-1,wrong answer,0.535566605628,True,False,stimulusRAMA04_2IFC_2019_Jun_11_1449_855,stimulusRAMA04_2IFC_2019_Jun_11_1449_856,2019_Jun_11_1449,2IFC,,RAMA04,
2IFC,28,0,28,0,2.5,-1,wrong answer,0.432277622633,False,True,stimulusRAMA04_2IFC_2019_Jun_11_1449_857,stimulusRAMA04_2IFC_2019_Jun_11_1449_858,2019_Jun_11_1449,2IFC,,RAMA04,
2IFC,29,0,29,0,2.5,-1,correct answer,0.298597813584,False,True,stimulusRAMA04_2IFC_2019_Jun_11_1449_859,stimulusRAMA04_2IFC_2019_Jun_11_1449_860,2019_Jun_11_1449,2IFC,,RAMA04,
2IFC,30,0,30,0,2.5,-1,wrong answer,0.60479076812,False,True,stimulusRAMA04_2IFC_2019_Jun_11_1449_861,stimulusRAMA04_2IFC_2019_Jun_11_1449_862,2019_Jun_11_1449,2IFC,,RAMA04,
2IFC,31,0,31,0,2.5,-1,wrong answer,0.366132570896,True,False,stimulusRAMA04_2IFC_2019_Jun_11_1449_863,stimulusRAMA04_2IFC_2019_Jun_11_1449_864,2019_Jun_11_1449,2IFC,,RAMA04,
2IFC,32,0,32,0,2.5,-1,correct answer,0.40160557162,False,True,stimulusRAMA04_2IFC_2019_Jun_11_1449_865,stimulusRAMA04_2IFC_2019_Jun_11_1449_866,2019_Jun_11_1449,2IFC,,RAMA04,
2IFC,33,0,33,0,2.5,-1,no answer,-1,False,True,stimulusRAMA04_2IFC_2019_Jun_11_1449_867,stimulusRAMA04_2IFC_2019_Jun_11_1449_868,2019_Jun_11_1449,2IFC,,RAMA04,
2IFC,34,0,34,0,2.5,-1,wrong answer,0.566275195684,True,False,stimulusRAMA04_2IFC_2019_Jun_11_1449_869,stimulusRAMA04_2IFC_2019_Jun_11_1449_870,2019_Jun_11_1449,2IFC,,RAMA04,
2IFC,35,0,35,0,2.5,-1,correct answer,0.735527768265,True,False,stimulusRAMA04_2IFC_2019_Jun_11_1449_871,stimulusRAMA04_2IFC_2019_Jun_11_1449_872,2019_Jun_11_1449,2IFC,,RAMA04,
2IFC,36,0,36,0,2.5,-1,wrong answer,0.636131602339,True,False,stimulusRAMA04_2IFC_2019_Jun_11_1449_873,stimulusRAMA04_2IFC_2019_Jun_11_1449_874,2019_Jun_11_1449,2IFC,,RAMA04,
2IFC,37,0,37,0,2.5,-1,wrong answer,0.66793471342,True,False,stimulusRAMA04_2IFC_2019_Jun_11_1449_875,stimulusRAMA04_2IFC_2019_Jun_11_1449_876,2019_Jun_11_1449,2IFC,,RAMA04,
2IFC,38,0,38,0,2.5,-1,correct answer,0.744650557637,True,False,stimulusRAMA04_2IFC_2019_Jun_11_1449_877,stimulusRAMA04_2IFC_2019_Jun_11_1449_878,2019_Jun_11_1449,2IFC,,RAMA04,
2IFC,39,0,39,0,2.5,-1,correct answer,0.735840605572,False,True,stimulusRAMA04_2IFC_2019_Jun_11_1449_879,stimulusRAMA04_2IFC_2019_Jun_11_1449_880,2019_Jun_11_1449,2IFC,,RAMA04,
2IFC,40,0,40,0,2.5,-1,wrong answer,0.534367804881,True,False,stimulusRAMA04_2IFC_2019_Jun_11_1449_881,stimulusRAMA04_2IFC_2019_Jun_11_1449_882,2019_Jun_11_1449,2IFC,,RAMA04,
2IFC,41,0,41,0,2.5,-1,wrong answer,0.53381726006,True,False,stimulusRAMA04_2IFC_2019_Jun_11_1449_883,stimulusRAMA04_2IFC_2019_Jun_11_1449_884,2019_Jun_11_1449,2IFC,,RAMA04,
2IFC,42,0,42,0,2.5,-1,correct answer,0.597366005182,False,True,stimulusRAMA04_2IFC_2019_Jun_11_1449_885,stimulusRAMA04_2IFC_2019_Jun_11_1449_886,2019_Jun_11_1449,2IFC,,RAMA04,
2IFC,43,0,43,0,2.5,-1,wrong answer,0.833873751573,True,False,stimulusRAMA04_2IFC_2019_Jun_11_1449_887,stimulusRAMA04_2IFC_2019_Jun_11_1449_888,2019_Jun_11_1449,2IFC,,RAMA04,
2IFC,44,0,44,0,2.5,-1,correct answer,0.699862630572,True,False,stimulusRAMA04_2IFC_2019_Jun_11_1449_889,stimulusRAMA04_2IFC_2019_Jun_11_1449_890,2019_Jun_11_1449,2IFC,,RAMA04,
2IFC,45,0,45,0,2.5,-1,wrong answer,0.766530309804,False,True,stimulusRAMA04_2IFC_2019_Jun_11_1449_891,stimulusRAMA04_2IFC_2019_Jun_11_1449_892,2019_Jun_11_1449,2IFC,,RAMA04,
2IFC,46,0,46,0,2.5,-1,correct answer,0.46770217875,True,False,stimulusRAMA04_2IFC_2019_Jun_11_1449_893,stimulusRAMA04_2IFC_2019_Jun_11_1449_894,2019_Jun_11_1449,2IFC,,RAMA04,
2IFC,47,0,47,0,2.5,-1,wrong answer,0.502354493365,False,True,stimulusRAMA04_2IFC_2019_Jun_11_1449_895,stimulusRAMA04_2IFC_2019_Jun_11_1449_896,2019_Jun_11_1449,2IFC,,RAMA04,
2IFC,48,0,48,0,2.5,-1,correct answer,0.361859175377,False,True,stimulusRAMA04_2IFC_2019_Jun_11_1449_897,stimulusRAMA04_2IFC_2019_Jun_11_1449_898,2019_Jun_11_1449,2IFC,,RAMA04,
2IFC,49,0,49,0,2.5,-1,wrong answer,0.641568901483,True,False,stimulusRAMA04_2IFC_2019_Jun_11_1449_899,stimulusRAMA04_2IFC_2019_Jun_11_1449_900,2019_Jun_11_1449,2IFC,,RAMA04,
2IFC,50,0,50,0,2.5,-1,correct answer,0.732875627,True,False,stimulusRAMA04_2IFC_2019_Jun_11_1449_901,stimulusRAMA04_2IFC_2019_Jun_11_1449_902,2019_Jun_11_1449,2IFC,,RAMA04,
2IFC,51,0,51,0,2.5,-1,wrong answer,0.633414183743,False,True,stimulusRAMA04_2IFC_2019_Jun_11_1449_903,stimulusRAMA04_2IFC_2019_Jun_11_1449_904,2019_Jun_11_1449,2IFC,,RAMA04,
2IFC,52,0,52,0,2.5,-1,correct answer,0.466918031685,False,True,stimulusRAMA04_2IFC_2019_Jun_11_1449_905,stimulusRAMA04_2IFC_2019_Jun_11_1449_906,2019_Jun_11_1449,2IFC,,RAMA04,
2IFC,53,0,53,0,2.5,-1,correct answer,0.666562661063,False,True,stimulusRAMA04_2IFC_2019_Jun_11_1449_907,stimulusRAMA04_2IFC_2019_Jun_11_1449_908,2019_Jun_11_1449,2IFC,,RAMA04,
2IFC,54,0,54,0,2.5,-1,wrong answer,0.435271749739,True,False,stimulusRAMA04_2IFC_2019_Jun_11_1449_909,stimulusRAMA04_2IFC_2019_Jun_11_1449_910,2019_Jun_11_1449,2IFC,,RAMA04,
2IFC,55,0,55,0,2.5,-1,correct answer,0.533112348989,False,True,stimulusRAMA04_2IFC_2019_Jun_11_1449_911,stimulusRAMA04_2IFC_2019_Jun_11_1449_912,2019_Jun_11_1449,2IFC,,RAMA04,
2IFC,56,0,56,0,2.5,-1,correct answer,0.633644090965,False,True,stimulusRAMA04_2IFC_2019_Jun_11_1449_913,stimulusRAMA04_2IFC_2019_Jun_11_1449_914,2019_Jun_11_1449,2IFC,,RAMA04,
2IFC,57,0,57,0,2.5,-1,wrong answer,0.568231867626,True,False,stimulusRAMA04_2IFC_2019_Jun_11_1449_915,stimulusRAMA04_2IFC_2019_Jun_11_1449_916,2019_Jun_11_1449,2IFC,,RAMA04,
2IFC,58,0,58,0,2.5,-1,wrong answer,0.509813331999,True,False,stimulusRAMA04_2IFC_2019_Jun_11_1449_917,stimulusRAMA04_2IFC_2019_Jun_11_1449_918,2019_Jun_11_1449,2IFC,,RAMA04,
2IFC,59,0,59,0,2.5,-1,no answer,-1,True,False,stimulusRAMA04_2IFC_2019_Jun_11_1449_919,stimulusRAMA04_2IFC_2019_Jun_11_1449_920,2019_Jun_11_1449,2IFC,,RAMA04,
2IFC,60,0,60,0,2.5,-1,correct answer,0.501845824067,False,True,stimulusRAMA04_2IFC_2019_Jun_11_1449_921,stimulusRAMA04_2IFC_2019_Jun_11_1449_922,2019_Jun_11_1449,2IFC,,RAMA04,
2IFC,61,0,61,0,2.5,-1,correct answer,0.602484719362,True,False,stimulusRAMA04_2IFC_2019_Jun_11_1449_923,stimulusRAMA04_2IFC_2019_Jun_11_1449_924,2019_Jun_11_1449,2IFC,,RAMA04,
2IFC,62,0,62,0,2.5,-1,correct answer,0.506754748523,False,True,stimulusRAMA04_2IFC_2019_Jun_11_1449_925,stimulusRAMA04_2IFC_2019_Jun_11_1449_926,2019_Jun_11_1449,2IFC,,RAMA04,
2IFC,63,0,63,0,2.5,-1,correct answer,0.867769836914,True,False,stimulusRAMA04_2IFC_2019_Jun_11_1449_927,stimulusRAMA04_2IFC_2019_Jun_11_1449_928,2019_Jun_11_1449,2IFC,,RAMA04,
2IFC,64,0,64,0,2.5,-1,wrong answer,0.697735170368,False,True,stimulusRAMA04_2IFC_2019_Jun_11_1449_929,stimulusRAMA04_2IFC_2019_Jun_11_1449_930,2019_Jun_11_1449,2IFC,,RAMA04,
2IFC,65,0,65,0,2.5,-1,correct answer,0.566588443704,False,True,stimulusRAMA04_2IFC_2019_Jun_11_1449_931,stimulusRAMA04_2IFC_2019_Jun_11_1449_932,2019_Jun_11_1449,2IFC,,RAMA04,
2IFC,66,0,66,0,2.5,-1,wrong answer,0.634949633852,False,True,stimulusRAMA04_2IFC_2019_Jun_11_1449_933,stimulusRAMA04_2IFC_2019_Jun_11_1449_934,2019_Jun_11_1449,2IFC,,RAMA04,
2IFC,67,0,67,0,2.5,-1,correct answer,0.665590893477,False,True,stimulusRAMA04_2IFC_2019_Jun_11_1449_935,stimulusRAMA04_2IFC_2019_Jun_11_1449_936,2019_Jun_11_1449,2IFC,,RAMA04,
2IFC,68,0,68,0,2.5,-1,no answer,-1,False,True,stimulusRAMA04_2IFC_2019_Jun_11_1449_937,stimulusRAMA04_2IFC_2019_Jun_11_1449_938,2019_Jun_11_1449,2IFC,,RAMA04,
2IFC,69,0,69,0,2.5,-1,correct answer,0.566695596557,False,True,stimulusRAMA04_2IFC_2019_Jun_11_1449_939,stimulusRAMA04_2IFC_2019_Jun_11_1449_940,2019_Jun_11_1449,2IFC,,RAMA04,
2IFC,70,0,70,0,2.5,-1,correct answer,0.70111398166,False,True,stimulusRAMA04_2IFC_2019_Jun_11_1449_941,stimulusRAMA04_2IFC_2019_Jun_11_1449_942,2019_Jun_11_1449,2IFC,,RAMA04,
2IFC,71,0,71,0,2.5,-1,correct answer,0.73427682789,True,False,stimulusRAMA04_2IFC_2019_Jun_11_1449_943,stimulusRAMA04_2IFC_2019_Jun_11_1449_944,2019_Jun_11_1449,2IFC,,RAMA04,
2IFC,72,0,72,0,2.5,-1,correct answer,0.535754636861,False,True,stimulusRAMA04_2IFC_2019_Jun_11_1449_945,stimulusRAMA04_2IFC_2019_Jun_11_1449_946,2019_Jun_11_1449,2IFC,,RAMA04,
2IFC,73,0,73,0,2.5,-1,correct answer,0.535690180492,False,True,stimulusRAMA04_2IFC_2019_Jun_11_1449_947,stimulusRAMA04_2IFC_2019_Jun_11_1449_948,2019_Jun_11_1449,2IFC,,RAMA04,
2IFC,74,0,74,0,2.5,-1,correct answer,0.671809876803,True,False,stimulusRAMA04_2IFC_2019_Jun_11_1449_949,stimulusRAMA04_2IFC_2019_Jun_11_1449_950,2019_Jun_11_1449,2IFC,,RAMA04,
2IFC,75,0,75,0,2.5,-1,correct answer,0.665500573348,True,False,stimulusRAMA04_2IFC_2019_Jun_11_1449_951,stimulusRAMA04_2IFC_2019_Jun_11_1449_952,2019_Jun_11_1449,2IFC,,RAMA04,
2IFC,76,0,76,0,2.5,-1,correct answer,0.598914592993,False,True,stimulusRAMA04_2IFC_2019_Jun_11_1449_953,stimulusRAMA04_2IFC_2019_Jun_11_1449_954,2019_Jun_11_1449,2IFC,,RAMA04,
2IFC,77,0,77,0,2.5,-1,correct answer,0.733724640217,False,True,stimulusRAMA04_2IFC_2019_Jun_11_1449_955,stimulusRAMA04_2IFC_2019_Jun_11_1449_956,2019_Jun_11_1449,2IFC,,RAMA04,
2IFC,78,0,78,0,2.5,-1,wrong answer,0.558311382774,True,False,stimulusRAMA04_2IFC_2019_Jun_11_1449_957,stimulusRAMA04_2IFC_2019_Jun_11_1449_958,2019_Jun_11_1449,2IFC,,RAMA04,
2IFC,79,0,79,0,2.5,-1,wrong answer,0.469906821847,True,False,stimulusRAMA04_2IFC_2019_Jun_11_1449_959,stimulusRAMA04_2IFC_2019_Jun_11_1449_960,2019_Jun_11_1449,2IFC,,RAMA04,
2IFC,80,0,80,0,2.5,-1,correct answer,0.502216138877,False,True,stimulusRAMA04_2IFC_2019_Jun_11_1449_961,stimulusRAMA04_2IFC_2019_Jun_11_1449_962,2019_Jun_11_1449,2IFC,,RAMA04,
2IFC,81,0,81,0,2.5,-1,wrong answer,0.60456989333,True,False,stimulusRAMA04_2IFC_2019_Jun_11_1449_963,stimulusRAMA04_2IFC_2019_Jun_11_1449_964,2019_Jun_11_1449,2IFC,,RAMA04,
2IFC,82,0,82,0,2.5,-1,wrong answer,0.566419297829,True,False,stimulusRAMA04_2IFC_2019_Jun_11_1449_965,stimulusRAMA04_2IFC_2019_Jun_11_1449_966,2019_Jun_11_1449,2IFC,,RAMA04,
2IFC,83,0,83,0,2.5,-1,correct answer,0.734658226836,False,True,stimulusRAMA04_2IFC_2019_Jun_11_1449_967,stimulusRAMA04_2IFC_2019_Jun_11_1449_968,2019_Jun_11_1449,2IFC,,RAMA04,
2IFC,84,0,84,0,2.5,-1,wrong answer,0.733739009593,False,True,stimulusRAMA04_2IFC_2019_Jun_11_1449_969,stimulusRAMA04_2IFC_2019_Jun_11_1449_970,2019_Jun_11_1449,2IFC,,RAMA04,
2IFC,85,0,85,0,2.5,-1,no answer,-1,True,False,stimulusRAMA04_2IFC_2019_Jun_11_1449_971,stimulusRAMA04_2IFC_2019_Jun_11_1449_972,2019_Jun_11_1449,2IFC,,RAMA04,
2IFC,86,0,86,0,2.5,-1,correct answer,0.734432014637,True,False,stimulusRAMA04_2IFC_2019_Jun_11_1449_973,stimulusRAMA04_2IFC_2019_Jun_11_1449_974,2019_Jun_11_1449,2IFC,,RAMA04,
2IFC,87,0,87,0,2.5,-1,wrong answer,0.733820298221,True,False,stimulusRAMA04_2IFC_2019_Jun_11_1449_975,stimulusRAMA04_2IFC_2019_Jun_11_1449_976,2019_Jun_11_1449,2IFC,,RAMA04,
2IFC,88,0,88,0,2.5,-1,no answer,-1,True,False,stimulusRAMA04_2IFC_2019_Jun_11_1449_977,stimulusRAMA04_2IFC_2019_Jun_11_1449_978,2019_Jun_11_1449,2IFC,,RAMA04,
2IFC,89,0,89,0,2.5,-1,wrong answer,0.535532119684,True,False,stimulusRAMA04_2IFC_2019_Jun_11_1449_979,stimulusRAMA04_2IFC_2019_Jun_11_1449_980,2019_Jun_11_1449,2IFC,,RAMA04,
2IFC,90,0,90,0,2.5,-1,correct answer,0.566577358637,False,True,stimulusRAMA04_2IFC_2019_Jun_11_1449_981,stimulusRAMA04_2IFC_2019_Jun_11_1449_982,2019_Jun_11_1449,2IFC,,RAMA04,
2IFC,91,0,91,0,2.5,-1,correct answer,0.602201852016,True,False,stimulusRAMA04_2IFC_2019_Jun_11_1449_983,stimulusRAMA04_2IFC_2019_Jun_11_1449_984,2019_Jun_11_1449,2IFC,,RAMA04,
2IFC,92,0,92,0,2.5,-1,correct answer,0.464929336216,False,True,stimulusRAMA04_2IFC_2019_Jun_11_1449_985,stimulusRAMA04_2IFC_2019_Jun_11_1449_986,2019_Jun_11_1449,2IFC,,RAMA04,
2IFC,93,0,93,0,2.5,-1,wrong answer,0.601309730671,True,False,stimulusRAMA04_2IFC_2019_Jun_11_1449_987,stimulusRAMA04_2IFC_2019_Jun_11_1449_988,2019_Jun_11_1449,2IFC,,RAMA04,
2IFC,94,0,94,0,2.5,-1,correct answer,0.602318858262,False,True,stimulusRAMA04_2IFC_2019_Jun_11_1449_989,stimulusRAMA04_2IFC_2019_Jun_11_1449_990,2019_Jun_11_1449,2IFC,,RAMA04,
2IFC,95,0,95,0,2.5,-1,wrong answer,0.635318716522,False,True,stimulusRAMA04_2IFC_2019_Jun_11_1449_991,stimulusRAMA04_2IFC_2019_Jun_11_1449_992,2019_Jun_11_1449,2IFC,,RAMA04,
2IFC,96,0,96,0,2.5,-1,correct answer,0.535303444602,False,True,stimulusRAMA04_2IFC_2019_Jun_11_1449_993,stimulusRAMA04_2IFC_2019_Jun_11_1449_994,2019_Jun_11_1449,2IFC,,RAMA04,
2IFC,97,0,97,0,2.5,-1,wrong answer,0.572054891847,True,False,stimulusRAMA04_2IFC_2019_Jun_11_1449_995,stimulusRAMA04_2IFC_2019_Jun_11_1449_996,2019_Jun_11_1449,2IFC,,RAMA04,
2IFC,98,0,98,0,2.5,-1,correct answer,0.467475555837,False,True,stimulusRAMA04_2IFC_2019_Jun_11_1449_997,stimulusRAMA04_2IFC_2019_Jun_11_1449_998,2019_Jun_11_1449,2IFC,,RAMA04,
2IFC,99,0,99,0,2.5,-1,wrong answer,0.702295128722,True,False,stimulusRAMA04_2IFC_2019_Jun_11_1449_999,stimulusRAMA04_2IFC_2019_Jun_11_1449_1000,2019_Jun_11_1449,2IFC,,RAMA04,
2IFC,0,0,0,0,7,-1,correct answer,0.5018659411,True,False,stimulusRAMA04_2IFC_2019_Jun_11_1449_1001,stimulusRAMA04_2IFC_2019_Jun_11_1449_1002,2019_Jun_11_1449,2IFC,,RAMA04,
2IFC,1,0,1,0,7,-1,correct answer,0.465383813251,False,True,stimulusRAMA04_2IFC_2019_Jun_11_1449_1003,stimulusRAMA04_2IFC_2019_Jun_11_1449_1004,2019_Jun_11_1449,2IFC,,RAMA04,
2IFC,2,0,2,0,7,-1,correct answer,0.5351917753,False,True,stimulusRAMA04_2IFC_2019_Jun_11_1449_1005,stimulusRAMA04_2IFC_2019_Jun_11_1449_1006,2019_Jun_11_1449,2IFC,,RAMA04,
2IFC,3,0,3,0,7,-1,correct answer,0.501886879094,False,True,stimulusRAMA04_2IFC_2019_Jun_11_1449_1007,stimulusRAMA04_2IFC_2019_Jun_11_1449_1008,2019_Jun_11_1449,2IFC,,RAMA04,
2IFC,4,0,4,0,7,-1,correct answer,0.53335990943,False,True,stimulusRAMA04_2IFC_2019_Jun_11_1449_1009,stimulusRAMA04_2IFC_2019_Jun_11_1449_1010,2019_Jun_11_1449,2IFC,,RAMA04,
2IFC,5,0,5,0,7,-1,correct answer,0.499728217255,False,True,stimulusRAMA04_2IFC_2019_Jun_11_1449_1011,stimulusRAMA04_2IFC_2019_Jun_11_1449_1012,2019_Jun_11_1449,2IFC,,RAMA04,
2IFC,6,0,6,0,7,-1,correct answer,0.633865786716,False,True,stimulusRAMA04_2IFC_2019_Jun_11_1449_1013,stimulusRAMA04_2IFC_2019_Jun_11_1449_1014,2019_Jun_11_1449,2IFC,,RAMA04,
2IFC,7,0,7,0,7,-1,correct answer,0.371087476145,True,False,stimulusRAMA04_2IFC_2019_Jun_11_1449_1015,stimulusRAMA04_2IFC_2019_Jun_11_1449_1016,2019_Jun_11_1449,2IFC,,RAMA04,
2IFC,8,0,8,0,7,-1,correct answer,0.433543342631,False,True,stimulusRAMA04_2IFC_2019_Jun_11_1449_1017,stimulusRAMA04_2IFC_2019_Jun_11_1449_1018,2019_Jun_11_1449,2IFC,,RAMA04,
2IFC,9,0,9,0,7,-1,correct answer,0.400750399567,True,False,stimulusRAMA04_2IFC_2019_Jun_11_1449_1019,stimulusRAMA04_2IFC_2019_Jun_11_1449_1020,2019_Jun_11_1449,2IFC,,RAMA04,
2IFC,10,0,10,0,7,-1,correct answer,0.436307152268,True,False,stimulusRAMA04_2IFC_2019_Jun_11_1449_1021,stimulusRAMA04_2IFC_2019_Jun_11_1449_1022,2019_Jun_11_1449,2IFC,,RAMA04,
2IFC,11,0,11,0,7,-1,correct answer,0.367476295214,False,True,stimulusRAMA04_2IFC_2019_Jun_11_1449_1023,stimulusRAMA04_2IFC_2019_Jun_11_1449_1024,2019_Jun_11_1449,2IFC,,RAMA04,
2IFC,12,0,12,0,7,-1,correct answer,0.499710973818,True,False,stimulusRAMA04_2IFC_2019_Jun_11_1449_1025,stimulusRAMA04_2IFC_2019_Jun_11_1449_1026,2019_Jun_11_1449,2IFC,,RAMA04,
2IFC,13,0,13,0,7,-1,correct answer,0.269477224443,True,False,stimulusRAMA04_2IFC_2019_Jun_11_1449_1027,stimulusRAMA04_2IFC_2019_Jun_11_1449_1028,2019_Jun_11_1449,2IFC,,RAMA04,
2IFC,14,0,14,0,7,-1,correct answer,0.467481303494,False,True,stimulusRAMA04_2IFC_2019_Jun_11_1449_1029,stimulusRAMA04_2IFC_2019_Jun_11_1449_1030,2019_Jun_11_1449,2IFC,,RAMA04,
2IFC,15,0,15,0,7,-1,correct answer,0.534507801756,True,False,stimulusRAMA04_2IFC_2019_Jun_11_1449_1031,stimulusRAMA04_2IFC_2019_Jun_11_1449_1032,2019_Jun_11_1449,2IFC,,RAMA04,
2IFC,16,0,16,0,7,-1,correct answer,0.534791080281,False,True,stimulusRAMA04_2IFC_2019_Jun_11_1449_1033,stimulusRAMA04_2IFC_2019_Jun_11_1449_1034,2019_Jun_11_1449,2IFC,,RAMA04,
2IFC,17,0,17,0,7,-1,wrong answer,0.536249347031,True,False,stimulusRAMA04_2IFC_2019_Jun_11_1449_1035,stimulusRAMA04_2IFC_2019_Jun_11_1449_1036,2019_Jun_11_1449,2IFC,,RAMA04,
2IFC,18,0,18,0,7,-1,correct answer,0.569222109858,True,False,stimulusRAMA04_2IFC_2019_Jun_11_1449_1037,stimulusRAMA04_2IFC_2019_Jun_11_1449_1038,2019_Jun_11_1449,2IFC,,RAMA04,
2IFC,19,0,19,0,7,-1,correct answer,0.368097454309,False,True,stimulusRAMA04_2IFC_2019_Jun_11_1449_1039,stimulusRAMA04_2IFC_2019_Jun_11_1449_1040,2019_Jun_11_1449,2IFC,,RAMA04,
2IFC,20,0,20,0,7,-1,wrong answer,0.70230990788,True,False,stimulusRAMA04_2IFC_2019_Jun_11_1449_1041,stimulusRAMA04_2IFC_2019_Jun_11_1449_1042,2019_Jun_11_1449,2IFC,,RAMA04,
2IFC,21,0,21,0,7,-1,correct answer,0.671536451671,False,True,stimulusRAMA04_2IFC_2019_Jun_11_1449_1043,stimulusRAMA04_2IFC_2019_Jun_11_1449_1044,2019_Jun_11_1449,2IFC,,RAMA04,
2IFC,22,0,22,0,7,-1,correct answer,0.566225518938,False,True,stimulusRAMA04_2IFC_2019_Jun_11_1449_1045,stimulusRAMA04_2IFC_2019_Jun_11_1449_1046,2019_Jun_11_1449,2IFC,,RAMA04,
2IFC,23,0,23,0,7,-1,correct answer,0.369950668421,True,False,stimulusRAMA04_2IFC_2019_Jun_11_1449_1047,stimulusRAMA04_2IFC_2019_Jun_11_1449_1048,2019_Jun_11_1449,2IFC,,RAMA04,
2IFC,24,0,24,0,7,-1,correct answer,0.633445796091,True,False,stimulusRAMA04_2IFC_2019_Jun_11_1449_1049,stimulusRAMA04_2IFC_2019_Jun_11_1449_1050,2019_Jun_11_1449,2IFC,,RAMA04,
2IFC,25,0,25,0,7,-1,correct answer,0.677584236022,True,False,stimulusRAMA04_2IFC_2019_Jun_11_1449_1051,stimulusRAMA04_2IFC_2019_Jun_11_1449_1052,2019_Jun_11_1449,2IFC,,RAMA04,
2IFC,26,0,26,0,7,-1,correct answer,0.466125263367,False,True,stimulusRAMA04_2IFC_2019_Jun_11_1449_1053,stimulusRAMA04_2IFC_2019_Jun_11_1449_1054,2019_Jun_11_1449,2IFC,,RAMA04,
2IFC,27,0,27,0,7,-1,correct answer,0.669180315919,True,False,stimulusRAMA04_2IFC_2019_Jun_11_1449_1055,stimulusRAMA04_2IFC_2019_Jun_11_1449_1056,2019_Jun_11_1449,2IFC,,RAMA04,
2IFC,28,0,28,0,7,-1,correct answer,0.302336675581,False,True,stimulusRAMA04_2IFC_2019_Jun_11_1449_1057,stimulusRAMA04_2IFC_2019_Jun_11_1449_1058,2019_Jun_11_1449,2IFC,,RAMA04,
2IFC,29,0,29,0,7,-1,correct answer,0.266819746699,False,True,stimulusRAMA04_2IFC_2019_Jun_11_1449_1059,stimulusRAMA04_2IFC_2019_Jun_11_1449_1060,2019_Jun_11_1449,2IFC,,RAMA04,
2IFC,30,0,30,0,7,-1,correct answer,0.267080854625,False,True,stimulusRAMA04_2IFC_2019_Jun_11_1449_1061,stimulusRAMA04_2IFC_2019_Jun_11_1449_1062,2019_Jun_11_1449,2IFC,,RAMA04,
2IFC,31,0,31,0,7,-1,correct answer,0.505071090534,False,True,stimulusRAMA04_2IFC_2019_Jun_11_1449_1063,stimulusRAMA04_2IFC_2019_Jun_11_1449_1064,2019_Jun_11_1449,2IFC,,RAMA04,
2IFC,32,0,32,0,7,-1,correct answer,0.300838585477,False,True,stimulusRAMA04_2IFC_2019_Jun_11_1449_1065,stimulusRAMA04_2IFC_2019_Jun_11_1449_1066,2019_Jun_11_1449,2IFC,,RAMA04,
2IFC,33,0,33,0,7,-1,wrong answer,0.300212088972,True,False,stimulusRAMA04_2IFC_2019_Jun_11_1449_1067,stimulusRAMA04_2IFC_2019_Jun_11_1449_1068,2019_Jun_11_1449,2IFC,,RAMA04,
2IFC,34,0,34,0,7,-1,correct answer,0.468329906464,False,True,stimulusRAMA04_2IFC_2019_Jun_11_1449_1069,stimulusRAMA04_2IFC_2019_Jun_11_1449_1070,2019_Jun_11_1449,2IFC,,RAMA04,
2IFC,35,0,35,0,7,-1,correct answer,0.734509197529,True,False,stimulusRAMA04_2IFC_2019_Jun_11_1449_1071,stimulusRAMA04_2IFC_2019_Jun_11_1449_1072,2019_Jun_11_1449,2IFC,,RAMA04,
2IFC,36,0,36,0,7,-1,wrong answer,0.401908555999,True,False,stimulusRAMA04_2IFC_2019_Jun_11_1449_1073,stimulusRAMA04_2IFC_2019_Jun_11_1449_1074,2019_Jun_11_1449,2IFC,,RAMA04,
2IFC,37,0,37,0,7,-1,correct answer,0.534416660666,True,False,stimulusRAMA04_2IFC_2019_Jun_11_1449_1075,stimulusRAMA04_2IFC_2019_Jun_11_1449_1076,2019_Jun_11_1449,2IFC,,RAMA04,
2IFC,38,0,38,0,7,-1,correct answer,0.36725829402,False,True,stimulusRAMA04_2IFC_2019_Jun_11_1449_1077,stimulusRAMA04_2IFC_2019_Jun_11_1449_1078,2019_Jun_11_1449,2IFC,,RAMA04,
2IFC,39,0,39,0,7,-1,correct answer,0.434655927587,False,True,stimulusRAMA04_2IFC_2019_Jun_11_1449_1079,stimulusRAMA04_2IFC_2019_Jun_11_1449_1080,2019_Jun_11_1449,2IFC,,RAMA04,
2IFC,40,0,40,0,7,-1,wrong answer,0.56896962272,True,False,stimulusRAMA04_2IFC_2019_Jun_11_1449_1081,stimulusRAMA04_2IFC_2019_Jun_11_1449_1082,2019_Jun_11_1449,2IFC,,RAMA04,
2IFC,41,0,41,0,7,-1,wrong answer,0.625702037476,False,True,stimulusRAMA04_2IFC_2019_Jun_11_1449_1083,stimulusRAMA04_2IFC_2019_Jun_11_1449_1084,2019_Jun_11_1449,2IFC,,RAMA04,
2IFC,42,0,42,0,7,-1,correct answer,0.300958465319,False,True,stimulusRAMA04_2IFC_2019_Jun_11_1449_1085,stimulusRAMA04_2IFC_2019_Jun_11_1449_1086,2019_Jun_11_1449,2IFC,,RAMA04,
2IFC,43,0,43,0,7,-1,wrong answer,0.401977939066,True,False,stimulusRAMA04_2IFC_2019_Jun_11_1449_1087,stimulusRAMA04_2IFC_2019_Jun_11_1449_1088,2019_Jun_11_1449,2IFC,,RAMA04,
2IFC,44,0,44,0,7,-1,correct answer,0.433860696387,True,False,stimulusRAMA04_2IFC_2019_Jun_11_1449_1089,stimulusRAMA04_2IFC_2019_Jun_11_1449_1090,2019_Jun_11_1449,2IFC,,RAMA04,
2IFC,45,0,45,0,7,-1,correct answer,0.299307241105,False,True,stimulusRAMA04_2IFC_2019_Jun_11_1449_1091,stimulusRAMA04_2IFC_2019_Jun_11_1449_1092,2019_Jun_11_1449,2IFC,,RAMA04,
2IFC,46,0,46,0,7,-1,correct answer,0.536815082654,True,False,stimulusRAMA04_2IFC_2019_Jun_11_1449_1093,stimulusRAMA04_2IFC_2019_Jun_11_1449_1094,2019_Jun_11_1449,2IFC,,RAMA04,
2IFC,47,0,47,0,7,-1,correct answer,0.400900249835,False,True,stimulusRAMA04_2IFC_2019_Jun_11_1449_1095,stimulusRAMA04_2IFC_2019_Jun_11_1449_1096,2019_Jun_11_1449,2IFC,,RAMA04,
2IFC,48,0,48,0,7,-1,wrong answer,0.466212299187,True,False,stimulusRAMA04_2IFC_2019_Jun_11_1449_1097,stimulusRAMA04_2IFC_2019_Jun_11_1449_1098,2019_Jun_11_1449,2IFC,,RAMA04,
2IFC,49,0,49,0,7,-1,correct answer,0.670976053458,True,False,stimulusRAMA04_2IFC_2019_Jun_11_1449_1099,stimulusRAMA04_2IFC_2019_Jun_11_1449_1100,2019_Jun_11_1449,2IFC,,RAMA04,
2IFC,50,0,50,0,7,-1,wrong answer,0.468704326544,True,False,stimulusRAMA04_2IFC_2019_Jun_11_1449_1101,stimulusRAMA04_2IFC_2019_Jun_11_1449_1102,2019_Jun_11_1449,2IFC,,RAMA04,
2IFC,51,0,51,0,7,-1,correct answer,0.532278115395,True,False,stimulusRAMA04_2IFC_2019_Jun_11_1449_1103,stimulusRAMA04_2IFC_2019_Jun_11_1449_1104,2019_Jun_11_1449,2IFC,,RAMA04,
2IFC,52,0,52,0,7,-1,correct answer,0.500659340061,True,False,stimulusRAMA04_2IFC_2019_Jun_11_1449_1105,stimulusRAMA04_2IFC_2019_Jun_11_1449_1106,2019_Jun_11_1449,2IFC,,RAMA04,
2IFC,53,0,53,0,7,-1,correct answer,0.33351452183,False,True,stimulusRAMA04_2IFC_2019_Jun_11_1449_1107,stimulusRAMA04_2IFC_2019_Jun_11_1449_1108,2019_Jun_11_1449,2IFC,,RAMA04,
2IFC,54,0,54,0,7,-1,correct answer,0.634781719651,True,False,stimulusRAMA04_2IFC_2019_Jun_11_1449_1109,stimulusRAMA04_2IFC_2019_Jun_11_1449_1110,2019_Jun_11_1449,2IFC,,RAMA04,
2IFC,55,0,55,0,7,-1,correct answer,0.401725451928,True,False,stimulusRAMA04_2IFC_2019_Jun_11_1449_1111,stimulusRAMA04_2IFC_2019_Jun_11_1449_1112,2019_Jun_11_1449,2IFC,,RAMA04,
2IFC,56,0,56,0,7,-1,correct answer,0.436913942453,True,False,stimulusRAMA04_2IFC_2019_Jun_11_1449_1113,stimulusRAMA04_2IFC_2019_Jun_11_1449_1114,2019_Jun_11_1449,2IFC,,RAMA04,
2IFC,57,0,57,0,7,-1,correct answer,0.536286707502,True,False,stimulusRAMA04_2IFC_2019_Jun_11_1449_1115,stimulusRAMA04_2IFC_2019_Jun_11_1449_1116,2019_Jun_11_1449,2IFC,,RAMA04,
2IFC,58,0,58,0,7,-1,correct answer,0.501927523874,False,True,stimulusRAMA04_2IFC_2019_Jun_11_1449_1117,stimulusRAMA04_2IFC_2019_Jun_11_1449_1118,2019_Jun_11_1449,2IFC,,RAMA04,
2IFC,59,0,59,0,7,-1,correct answer,0.533344308846,False,True,stimulusRAMA04_2IFC_2019_Jun_11_1449_1119,stimulusRAMA04_2IFC_2019_Jun_11_1449_1120,2019_Jun_11_1449,2IFC,,RAMA04,
2IFC,60,0,60,0,7,-1,correct answer,0.535009902436,True,False,stimulusRAMA04_2IFC_2019_Jun_11_1449_1121,stimulusRAMA04_2IFC_2019_Jun_11_1449_1122,2019_Jun_11_1449,2IFC,,RAMA04,
2IFC,61,0,61,0,7,-1,correct answer,0.501333049498,True,False,stimulusRAMA04_2IFC_2019_Jun_11_1449_1123,stimulusRAMA04_2IFC_2019_Jun_11_1449_1124,2019_Jun_11_1449,2IFC,,RAMA04,
2IFC,62,0,62,0,7,-1,correct answer,0.471962025855,False,True,stimulusRAMA04_2IFC_2019_Jun_11_1449_1125,stimulusRAMA04_2IFC_2019_Jun_11_1449_1126,2019_Jun_11_1449,2IFC,,RAMA04,
2IFC,63,0,63,0,7,-1,correct answer,0.457352670841,False,True,stimulusRAMA04_2IFC_2019_Jun_11_1449_1127,stimulusRAMA04_2IFC_2019_Jun_11_1449_1128,2019_Jun_11_1449,2IFC,,RAMA04,
2IFC,64,0,64,0,7,-1,correct answer,0.598402228672,True,False,stimulusRAMA04_2IFC_2019_Jun_11_1449_1129,stimulusRAMA04_2IFC_2019_Jun_11_1449_1130,2019_Jun_11_1449,2IFC,,RAMA04,
2IFC,65,0,65,0,7,-1,correct answer,0.368041619658,False,True,stimulusRAMA04_2IFC_2019_Jun_11_1449_1131,stimulusRAMA04_2IFC_2019_Jun_11_1449_1132,2019_Jun_11_1449,2IFC,,RAMA04,
2IFC,66,0,66,0,7,-1,correct answer,0.368883653544,True,False,stimulusRAMA04_2IFC_2019_Jun_11_1449_1133,stimulusRAMA04_2IFC_2019_Jun_11_1449_1134,2019_Jun_11_1449,2IFC,,RAMA04,
2IFC,67,0,67,0,7,-1,correct answer,0.442526545841,False,True,stimulusRAMA04_2IFC_2019_Jun_11_1449_1135,stimulusRAMA04_2IFC_2019_Jun_11_1449_1136,2019_Jun_11_1449,2IFC,,RAMA04,
2IFC,68,0,68,0,7,-1,correct answer,0.767851863988,False,True,stimulusRAMA04_2IFC_2019_Jun_11_1449_1137,stimulusRAMA04_2IFC_2019_Jun_11_1449_1138,2019_Jun_11_1449,2IFC,,RAMA04,
2IFC,69,0,69,0,7,-1,correct answer,0.431190080475,True,False,stimulusRAMA04_2IFC_2019_Jun_11_1449_1139,stimulusRAMA04_2IFC_2019_Jun_11_1449_1140,2019_Jun_11_1449,2IFC,,RAMA04,
2IFC,70,0,70,0,7,-1,correct answer,0.537131614983,True,False,stimulusRAMA04_2IFC_2019_Jun_11_1449_1141,stimulusRAMA04_2IFC_2019_Jun_11_1449_1142,2019_Jun_11_1449,2IFC,,RAMA04,
2IFC,71,0,71,0,7,-1,correct answer,0.334371746518,False,True,stimulusRAMA04_2IFC_2019_Jun_11_1449_1143,stimulusRAMA04_2IFC_2019_Jun_11_1449_1144,2019_Jun_11_1449,2IFC,,RAMA04,
