Task,trials.thisRepN,trials.thisTrialN,trials.thisN,trials.thisIndex,signal_intensity,constant Value,response,time_response,signal_on_stimuluspos1,signal_on_stimuluspos2,stimulus_name_pos1,stimulus_name_pos2,date,expName,session,participant,
Yes-No Task,0,0,0,0,9.7,-1,Correct Rejection,0.368010828737,False,-1,stimulus_RAMA04_Yes-No Task_2019_Jun_11_1418_1,-1,2019_Jun_11_1418,Yes-No Task,,RAMA04,
Yes-No Task,1,0,1,0,9.7,-1,Correct Rejection,0.36965096835,False,-1,stimulus_RAMA04_Yes-No Task_2019_Jun_11_1418_2,-1,2019_Jun_11_1418,Yes-No Task,,RAMA04,
Yes-No Task,2,0,2,0,9.7,-1,Correct Rejection,0.335556588136,False,-1,stimulus_RAMA04_Yes-No Task_2019_Jun_11_1418_3,-1,2019_Jun_11_1418,Yes-No Task,,RAMA04,
Yes-No Task,3,0,3,0,9.7,-1,Correct Rejection,0.399398875423,False,-1,stimulus_RAMA04_Yes-No Task_2019_Jun_11_1418_4,-1,2019_Jun_11_1418,Yes-No Task,,RAMA04,
Yes-No Task,4,0,4,0,9.7,-1,Hit,0.274681332521,True,-1,stimulus_RAMA04_Yes-No Task_2019_Jun_11_1418_5,-1,2019_Jun_11_1418,Yes-No Task,,RAMA04,
Yes-No Task,5,0,5,0,9.7,-1,Correct Rejection,0.465981981717,False,-1,stimulus_RAMA04_Yes-No Task_2019_Jun_11_1418_6,-1,2019_Jun_11_1418,Yes-No Task,,RAMA04,
Yes-No Task,6,0,6,0,9.7,-1,Hit,0.435503299348,True,-1,stimulus_RAMA04_Yes-No Task_2019_Jun_11_1418_7,-1,2019_Jun_11_1418,Yes-No Task,,RAMA04,
Yes-No Task,7,0,7,0,9.7,-1,Miss,0.400578380097,True,-1,stimulus_RAMA04_Yes-No Task_2019_Jun_11_1418_8,-1,2019_Jun_11_1418,Yes-No Task,,RAMA04,
Yes-No Task,8,0,8,0,9.7,-1,Hit,0.367298938334,True,-1,stimulus_RAMA04_Yes-No Task_2019_Jun_11_1418_9,-1,2019_Jun_11_1418,Yes-No Task,,RAMA04,
Yes-No Task,9,0,9,0,9.7,-1,Hit,0.400363663211,True,-1,stimulus_RAMA04_Yes-No Task_2019_Jun_11_1418_10,-1,2019_Jun_11_1418,Yes-No Task,,RAMA04,
Yes-No Task,10,0,10,0,9.7,-1,Hit,0.466245143209,True,-1,stimulus_RAMA04_Yes-No Task_2019_Jun_11_1418_11,-1,2019_Jun_11_1418,Yes-No Task,,RAMA04,
Yes-No Task,11,0,11,0,9.7,-1,Hit,0.467380719725,True,-1,stimulus_RAMA04_Yes-No Task_2019_Jun_11_1418_12,-1,2019_Jun_11_1418,Yes-No Task,,RAMA04,
Yes-No Task,12,0,12,0,9.7,-1,Hit,0.432954205666,True,-1,stimulus_RAMA04_Yes-No Task_2019_Jun_11_1418_13,-1,2019_Jun_11_1418,Yes-No Task,,RAMA04,
Yes-No Task,13,0,13,0,9.7,-1,Correct Rejection,0.400474922266,False,-1,stimulus_RAMA04_Yes-No Task_2019_Jun_11_1418_14,-1,2019_Jun_11_1418,Yes-No Task,,RAMA04,
Yes-No Task,14,0,14,0,9.7,-1,Hit,0.53452463448,True,-1,stimulus_RAMA04_Yes-No Task_2019_Jun_11_1418_15,-1,2019_Jun_11_1418,Yes-No Task,,RAMA04,
Yes-No Task,15,0,15,0,9.7,-1,False Alarm,0.531434028409,False,-1,stimulus_RAMA04_Yes-No Task_2019_Jun_11_1418_16,-1,2019_Jun_11_1418,Yes-No Task,,RAMA04,
Yes-No Task,16,0,16,0,9.7,-1,False Alarm,0.435035684612,False,-1,stimulus_RAMA04_Yes-No Task_2019_Jun_11_1418_17,-1,2019_Jun_11_1418,Yes-No Task,,RAMA04,
Yes-No Task,17,0,17,0,9.7,-1,Hit,0.46649804106,True,-1,stimulus_RAMA04_Yes-No Task_2019_Jun_11_1418_18,-1,2019_Jun_11_1418,Yes-No Task,,RAMA04,
Yes-No Task,18,0,18,0,9.7,-1,Correct Rejection,0.666687878314,False,-1,stimulus_RAMA04_Yes-No Task_2019_Jun_11_1418_19,-1,2019_Jun_11_1418,Yes-No Task,,RAMA04,
Yes-No Task,19,0,19,0,9.7,-1,Hit,0.70229635993,True,-1,stimulus_RAMA04_Yes-No Task_2019_Jun_11_1418_20,-1,2019_Jun_11_1418,Yes-No Task,,RAMA04,
Yes-No Task,20,0,20,0,9.7,-1,Correct Rejection,0.465228626039,False,-1,stimulus_RAMA04_Yes-No Task_2019_Jun_11_1418_21,-1,2019_Jun_11_1418,Yes-No Task,,RAMA04,
Yes-No Task,21,0,21,0,9.7,-1,Hit,0.471223860513,True,-1,stimulus_RAMA04_Yes-No Task_2019_Jun_11_1418_22,-1,2019_Jun_11_1418,Yes-No Task,,RAMA04,
Yes-No Task,22,0,22,0,9.7,-1,Hit,0.498288835399,True,-1,stimulus_RAMA04_Yes-No Task_2019_Jun_11_1418_23,-1,2019_Jun_11_1418,Yes-No Task,,RAMA04,
Yes-No Task,23,0,23,0,9.7,-1,False Alarm,0.507956422865,False,-1,stimulus_RAMA04_Yes-No Task_2019_Jun_11_1418_24,-1,2019_Jun_11_1418,Yes-No Task,,RAMA04,
Yes-No Task,24,0,24,0,9.7,-1,False Alarm,0.502501880284,False,-1,stimulus_RAMA04_Yes-No Task_2019_Jun_11_1418_25,-1,2019_Jun_11_1418,Yes-No Task,,RAMA04,
Yes-No Task,25,0,25,0,9.7,-1,Miss,0.466977150645,True,-1,stimulus_RAMA04_Yes-No Task_2019_Jun_11_1418_26,-1,2019_Jun_11_1418,Yes-No Task,,RAMA04,
Yes-No Task,26,0,26,0,9.7,-1,False Alarm,0.367571131326,False,-1,stimulus_RAMA04_Yes-No Task_2019_Jun_11_1418_27,-1,2019_Jun_11_1418,Yes-No Task,,RAMA04,
Yes-No Task,27,0,27,0,9.7,-1,False Alarm,0.366001605988,False,-1,stimulus_RAMA04_Yes-No Task_2019_Jun_11_1418_28,-1,2019_Jun_11_1418,Yes-No Task,,RAMA04,
Yes-No Task,28,0,28,0,9.7,-1,Correct Rejection,0.602467065677,False,-1,stimulus_RAMA04_Yes-No Task_2019_Jun_11_1418_29,-1,2019_Jun_11_1418,Yes-No Task,,RAMA04,
Yes-No Task,29,0,29,0,9.7,-1,Correct Rejection,0.465220415033,False,-1,stimulus_RAMA04_Yes-No Task_2019_Jun_11_1418_30,-1,2019_Jun_11_1418,Yes-No Task,,RAMA04,
Yes-No Task,30,0,30,0,9.7,-1,False Alarm,0.502824981697,False,-1,stimulus_RAMA04_Yes-No Task_2019_Jun_11_1418_31,-1,2019_Jun_11_1418,Yes-No Task,,RAMA04,
Yes-No Task,31,0,31,0,9.7,-1,Correct Rejection,0.540415589698,False,-1,stimulus_RAMA04_Yes-No Task_2019_Jun_11_1418_32,-1,2019_Jun_11_1418,Yes-No Task,,RAMA04,
Yes-No Task,32,0,32,0,9.7,-1,Hit,0.501553103328,True,-1,stimulus_RAMA04_Yes-No Task_2019_Jun_11_1418_33,-1,2019_Jun_11_1418,Yes-No Task,,RAMA04,
Yes-No Task,33,0,33,0,9.7,-1,Correct Rejection,0.670307270717,False,-1,stimulus_RAMA04_Yes-No Task_2019_Jun_11_1418_34,-1,2019_Jun_11_1418,Yes-No Task,,RAMA04,
Yes-No Task,34,0,34,0,9.7,-1,Correct Rejection,0.499623527285,False,-1,stimulus_RAMA04_Yes-No Task_2019_Jun_11_1418_35,-1,2019_Jun_11_1418,Yes-No Task,,RAMA04,
Yes-No Task,35,0,35,0,9.7,-1,Correct Rejection,0.532087210566,False,-1,stimulus_RAMA04_Yes-No Task_2019_Jun_11_1418_36,-1,2019_Jun_11_1418,Yes-No Task,,RAMA04,
Yes-No Task,36,0,36,0,9.7,-1,Correct Rejection,0.533779489808,False,-1,stimulus_RAMA04_Yes-No Task_2019_Jun_11_1418_37,-1,2019_Jun_11_1418,Yes-No Task,,RAMA04,
Yes-No Task,37,0,37,0,9.7,-1,Correct Rejection,0.500233601779,False,-1,stimulus_RAMA04_Yes-No Task_2019_Jun_11_1418_38,-1,2019_Jun_11_1418,Yes-No Task,,RAMA04,
Yes-No Task,38,0,38,0,9.7,-1,Correct Rejection,0.558023178019,False,-1,stimulus_RAMA04_Yes-No Task_2019_Jun_11_1418_39,-1,2019_Jun_11_1418,Yes-No Task,,RAMA04,
Yes-No Task,39,0,39,0,9.7,-1,Hit,0.511743729468,True,-1,stimulus_RAMA04_Yes-No Task_2019_Jun_11_1418_40,-1,2019_Jun_11_1418,Yes-No Task,,RAMA04,
Yes-No Task,40,0,40,0,9.7,-1,Hit,0.59827208519,True,-1,stimulus_RAMA04_Yes-No Task_2019_Jun_11_1418_41,-1,2019_Jun_11_1418,Yes-No Task,,RAMA04,
Yes-No Task,41,0,41,0,9.7,-1,Correct Rejection,0.53495201515,False,-1,stimulus_RAMA04_Yes-No Task_2019_Jun_11_1418_42,-1,2019_Jun_11_1418,Yes-No Task,,RAMA04,
Yes-No Task,42,0,42,0,9.7,-1,Hit,0.668080047239,True,-1,stimulus_RAMA04_Yes-No Task_2019_Jun_11_1418_43,-1,2019_Jun_11_1418,Yes-No Task,,RAMA04,
Yes-No Task,43,0,43,0,9.7,-1,Hit,0.667253203224,True,-1,stimulus_RAMA04_Yes-No Task_2019_Jun_11_1418_44,-1,2019_Jun_11_1418,Yes-No Task,,RAMA04,
Yes-No Task,44,0,44,0,9.7,-1,Hit,0.599532057066,True,-1,stimulus_RAMA04_Yes-No Task_2019_Jun_11_1418_45,-1,2019_Jun_11_1418,Yes-No Task,,RAMA04,
Yes-No Task,45,0,45,0,9.7,-1,Correct Rejection,0.605127828196,False,-1,stimulus_RAMA04_Yes-No Task_2019_Jun_11_1418_46,-1,2019_Jun_11_1418,Yes-No Task,,RAMA04,
Yes-No Task,46,0,46,0,9.7,-1,Correct Rejection,0.56730074482,False,-1,stimulus_RAMA04_Yes-No Task_2019_Jun_11_1418_47,-1,2019_Jun_11_1418,Yes-No Task,,RAMA04,
Yes-No Task,47,0,47,0,9.7,-1,Hit,0.591763665434,True,-1,stimulus_RAMA04_Yes-No Task_2019_Jun_11_1418_48,-1,2019_Jun_11_1418,Yes-No Task,,RAMA04,
Yes-No Task,48,0,48,0,9.7,-1,Correct Rejection,0.633380108513,False,-1,stimulus_RAMA04_Yes-No Task_2019_Jun_11_1418_49,-1,2019_Jun_11_1418,Yes-No Task,,RAMA04,
Yes-No Task,49,0,49,0,9.7,-1,Hit,0.568428109866,True,-1,stimulus_RAMA04_Yes-No Task_2019_Jun_11_1418_50,-1,2019_Jun_11_1418,Yes-No Task,,RAMA04,
Yes-No Task,50,0,50,0,9.7,-1,Hit,0.527749359142,True,-1,stimulus_RAMA04_Yes-No Task_2019_Jun_11_1418_51,-1,2019_Jun_11_1418,Yes-No Task,,RAMA04,
Yes-No Task,51,0,51,0,9.7,-1,Hit,0.56995699089,True,-1,stimulus_RAMA04_Yes-No Task_2019_Jun_11_1418_52,-1,2019_Jun_11_1418,Yes-No Task,,RAMA04,
Yes-No Task,52,0,52,0,9.7,-1,Hit,0.535791996401,True,-1,stimulus_RAMA04_Yes-No Task_2019_Jun_11_1418_53,-1,2019_Jun_11_1418,Yes-No Task,,RAMA04,
Yes-No Task,53,0,53,0,9.7,-1,Hit,0.463303565979,True,-1,stimulus_RAMA04_Yes-No Task_2019_Jun_11_1418_54,-1,2019_Jun_11_1418,Yes-No Task,,RAMA04,
Yes-No Task,54,0,54,0,9.7,-1,Correct Rejection,0.568954843096,False,-1,stimulus_RAMA04_Yes-No Task_2019_Jun_11_1418_55,-1,2019_Jun_11_1418,Yes-No Task,,RAMA04,
Yes-No Task,55,0,55,0,9.7,-1,False Alarm,0.496742300689,False,-1,stimulus_RAMA04_Yes-No Task_2019_Jun_11_1418_56,-1,2019_Jun_11_1418,Yes-No Task,,RAMA04,
Yes-No Task,56,0,56,0,9.7,-1,Correct Rejection,0.425700641237,False,-1,stimulus_RAMA04_Yes-No Task_2019_Jun_11_1418_57,-1,2019_Jun_11_1418,Yes-No Task,,RAMA04,
Yes-No Task,57,0,57,0,9.7,-1,Hit,0.557893855497,True,-1,stimulus_RAMA04_Yes-No Task_2019_Jun_11_1418_58,-1,2019_Jun_11_1418,Yes-No Task,,RAMA04,
Yes-No Task,58,0,58,0,9.7,-1,Correct Rejection,0.557514098473,False,-1,stimulus_RAMA04_Yes-No Task_2019_Jun_11_1418_59,-1,2019_Jun_11_1418,Yes-No Task,,RAMA04,
Yes-No Task,59,0,59,0,9.7,-1,Correct Rejection,0.467657839414,False,-1,stimulus_RAMA04_Yes-No Task_2019_Jun_11_1418_60,-1,2019_Jun_11_1418,Yes-No Task,,RAMA04,
Yes-No Task,60,0,60,0,9.7,-1,Correct Rejection,0.468438701704,False,-1,stimulus_RAMA04_Yes-No Task_2019_Jun_11_1418_61,-1,2019_Jun_11_1418,Yes-No Task,,RAMA04,
Yes-No Task,61,0,61,0,9.7,-1,Correct Rejection,0.468048681039,False,-1,stimulus_RAMA04_Yes-No Task_2019_Jun_11_1418_62,-1,2019_Jun_11_1418,Yes-No Task,,RAMA04,
Yes-No Task,62,0,62,0,9.7,-1,Correct Rejection,0.634781308938,False,-1,stimulus_RAMA04_Yes-No Task_2019_Jun_11_1418_63,-1,2019_Jun_11_1418,Yes-No Task,,RAMA04,
Yes-No Task,63,0,63,0,9.7,-1,Hit,0.469913390465,True,-1,stimulus_RAMA04_Yes-No Task_2019_Jun_11_1418_64,-1,2019_Jun_11_1418,Yes-No Task,,RAMA04,
Yes-No Task,64,0,64,0,9.7,-1,Hit,0.533304074779,True,-1,stimulus_RAMA04_Yes-No Task_2019_Jun_11_1418_65,-1,2019_Jun_11_1418,Yes-No Task,,RAMA04,
Yes-No Task,65,0,65,0,9.7,-1,Hit,0.469573456794,True,-1,stimulus_RAMA04_Yes-No Task_2019_Jun_11_1418_66,-1,2019_Jun_11_1418,Yes-No Task,,RAMA04,
Yes-No Task,66,0,66,0,9.7,-1,Hit,0.512804175261,True,-1,stimulus_RAMA04_Yes-No Task_2019_Jun_11_1418_67,-1,2019_Jun_11_1418,Yes-No Task,,RAMA04,
Yes-No Task,67,0,67,0,9.7,-1,Correct Rejection,0.501133523416,False,-1,stimulus_RAMA04_Yes-No Task_2019_Jun_11_1418_68,-1,2019_Jun_11_1418,Yes-No Task,,RAMA04,
Yes-No Task,68,0,68,0,9.7,-1,Hit,0.502921049949,True,-1,stimulus_RAMA04_Yes-No Task_2019_Jun_11_1418_69,-1,2019_Jun_11_1418,Yes-No Task,,RAMA04,
Yes-No Task,69,0,69,0,9.7,-1,Correct Rejection,0.508148559369,False,-1,stimulus_RAMA04_Yes-No Task_2019_Jun_11_1418_70,-1,2019_Jun_11_1418,Yes-No Task,,RAMA04,
Yes-No Task,70,0,70,0,9.7,-1,Miss,0.633313188795,True,-1,stimulus_RAMA04_Yes-No Task_2019_Jun_11_1418_71,-1,2019_Jun_11_1418,Yes-No Task,,RAMA04,
Yes-No Task,71,0,71,0,9.7,-1,Hit,0.502137723844,True,-1,stimulus_RAMA04_Yes-No Task_2019_Jun_11_1418_72,-1,2019_Jun_11_1418,Yes-No Task,,RAMA04,
Yes-No Task,72,0,72,0,9.7,-1,Hit,0.606040476821,True,-1,stimulus_RAMA04_Yes-No Task_2019_Jun_11_1418_73,-1,2019_Jun_11_1418,Yes-No Task,,RAMA04,
Yes-No Task,73,0,73,0,9.7,-1,Hit,0.570895914454,True,-1,stimulus_RAMA04_Yes-No Task_2019_Jun_11_1418_74,-1,2019_Jun_11_1418,Yes-No Task,,RAMA04,
Yes-No Task,74,0,74,0,9.7,-1,Correct Rejection,0.568547578994,False,-1,stimulus_RAMA04_Yes-No Task_2019_Jun_11_1418_75,-1,2019_Jun_11_1418,Yes-No Task,,RAMA04,
Yes-No Task,75,0,75,0,9.7,-1,Correct Rejection,0.499469981994,False,-1,stimulus_RAMA04_Yes-No Task_2019_Jun_11_1418_76,-1,2019_Jun_11_1418,Yes-No Task,,RAMA04,
Yes-No Task,76,0,76,0,9.7,-1,Correct Rejection,0.469752045348,False,-1,stimulus_RAMA04_Yes-No Task_2019_Jun_11_1418_77,-1,2019_Jun_11_1418,Yes-No Task,,RAMA04,
Yes-No Task,77,0,77,0,9.7,-1,Hit,0.536458726507,True,-1,stimulus_RAMA04_Yes-No Task_2019_Jun_11_1418_78,-1,2019_Jun_11_1418,Yes-No Task,,RAMA04,
Yes-No Task,78,0,78,0,9.7,-1,Hit,0.60000624042,True,-1,stimulus_RAMA04_Yes-No Task_2019_Jun_11_1418_79,-1,2019_Jun_11_1418,Yes-No Task,,RAMA04,
Yes-No Task,79,0,79,0,9.7,-1,Hit,0.601454653777,True,-1,stimulus_RAMA04_Yes-No Task_2019_Jun_11_1418_80,-1,2019_Jun_11_1418,Yes-No Task,,RAMA04,
Yes-No Task,80,0,80,0,9.7,-1,Hit,0.602416979149,True,-1,stimulus_RAMA04_Yes-No Task_2019_Jun_11_1418_81,-1,2019_Jun_11_1418,Yes-No Task,,RAMA04,
Yes-No Task,81,0,81,0,9.7,-1,Hit,0.533437092323,True,-1,stimulus_RAMA04_Yes-No Task_2019_Jun_11_1418_82,-1,2019_Jun_11_1418,Yes-No Task,,RAMA04,
Yes-No Task,82,0,82,0,9.7,-1,Correct Rejection,0.593905905727,False,-1,stimulus_RAMA04_Yes-No Task_2019_Jun_11_1418_83,-1,2019_Jun_11_1418,Yes-No Task,,RAMA04,
Yes-No Task,83,0,83,0,9.7,-1,Miss,0.73669249285,True,-1,stimulus_RAMA04_Yes-No Task_2019_Jun_11_1418_84,-1,2019_Jun_11_1418,Yes-No Task,,RAMA04,
Yes-No Task,84,0,84,0,9.7,-1,Hit,0.437139743939,True,-1,stimulus_RAMA04_Yes-No Task_2019_Jun_11_1418_85,-1,2019_Jun_11_1418,Yes-No Task,,RAMA04,
Yes-No Task,85,0,85,0,9.7,-1,Miss,0.865220332984,True,-1,stimulus_RAMA04_Yes-No Task_2019_Jun_11_1418_86,-1,2019_Jun_11_1418,Yes-No Task,,RAMA04,
Yes-No Task,86,0,86,0,9.7,-1,Correct Rejection,0.569389203098,False,-1,stimulus_RAMA04_Yes-No Task_2019_Jun_11_1418_87,-1,2019_Jun_11_1418,Yes-No Task,,RAMA04,
Yes-No Task,87,0,87,0,9.7,-1,Hit,0.499531154055,True,-1,stimulus_RAMA04_Yes-No Task_2019_Jun_11_1418_88,-1,2019_Jun_11_1418,Yes-No Task,,RAMA04,
Yes-No Task,88,0,88,0,9.7,-1,Correct Rejection,0.533265483566,False,-1,stimulus_RAMA04_Yes-No Task_2019_Jun_11_1418_89,-1,2019_Jun_11_1418,Yes-No Task,,RAMA04,
Yes-No Task,89,0,89,0,9.7,-1,Correct Rejection,0.491785752587,False,-1,stimulus_RAMA04_Yes-No Task_2019_Jun_11_1418_90,-1,2019_Jun_11_1418,Yes-No Task,,RAMA04,
Yes-No Task,90,0,90,0,9.7,-1,Miss,0.73512953613,True,-1,stimulus_RAMA04_Yes-No Task_2019_Jun_11_1418_91,-1,2019_Jun_11_1418,Yes-No Task,,RAMA04,
Yes-No Task,91,0,91,0,9.7,-1,Correct Rejection,0.468191551976,False,-1,stimulus_RAMA04_Yes-No Task_2019_Jun_11_1418_92,-1,2019_Jun_11_1418,Yes-No Task,,RAMA04,
Yes-No Task,92,0,92,0,9.7,-1,Correct Rejection,0.503056120593,False,-1,stimulus_RAMA04_Yes-No Task_2019_Jun_11_1418_93,-1,2019_Jun_11_1418,Yes-No Task,,RAMA04,
Yes-No Task,93,0,93,0,9.7,-1,Correct Rejection,0.469770109747,False,-1,stimulus_RAMA04_Yes-No Task_2019_Jun_11_1418_94,-1,2019_Jun_11_1418,Yes-No Task,,RAMA04,
Yes-No Task,94,0,94,0,9.7,-1,False Alarm,0.503676458262,False,-1,stimulus_RAMA04_Yes-No Task_2019_Jun_11_1418_95,-1,2019_Jun_11_1418,Yes-No Task,,RAMA04,
Yes-No Task,95,0,95,0,9.7,-1,Miss,0.835491721518,True,-1,stimulus_RAMA04_Yes-No Task_2019_Jun_11_1418_96,-1,2019_Jun_11_1418,Yes-No Task,,RAMA04,
Yes-No Task,96,0,96,0,9.7,-1,Miss,0.403140611015,True,-1,stimulus_RAMA04_Yes-No Task_2019_Jun_11_1418_97,-1,2019_Jun_11_1418,Yes-No Task,,RAMA04,
Yes-No Task,97,0,97,0,9.7,-1,Hit,0.467757191975,True,-1,stimulus_RAMA04_Yes-No Task_2019_Jun_11_1418_98,-1,2019_Jun_11_1418,Yes-No Task,,RAMA04,
Yes-No Task,98,0,98,0,9.7,-1,Hit,0.866459367331,True,-1,stimulus_RAMA04_Yes-No Task_2019_Jun_11_1418_99,-1,2019_Jun_11_1418,Yes-No Task,,RAMA04,
Yes-No Task,99,0,99,0,9.7,-1,Correct Rejection,0.500224980526,False,-1,stimulus_RAMA04_Yes-No Task_2019_Jun_11_1418_100,-1,2019_Jun_11_1418,Yes-No Task,,RAMA04,
Yes-No Task,0,0,0,0,8.2,-1,Hit,0.63418149855,True,-1,stimulus_RAMA04_Yes-No Task_2019_Jun_11_1418_101,-1,2019_Jun_11_1418,Yes-No Task,,RAMA04,
Yes-No Task,1,0,1,0,8.2,-1,False Alarm,0.434154648334,False,-1,stimulus_RAMA04_Yes-No Task_2019_Jun_11_1418_102,-1,2019_Jun_11_1418,Yes-No Task,,RAMA04,
Yes-No Task,2,0,2,0,8.2,-1,Correct Rejection,0.299936200958,False,-1,stimulus_RAMA04_Yes-No Task_2019_Jun_11_1418_103,-1,2019_Jun_11_1418,Yes-No Task,,RAMA04,
Yes-No Task,3,0,3,0,8.2,-1,Correct Rejection,0.400984001812,False,-1,stimulus_RAMA04_Yes-No Task_2019_Jun_11_1418_104,-1,2019_Jun_11_1418,Yes-No Task,,RAMA04,
Yes-No Task,4,0,4,0,8.2,-1,Correct Rejection,0.43278013356,False,-1,stimulus_RAMA04_Yes-No Task_2019_Jun_11_1418_105,-1,2019_Jun_11_1418,Yes-No Task,,RAMA04,
Yes-No Task,5,0,5,0,8.2,-1,Correct Rejection,0.332983272616,False,-1,stimulus_RAMA04_Yes-No Task_2019_Jun_11_1418_106,-1,2019_Jun_11_1418,Yes-No Task,,RAMA04,
Yes-No Task,6,0,6,0,8.2,-1,Hit,0.568924462423,True,-1,stimulus_RAMA04_Yes-No Task_2019_Jun_11_1418_107,-1,2019_Jun_11_1418,Yes-No Task,,RAMA04,
Yes-No Task,7,0,7,0,8.2,-1,Miss,0.661890623625,True,-1,stimulus_RAMA04_Yes-No Task_2019_Jun_11_1418_108,-1,2019_Jun_11_1418,Yes-No Task,,RAMA04,
Yes-No Task,8,0,8,0,8.2,-1,Correct Rejection,0.370057821739,False,-1,stimulus_RAMA04_Yes-No Task_2019_Jun_11_1418_109,-1,2019_Jun_11_1418,Yes-No Task,,RAMA04,
Yes-No Task,9,0,9,0,8.2,-1,Correct Rejection,0.404998751823,False,-1,stimulus_RAMA04_Yes-No Task_2019_Jun_11_1418_110,-1,2019_Jun_11_1418,Yes-No Task,,RAMA04,
Yes-No Task,10,0,10,0,8.2,-1,Correct Rejection,0.434211303946,False,-1,stimulus_RAMA04_Yes-No Task_2019_Jun_11_1418_111,-1,2019_Jun_11_1418,Yes-No Task,,RAMA04,
Yes-No Task,11,0,11,0,8.2,-1,Hit,0.499867392704,True,-1,stimulus_RAMA04_Yes-No Task_2019_Jun_11_1418_112,-1,2019_Jun_11_1418,Yes-No Task,,RAMA04,
Yes-No Task,12,0,12,0,8.2,-1,Correct Rejection,0.466768181417,False,-1,stimulus_RAMA04_Yes-No Task_2019_Jun_11_1418_113,-1,2019_Jun_11_1418,Yes-No Task,,RAMA04,
Yes-No Task,13,0,13,0,8.2,-1,Hit,0.60135653289,True,-1,stimulus_RAMA04_Yes-No Task_2019_Jun_11_1418_114,-1,2019_Jun_11_1418,Yes-No Task,,RAMA04,
Yes-No Task,14,0,14,0,8.2,-1,Correct Rejection,0.437638149597,False,-1,stimulus_RAMA04_Yes-No Task_2019_Jun_11_1418_115,-1,2019_Jun_11_1418,Yes-No Task,,RAMA04,
Yes-No Task,15,0,15,0,8.2,-1,Miss,0.4384173695,True,-1,stimulus_RAMA04_Yes-No Task_2019_Jun_11_1418_116,-1,2019_Jun_11_1418,Yes-No Task,,RAMA04,
Yes-No Task,16,0,16,0,8.2,-1,Correct Rejection,0.464937547687,False,-1,stimulus_RAMA04_Yes-No Task_2019_Jun_11_1418_117,-1,2019_Jun_11_1418,Yes-No Task,,RAMA04,
Yes-No Task,17,0,17,0,8.2,-1,Correct Rejection,0.437088015024,False,-1,stimulus_RAMA04_Yes-No Task_2019_Jun_11_1418_118,-1,2019_Jun_11_1418,Yes-No Task,,RAMA04,
Yes-No Task,18,0,18,0,8.2,-1,Correct Rejection,0.403236679267,False,-1,stimulus_RAMA04_Yes-No Task_2019_Jun_11_1418_119,-1,2019_Jun_11_1418,Yes-No Task,,RAMA04,
Yes-No Task,19,0,19,0,8.2,-1,Correct Rejection,0.368012470659,False,-1,stimulus_RAMA04_Yes-No Task_2019_Jun_11_1418_120,-1,2019_Jun_11_1418,Yes-No Task,,RAMA04,
Yes-No Task,20,0,20,0,8.2,-1,Correct Rejection,0.46115311468,False,-1,stimulus_RAMA04_Yes-No Task_2019_Jun_11_1418_121,-1,2019_Jun_11_1418,Yes-No Task,,RAMA04,
Yes-No Task,21,0,21,0,8.2,-1,Correct Rejection,0.334518722724,False,-1,stimulus_RAMA04_Yes-No Task_2019_Jun_11_1418_122,-1,2019_Jun_11_1418,Yes-No Task,,RAMA04,
Yes-No Task,22,0,22,0,8.2,-1,Correct Rejection,0.302504179534,False,-1,stimulus_RAMA04_Yes-No Task_2019_Jun_11_1418_123,-1,2019_Jun_11_1418,Yes-No Task,,RAMA04,
Yes-No Task,23,0,23,0,8.2,-1,Miss,0.338757221587,True,-1,stimulus_RAMA04_Yes-No Task_2019_Jun_11_1418_124,-1,2019_Jun_11_1418,Yes-No Task,,RAMA04,
Yes-No Task,24,0,24,0,8.2,-1,Hit,0.667079541367,True,-1,stimulus_RAMA04_Yes-No Task_2019_Jun_11_1418_125,-1,2019_Jun_11_1418,Yes-No Task,,RAMA04,
Yes-No Task,25,0,25,0,8.2,-1,Correct Rejection,0.524195654318,False,-1,stimulus_RAMA04_Yes-No Task_2019_Jun_11_1418_126,-1,2019_Jun_11_1418,Yes-No Task,,RAMA04,
Yes-No Task,26,0,26,0,8.2,-1,Miss,0.434910878539,True,-1,stimulus_RAMA04_Yes-No Task_2019_Jun_11_1418_127,-1,2019_Jun_11_1418,Yes-No Task,,RAMA04,
Yes-No Task,27,0,27,0,8.2,-1,Correct Rejection,0.466355580837,False,-1,stimulus_RAMA04_Yes-No Task_2019_Jun_11_1418_128,-1,2019_Jun_11_1418,Yes-No Task,,RAMA04,
Yes-No Task,28,0,28,0,8.2,-1,Correct Rejection,0.43787503615,False,-1,stimulus_RAMA04_Yes-No Task_2019_Jun_11_1418_129,-1,2019_Jun_11_1418,Yes-No Task,,RAMA04,
Yes-No Task,29,0,29,0,8.2,-1,Correct Rejection,0.502010865137,False,-1,stimulus_RAMA04_Yes-No Task_2019_Jun_11_1418_130,-1,2019_Jun_11_1418,Yes-No Task,,RAMA04,
Yes-No Task,30,0,30,0,8.2,-1,Correct Rejection,0.501242318656,False,-1,stimulus_RAMA04_Yes-No Task_2019_Jun_11_1418_131,-1,2019_Jun_11_1418,Yes-No Task,,RAMA04,
Yes-No Task,31,0,31,0,8.2,-1,Miss,0.404093493242,True,-1,stimulus_RAMA04_Yes-No Task_2019_Jun_11_1418_132,-1,2019_Jun_11_1418,Yes-No Task,,RAMA04,
Yes-No Task,32,0,32,0,8.2,-1,Correct Rejection,0.496663475409,False,-1,stimulus_RAMA04_Yes-No Task_2019_Jun_11_1418_133,-1,2019_Jun_11_1418,Yes-No Task,,RAMA04,
Yes-No Task,33,0,33,0,8.2,-1,Miss,0.399471953046,True,-1,stimulus_RAMA04_Yes-No Task_2019_Jun_11_1418_134,-1,2019_Jun_11_1418,Yes-No Task,,RAMA04,
Yes-No Task,34,0,34,0,8.2,-1,Miss,0.466490651015,True,-1,stimulus_RAMA04_Yes-No Task_2019_Jun_11_1418_135,-1,2019_Jun_11_1418,Yes-No Task,,RAMA04,
Yes-No Task,35,0,35,0,8.2,-1,Correct Rejection,0.503373884596,False,-1,stimulus_RAMA04_Yes-No Task_2019_Jun_11_1418_136,-1,2019_Jun_11_1418,Yes-No Task,,RAMA04,
Yes-No Task,36,0,36,0,8.2,-1,Miss,0.666698962916,True,-1,stimulus_RAMA04_Yes-No Task_2019_Jun_11_1418_137,-1,2019_Jun_11_1418,Yes-No Task,,RAMA04,
Yes-No Task,37,0,37,0,8.2,-1,Hit,0.829588860273,True,-1,stimulus_RAMA04_Yes-No Task_2019_Jun_11_1418_138,-1,2019_Jun_11_1418,Yes-No Task,,RAMA04,
Yes-No Task,38,0,38,0,8.2,-1,Hit,0.634803889319,True,-1,stimulus_RAMA04_Yes-No Task_2019_Jun_11_1418_139,-1,2019_Jun_11_1418,Yes-No Task,,RAMA04,
Yes-No Task,39,0,39,0,8.2,-1,Hit,0.633782445919,True,-1,stimulus_RAMA04_Yes-No Task_2019_Jun_11_1418_140,-1,2019_Jun_11_1418,Yes-No Task,,RAMA04,
Yes-No Task,40,0,40,0,8.2,-1,Hit,0.66748762643,True,-1,stimulus_RAMA04_Yes-No Task_2019_Jun_11_1418_141,-1,2019_Jun_11_1418,Yes-No Task,,RAMA04,
Yes-No Task,41,0,41,0,8.2,-1,Hit,0.467860239558,True,-1,stimulus_RAMA04_Yes-No Task_2019_Jun_11_1418_142,-1,2019_Jun_11_1418,Yes-No Task,,RAMA04,
Yes-No Task,42,0,42,0,8.2,-1,Correct Rejection,0.433336015325,False,-1,stimulus_RAMA04_Yes-No Task_2019_Jun_11_1418_143,-1,2019_Jun_11_1418,Yes-No Task,,RAMA04,
Yes-No Task,43,0,43,0,8.2,-1,Miss,0.501186484471,True,-1,stimulus_RAMA04_Yes-No Task_2019_Jun_11_1418_144,-1,2019_Jun_11_1418,Yes-No Task,,RAMA04,
Yes-No Task,44,0,44,0,8.2,-1,False Alarm,0.590621110052,False,-1,stimulus_RAMA04_Yes-No Task_2019_Jun_11_1418_145,-1,2019_Jun_11_1418,Yes-No Task,,RAMA04,
Yes-No Task,45,0,45,0,8.2,-1,Hit,0.467949738726,True,-1,stimulus_RAMA04_Yes-No Task_2019_Jun_11_1418_146,-1,2019_Jun_11_1418,Yes-No Task,,RAMA04,
Yes-No Task,46,0,46,0,8.2,-1,Hit,0.534068926238,True,-1,stimulus_RAMA04_Yes-No Task_2019_Jun_11_1418_147,-1,2019_Jun_11_1418,Yes-No Task,,RAMA04,
Yes-No Task,47,0,47,0,8.2,-1,Miss,0.401594076306,True,-1,stimulus_RAMA04_Yes-No Task_2019_Jun_11_1418_148,-1,2019_Jun_11_1418,Yes-No Task,,RAMA04,
Yes-No Task,48,0,48,0,8.2,-1,Correct Rejection,0.557918077335,False,-1,stimulus_RAMA04_Yes-No Task_2019_Jun_11_1418_149,-1,2019_Jun_11_1418,Yes-No Task,,RAMA04,
Yes-No Task,49,0,49,0,8.2,-1,Correct Rejection,0.494003944565,False,-1,stimulus_RAMA04_Yes-No Task_2019_Jun_11_1418_150,-1,2019_Jun_11_1418,Yes-No Task,,RAMA04,
Yes-No Task,50,0,50,0,8.2,-1,Hit,0.603466750588,True,-1,stimulus_RAMA04_Yes-No Task_2019_Jun_11_1418_151,-1,2019_Jun_11_1418,Yes-No Task,,RAMA04,
Yes-No Task,51,0,51,0,8.2,-1,Correct Rejection,0.525936378166,False,-1,stimulus_RAMA04_Yes-No Task_2019_Jun_11_1418_152,-1,2019_Jun_11_1418,Yes-No Task,,RAMA04,
Yes-No Task,52,0,52,0,8.2,-1,Miss,0.500474182889,True,-1,stimulus_RAMA04_Yes-No Task_2019_Jun_11_1418_153,-1,2019_Jun_11_1418,Yes-No Task,,RAMA04,
Yes-No Task,53,0,53,0,8.2,-1,Hit,0.500798926689,True,-1,stimulus_RAMA04_Yes-No Task_2019_Jun_11_1418_154,-1,2019_Jun_11_1418,Yes-No Task,,RAMA04,
Yes-No Task,54,0,54,0,8.2,-1,Hit,0.538052474614,True,-1,stimulus_RAMA04_Yes-No Task_2019_Jun_11_1418_155,-1,2019_Jun_11_1418,Yes-No Task,,RAMA04,
Yes-No Task,55,0,55,0,8.2,-1,Hit,0.500247560441,True,-1,stimulus_RAMA04_Yes-No Task_2019_Jun_11_1418_156,-1,2019_Jun_11_1418,Yes-No Task,,RAMA04,
Yes-No Task,56,0,56,0,8.2,-1,Miss,0.465892892797,True,-1,stimulus_RAMA04_Yes-No Task_2019_Jun_11_1418_157,-1,2019_Jun_11_1418,Yes-No Task,,RAMA04,
Yes-No Task,57,0,57,0,8.2,-1,Hit,0.571340127848,True,-1,stimulus_RAMA04_Yes-No Task_2019_Jun_11_1418_158,-1,2019_Jun_11_1418,Yes-No Task,,RAMA04,
Yes-No Task,58,0,58,0,8.2,-1,Correct Rejection,0.597974848002,False,-1,stimulus_RAMA04_Yes-No Task_2019_Jun_11_1418_159,-1,2019_Jun_11_1418,Yes-No Task,,RAMA04,
Yes-No Task,59,0,59,0,8.2,-1,Hit,0.701427639928,True,-1,stimulus_RAMA04_Yes-No Task_2019_Jun_11_1418_160,-1,2019_Jun_11_1418,Yes-No Task,,RAMA04,
Yes-No Task,60,0,60,0,8.2,-1,Correct Rejection,0.600946395658,False,-1,stimulus_RAMA04_Yes-No Task_2019_Jun_11_1418_161,-1,2019_Jun_11_1418,Yes-No Task,,RAMA04,
Yes-No Task,61,0,61,0,8.2,-1,Hit,0.468896463048,True,-1,stimulus_RAMA04_Yes-No Task_2019_Jun_11_1418_162,-1,2019_Jun_11_1418,Yes-No Task,,RAMA04,
Yes-No Task,62,0,62,0,8.2,-1,Correct Rejection,0.498760144692,False,-1,stimulus_RAMA04_Yes-No Task_2019_Jun_11_1418_163,-1,2019_Jun_11_1418,Yes-No Task,,RAMA04,
Yes-No Task,63,0,63,0,8.2,-1,Correct Rejection,0.504004076123,False,-1,stimulus_RAMA04_Yes-No Task_2019_Jun_11_1418_164,-1,2019_Jun_11_1418,Yes-No Task,,RAMA04,
Yes-No Task,64,0,64,0,8.2,-1,Correct Rejection,0.431906076614,False,-1,stimulus_RAMA04_Yes-No Task_2019_Jun_11_1418_165,-1,2019_Jun_11_1418,Yes-No Task,,RAMA04,
Yes-No Task,65,0,65,0,8.2,-1,Correct Rejection,0.535128550604,False,-1,stimulus_RAMA04_Yes-No Task_2019_Jun_11_1418_166,-1,2019_Jun_11_1418,Yes-No Task,,RAMA04,
Yes-No Task,66,0,66,0,8.2,-1,Hit,0.637170699425,True,-1,stimulus_RAMA04_Yes-No Task_2019_Jun_11_1418_167,-1,2019_Jun_11_1418,Yes-No Task,,RAMA04,
Yes-No Task,67,0,67,0,8.2,-1,Miss,0.564963493962,True,-1,stimulus_RAMA04_Yes-No Task_2019_Jun_11_1418_168,-1,2019_Jun_11_1418,Yes-No Task,,RAMA04,
Yes-No Task,68,0,68,0,8.2,-1,Correct Rejection,0.678533012979,False,-1,stimulus_RAMA04_Yes-No Task_2019_Jun_11_1418_169,-1,2019_Jun_11_1418,Yes-No Task,,RAMA04,
Yes-No Task,69,0,69,0,8.2,-1,Correct Rejection,0.600966922939,False,-1,stimulus_RAMA04_Yes-No Task_2019_Jun_11_1418_170,-1,2019_Jun_11_1418,Yes-No Task,,RAMA04,
Yes-No Task,70,0,70,0,8.2,-1,Hit,0.600449632388,True,-1,stimulus_RAMA04_Yes-No Task_2019_Jun_11_1418_171,-1,2019_Jun_11_1418,Yes-No Task,,RAMA04,
Yes-No Task,71,0,71,0,8.2,-1,Miss,0.562580673024,True,-1,stimulus_RAMA04_Yes-No Task_2019_Jun_11_1418_172,-1,2019_Jun_11_1418,Yes-No Task,,RAMA04,
Yes-No Task,72,0,72,0,8.2,-1,Hit,0.570090829395,True,-1,stimulus_RAMA04_Yes-No Task_2019_Jun_11_1418_173,-1,2019_Jun_11_1418,Yes-No Task,,RAMA04,
Yes-No Task,73,0,73,0,8.2,-1,Hit,0.73570512468,True,-1,stimulus_RAMA04_Yes-No Task_2019_Jun_11_1418_174,-1,2019_Jun_11_1418,Yes-No Task,,RAMA04,
Yes-No Task,74,0,74,0,8.2,-1,Correct Rejection,0.501946819015,False,-1,stimulus_RAMA04_Yes-No Task_2019_Jun_11_1418_175,-1,2019_Jun_11_1418,Yes-No Task,,RAMA04,
Yes-No Task,75,0,75,0,8.2,-1,Hit,0.660204091575,True,-1,stimulus_RAMA04_Yes-No Task_2019_Jun_11_1418_176,-1,2019_Jun_11_1418,Yes-No Task,,RAMA04,
Yes-No Task,76,0,76,0,8.2,-1,Hit,0.604227496311,True,-1,stimulus_RAMA04_Yes-No Task_2019_Jun_11_1418_177,-1,2019_Jun_11_1418,Yes-No Task,,RAMA04,
Yes-No Task,77,0,77,0,8.2,-1,Correct Rejection,0.499405115843,False,-1,stimulus_RAMA04_Yes-No Task_2019_Jun_11_1418_178,-1,2019_Jun_11_1418,Yes-No Task,,RAMA04,
Yes-No Task,78,0,78,0,8.2,-1,Correct Rejection,0.567871406209,False,-1,stimulus_RAMA04_Yes-No Task_2019_Jun_11_1418_179,-1,2019_Jun_11_1418,Yes-No Task,,RAMA04,
Yes-No Task,79,0,79,0,8.2,-1,Correct Rejection,0.70253694104,False,-1,stimulus_RAMA04_Yes-No Task_2019_Jun_11_1418_180,-1,2019_Jun_11_1418,Yes-No Task,,RAMA04,
Yes-No Task,80,0,80,0,8.2,-1,Miss,0.571499009617,True,-1,stimulus_RAMA04_Yes-No Task_2019_Jun_11_1418_181,-1,2019_Jun_11_1418,Yes-No Task,,RAMA04,
Yes-No Task,81,0,81,0,8.2,-1,Hit,0.532700979616,True,-1,stimulus_RAMA04_Yes-No Task_2019_Jun_11_1418_182,-1,2019_Jun_11_1418,Yes-No Task,,RAMA04,
Yes-No Task,82,0,82,0,8.2,-1,Hit,0.56956286449,True,-1,stimulus_RAMA04_Yes-No Task_2019_Jun_11_1418_183,-1,2019_Jun_11_1418,Yes-No Task,,RAMA04,
Yes-No Task,83,0,83,0,8.2,-1,Correct Rejection,0.601587671787,False,-1,stimulus_RAMA04_Yes-No Task_2019_Jun_11_1418_184,-1,2019_Jun_11_1418,Yes-No Task,,RAMA04,
Yes-No Task,84,0,84,0,8.2,-1,Hit,0.72405705275,True,-1,stimulus_RAMA04_Yes-No Task_2019_Jun_11_1418_185,-1,2019_Jun_11_1418,Yes-No Task,,RAMA04,
Yes-No Task,85,0,85,0,8.2,-1,Hit,0.603922458831,True,-1,stimulus_RAMA04_Yes-No Task_2019_Jun_11_1418_186,-1,2019_Jun_11_1418,Yes-No Task,,RAMA04,
Yes-No Task,86,0,86,0,8.2,-1,Hit,0.633966370951,True,-1,stimulus_RAMA04_Yes-No Task_2019_Jun_11_1418_187,-1,2019_Jun_11_1418,Yes-No Task,,RAMA04,
Yes-No Task,87,0,87,0,8.2,-1,Hit,0.570750169922,True,-1,stimulus_RAMA04_Yes-No Task_2019_Jun_11_1418_188,-1,2019_Jun_11_1418,Yes-No Task,,RAMA04,
Yes-No Task,88,0,88,0,8.2,-1,Correct Rejection,0.600948038045,False,-1,stimulus_RAMA04_Yes-No Task_2019_Jun_11_1418_189,-1,2019_Jun_11_1418,Yes-No Task,,RAMA04,
Yes-No Task,89,0,89,0,8.2,-1,Correct Rejection,0.636320043821,False,-1,stimulus_RAMA04_Yes-No Task_2019_Jun_11_1418_190,-1,2019_Jun_11_1418,Yes-No Task,,RAMA04,
Yes-No Task,90,0,90,0,8.2,-1,Correct Rejection,0.570305136032,False,-1,stimulus_RAMA04_Yes-No Task_2019_Jun_11_1418_191,-1,2019_Jun_11_1418,Yes-No Task,,RAMA04,
Yes-No Task,91,0,91,0,8.2,-1,Hit,0.635434080847,True,-1,stimulus_RAMA04_Yes-No Task_2019_Jun_11_1418_192,-1,2019_Jun_11_1418,Yes-No Task,,RAMA04,
Yes-No Task,92,0,92,0,8.2,-1,Miss,0.733256204985,True,-1,stimulus_RAMA04_Yes-No Task_2019_Jun_11_1418_193,-1,2019_Jun_11_1418,Yes-No Task,,RAMA04,
Yes-No Task,93,0,93,0,8.2,-1,Hit,0.703388007358,True,-1,stimulus_RAMA04_Yes-No Task_2019_Jun_11_1418_194,-1,2019_Jun_11_1418,Yes-No Task,,RAMA04,
Yes-No Task,94,0,94,0,8.2,-1,Correct Rejection,0.592504294124,False,-1,stimulus_RAMA04_Yes-No Task_2019_Jun_11_1418_195,-1,2019_Jun_11_1418,Yes-No Task,,RAMA04,
Yes-No Task,95,0,95,0,8.2,-1,Hit,0.53580677649,True,-1,stimulus_RAMA04_Yes-No Task_2019_Jun_11_1418_196,-1,2019_Jun_11_1418,Yes-No Task,,RAMA04,
Yes-No Task,96,0,96,0,8.2,-1,Correct Rejection,0.593985962681,False,-1,stimulus_RAMA04_Yes-No Task_2019_Jun_11_1418_197,-1,2019_Jun_11_1418,Yes-No Task,,RAMA04,
Yes-No Task,97,0,97,0,8.2,-1,Correct Rejection,0.53490849724,False,-1,stimulus_RAMA04_Yes-No Task_2019_Jun_11_1418_198,-1,2019_Jun_11_1418,Yes-No Task,,RAMA04,
Yes-No Task,98,0,98,0,8.2,-1,Hit,0.534039366525,True,-1,stimulus_RAMA04_Yes-No Task_2019_Jun_11_1418_199,-1,2019_Jun_11_1418,Yes-No Task,,RAMA04,
Yes-No Task,99,0,99,0,8.2,-1,Miss,0.63735544635,True,-1,stimulus_RAMA04_Yes-No Task_2019_Jun_11_1418_200,-1,2019_Jun_11_1418,Yes-No Task,,RAMA04,
Yes-No Task,0,0,0,0,6,-1,Hit,0.566801107489,True,-1,stimulus_RAMA04_Yes-No Task_2019_Jun_11_1418_201,-1,2019_Jun_11_1418,Yes-No Task,,RAMA04,
Yes-No Task,1,0,1,0,6,-1,Correct Rejection,0.433738352731,False,-1,stimulus_RAMA04_Yes-No Task_2019_Jun_11_1418_202,-1,2019_Jun_11_1418,Yes-No Task,,RAMA04,
Yes-No Task,2,0,2,0,6,-1,Hit,0.468477703631,True,-1,stimulus_RAMA04_Yes-No Task_2019_Jun_11_1418_203,-1,2019_Jun_11_1418,Yes-No Task,,RAMA04,
Yes-No Task,3,0,3,0,6,-1,Correct Rejection,0.468226038385,False,-1,stimulus_RAMA04_Yes-No Task_2019_Jun_11_1418_204,-1,2019_Jun_11_1418,Yes-No Task,,RAMA04,
Yes-No Task,4,0,4,0,6,-1,Miss,0.467732969671,True,-1,stimulus_RAMA04_Yes-No Task_2019_Jun_11_1418_205,-1,2019_Jun_11_1418,Yes-No Task,,RAMA04,
Yes-No Task,5,0,5,0,6,-1,False Alarm,0.501876615454,False,-1,stimulus_RAMA04_Yes-No Task_2019_Jun_11_1418_206,-1,2019_Jun_11_1418,Yes-No Task,,RAMA04,
Yes-No Task,6,0,6,0,6,-1,Hit,0.501308006234,True,-1,stimulus_RAMA04_Yes-No Task_2019_Jun_11_1418_207,-1,2019_Jun_11_1418,Yes-No Task,,RAMA04,
Yes-No Task,7,0,7,0,6,-1,Hit,0.469522548839,True,-1,stimulus_RAMA04_Yes-No Task_2019_Jun_11_1418_208,-1,2019_Jun_11_1418,Yes-No Task,,RAMA04,
Yes-No Task,8,0,8,0,6,-1,Hit,0.566448446829,True,-1,stimulus_RAMA04_Yes-No Task_2019_Jun_11_1418_209,-1,2019_Jun_11_1418,Yes-No Task,,RAMA04,
Yes-No Task,9,0,9,0,6,-1,False Alarm,0.503888711799,False,-1,stimulus_RAMA04_Yes-No Task_2019_Jun_11_1418_210,-1,2019_Jun_11_1418,Yes-No Task,,RAMA04,
Yes-No Task,10,0,10,0,6,-1,Hit,0.436953355093,True,-1,stimulus_RAMA04_Yes-No Task_2019_Jun_11_1418_211,-1,2019_Jun_11_1418,Yes-No Task,,RAMA04,
Yes-No Task,11,0,11,0,6,-1,Correct Rejection,0.566230855882,False,-1,stimulus_RAMA04_Yes-No Task_2019_Jun_11_1418_212,-1,2019_Jun_11_1418,Yes-No Task,,RAMA04,
Yes-No Task,12,0,12,0,6,-1,False Alarm,0.610053174198,False,-1,stimulus_RAMA04_Yes-No Task_2019_Jun_11_1418_213,-1,2019_Jun_11_1418,Yes-No Task,,RAMA04,
Yes-No Task,13,0,13,0,6,-1,False Alarm,0.399909187108,False,-1,stimulus_RAMA04_Yes-No Task_2019_Jun_11_1418_214,-1,2019_Jun_11_1418,Yes-No Task,,RAMA04,
Yes-No Task,14,0,14,0,6,-1,Correct Rejection,0.562458740082,False,-1,stimulus_RAMA04_Yes-No Task_2019_Jun_11_1418_215,-1,2019_Jun_11_1418,Yes-No Task,,RAMA04,
Yes-No Task,15,0,15,0,6,-1,Correct Rejection,0.513173668645,False,-1,stimulus_RAMA04_Yes-No Task_2019_Jun_11_1418_216,-1,2019_Jun_11_1418,Yes-No Task,,RAMA04,
Yes-No Task,16,0,16,0,6,-1,Correct Rejection,0.53267757874,False,-1,stimulus_RAMA04_Yes-No Task_2019_Jun_11_1418_217,-1,2019_Jun_11_1418,Yes-No Task,,RAMA04,
Yes-No Task,17,0,17,0,6,-1,Hit,0.501966115087,True,-1,stimulus_RAMA04_Yes-No Task_2019_Jun_11_1418_218,-1,2019_Jun_11_1418,Yes-No Task,,RAMA04,
Yes-No Task,18,0,18,0,6,-1,Correct Rejection,0.467266997322,False,-1,stimulus_RAMA04_Yes-No Task_2019_Jun_11_1418_219,-1,2019_Jun_11_1418,Yes-No Task,,RAMA04,
Yes-No Task,19,0,19,0,6,-1,False Alarm,0.59879266005,False,-1,stimulus_RAMA04_Yes-No Task_2019_Jun_11_1418_220,-1,2019_Jun_11_1418,Yes-No Task,,RAMA04,
Yes-No Task,20,0,20,0,6,-1,Correct Rejection,0.403155391105,False,-1,stimulus_RAMA04_Yes-No Task_2019_Jun_11_1418_221,-1,2019_Jun_11_1418,Yes-No Task,,RAMA04,
Yes-No Task,21,0,21,0,6,-1,Correct Rejection,0.524421866052,False,-1,stimulus_RAMA04_Yes-No Task_2019_Jun_11_1418_222,-1,2019_Jun_11_1418,Yes-No Task,,RAMA04,
Yes-No Task,22,0,22,0,6,-1,Hit,0.569533305243,True,-1,stimulus_RAMA04_Yes-No Task_2019_Jun_11_1418_223,-1,2019_Jun_11_1418,Yes-No Task,,RAMA04,
Yes-No Task,23,0,23,0,6,-1,Hit,0.632735137362,True,-1,stimulus_RAMA04_Yes-No Task_2019_Jun_11_1418_224,-1,2019_Jun_11_1418,Yes-No Task,,RAMA04,
Yes-No Task,24,0,24,0,6,-1,Correct Rejection,0.570916442201,False,-1,stimulus_RAMA04_Yes-No Task_2019_Jun_11_1418_225,-1,2019_Jun_11_1418,Yes-No Task,,RAMA04,
Yes-No Task,25,0,25,0,6,-1,False Alarm,0.634956613183,False,-1,stimulus_RAMA04_Yes-No Task_2019_Jun_11_1418_226,-1,2019_Jun_11_1418,Yes-No Task,,RAMA04,
Yes-No Task,26,0,26,0,6,-1,Correct Rejection,0.592246059794,False,-1,stimulus_RAMA04_Yes-No Task_2019_Jun_11_1418_227,-1,2019_Jun_11_1418,Yes-No Task,,RAMA04,
Yes-No Task,27,0,27,0,6,-1,Correct Rejection,0.635798647534,False,-1,stimulus_RAMA04_Yes-No Task_2019_Jun_11_1418_228,-1,2019_Jun_11_1418,Yes-No Task,,RAMA04,
Yes-No Task,28,0,28,0,6,-1,Miss,0.502069572918,True,-1,stimulus_RAMA04_Yes-No Task_2019_Jun_11_1418_229,-1,2019_Jun_11_1418,Yes-No Task,,RAMA04,
Yes-No Task,29,0,29,0,6,-1,Correct Rejection,0.570443901233,False,-1,stimulus_RAMA04_Yes-No Task_2019_Jun_11_1418_230,-1,2019_Jun_11_1418,Yes-No Task,,RAMA04,
Yes-No Task,30,0,30,0,6,-1,Miss,0.535763668828,True,-1,stimulus_RAMA04_Yes-No Task_2019_Jun_11_1418_231,-1,2019_Jun_11_1418,Yes-No Task,,RAMA04,
Yes-No Task,31,0,31,0,6,-1,Miss,0.503468721174,True,-1,stimulus_RAMA04_Yes-No Task_2019_Jun_11_1418_232,-1,2019_Jun_11_1418,Yes-No Task,,RAMA04,
Yes-No Task,32,0,32,0,6,-1,Correct Rejection,0.732367779128,False,-1,stimulus_RAMA04_Yes-No Task_2019_Jun_11_1418_233,-1,2019_Jun_11_1418,Yes-No Task,,RAMA04,
Yes-No Task,33,0,33,0,6,-1,Correct Rejection,0.563721996732,False,-1,stimulus_RAMA04_Yes-No Task_2019_Jun_11_1418_234,-1,2019_Jun_11_1418,Yes-No Task,,RAMA04,
Yes-No Task,34,0,34,0,6,-1,Correct Rejection,0.598218303174,False,-1,stimulus_RAMA04_Yes-No Task_2019_Jun_11_1418_235,-1,2019_Jun_11_1418,Yes-No Task,,RAMA04,
Yes-No Task,35,0,35,0,6,-1,Hit,0.732668300159,True,-1,stimulus_RAMA04_Yes-No Task_2019_Jun_11_1418_236,-1,2019_Jun_11_1418,Yes-No Task,,RAMA04,
Yes-No Task,36,0,36,0,6,-1,Correct Rejection,0.699951719493,False,-1,stimulus_RAMA04_Yes-No Task_2019_Jun_11_1418_237,-1,2019_Jun_11_1418,Yes-No Task,,RAMA04,
Yes-No Task,37,0,37,0,6,-1,Hit,0.669554735534,True,-1,stimulus_RAMA04_Yes-No Task_2019_Jun_11_1418_238,-1,2019_Jun_11_1418,Yes-No Task,,RAMA04,
Yes-No Task,38,0,38,0,6,-1,Correct Rejection,0.634833449032,False,-1,stimulus_RAMA04_Yes-No Task_2019_Jun_11_1418_239,-1,2019_Jun_11_1418,Yes-No Task,,RAMA04,
Yes-No Task,39,0,39,0,6,-1,Correct Rejection,0.667872720398,False,-1,stimulus_RAMA04_Yes-No Task_2019_Jun_11_1418_240,-1,2019_Jun_11_1418,Yes-No Task,,RAMA04,
Yes-No Task,40,0,40,0,6,-1,Correct Rejection,0.764448420145,False,-1,stimulus_RAMA04_Yes-No Task_2019_Jun_11_1418_241,-1,2019_Jun_11_1418,Yes-No Task,,RAMA04,
Yes-No Task,41,0,41,0,6,-1,Hit,0.666907932144,True,-1,stimulus_RAMA04_Yes-No Task_2019_Jun_11_1418_242,-1,2019_Jun_11_1418,Yes-No Task,,RAMA04,
Yes-No Task,42,0,42,0,6,-1,Hit,0.709602884948,True,-1,stimulus_RAMA04_Yes-No Task_2019_Jun_11_1418_243,-1,2019_Jun_11_1418,Yes-No Task,,RAMA04,
Yes-No Task,43,0,43,0,6,-1,Hit,0.867990301456,True,-1,stimulus_RAMA04_Yes-No Task_2019_Jun_11_1418_244,-1,2019_Jun_11_1418,Yes-No Task,,RAMA04,
Yes-No Task,44,0,44,0,6,-1,Correct Rejection,0.603096846491,False,-1,stimulus_RAMA04_Yes-No Task_2019_Jun_11_1418_245,-1,2019_Jun_11_1418,Yes-No Task,,RAMA04,
Yes-No Task,45,0,45,0,6,-1,Hit,0.733324766625,True,-1,stimulus_RAMA04_Yes-No Task_2019_Jun_11_1418_246,-1,2019_Jun_11_1418,Yes-No Task,,RAMA04,
Yes-No Task,46,0,46,0,6,-1,Hit,0.768756302074,True,-1,stimulus_RAMA04_Yes-No Task_2019_Jun_11_1418_247,-1,2019_Jun_11_1418,Yes-No Task,,RAMA04,
Yes-No Task,47,0,47,0,6,-1,Hit,0.734411898069,True,-1,stimulus_RAMA04_Yes-No Task_2019_Jun_11_1418_248,-1,2019_Jun_11_1418,Yes-No Task,,RAMA04,
Yes-No Task,48,0,48,0,6,-1,Hit,0.769951818045,True,-1,stimulus_RAMA04_Yes-No Task_2019_Jun_11_1418_249,-1,2019_Jun_11_1418,Yes-No Task,,RAMA04,
Yes-No Task,49,0,49,0,6,-1,Hit,0.837213971186,True,-1,stimulus_RAMA04_Yes-No Task_2019_Jun_11_1418_250,-1,2019_Jun_11_1418,Yes-No Task,,RAMA04,
Yes-No Task,50,0,50,0,6,-1,Miss,0.732520092279,True,-1,stimulus_RAMA04_Yes-No Task_2019_Jun_11_1418_251,-1,2019_Jun_11_1418,Yes-No Task,,RAMA04,
Yes-No Task,51,0,51,0,6,-1,Correct Rejection,0.735317567363,False,-1,stimulus_RAMA04_Yes-No Task_2019_Jun_11_1418_252,-1,2019_Jun_11_1418,Yes-No Task,,RAMA04,
Yes-No Task,52,0,52,0,6,-1,Hit,0.724975449033,True,-1,stimulus_RAMA04_Yes-No Task_2019_Jun_11_1418_253,-1,2019_Jun_11_1418,Yes-No Task,,RAMA04,
Yes-No Task,53,0,53,0,6,-1,Correct Rejection,0.635710379574,False,-1,stimulus_RAMA04_Yes-No Task_2019_Jun_11_1418_254,-1,2019_Jun_11_1418,Yes-No Task,,RAMA04,
Yes-No Task,54,0,54,0,6,-1,Correct Rejection,0.791619316675,False,-1,stimulus_RAMA04_Yes-No Task_2019_Jun_11_1418_255,-1,2019_Jun_11_1418,Yes-No Task,,RAMA04,
Yes-No Task,55,0,55,0,6,-1,Hit,0.669987864327,True,-1,stimulus_RAMA04_Yes-No Task_2019_Jun_11_1418_256,-1,2019_Jun_11_1418,Yes-No Task,,RAMA04,
Yes-No Task,56,0,56,0,6,-1,Correct Rejection,0.733305471018,False,-1,stimulus_RAMA04_Yes-No Task_2019_Jun_11_1418_257,-1,2019_Jun_11_1418,Yes-No Task,,RAMA04,
Yes-No Task,57,0,57,0,6,-1,Correct Rejection,0.768685277086,False,-1,stimulus_RAMA04_Yes-No Task_2019_Jun_11_1418_258,-1,2019_Jun_11_1418,Yes-No Task,,RAMA04,
Yes-No Task,58,0,58,0,6,-1,Correct Rejection,0.792106227018,False,-1,stimulus_RAMA04_Yes-No Task_2019_Jun_11_1418_259,-1,2019_Jun_11_1418,Yes-No Task,,RAMA04,
Yes-No Task,59,0,59,0,6,-1,Hit,0.596387669444,True,-1,stimulus_RAMA04_Yes-No Task_2019_Jun_11_1418_260,-1,2019_Jun_11_1418,Yes-No Task,,RAMA04,
Yes-No Task,60,0,60,0,6,-1,Hit,0.736269217916,True,-1,stimulus_RAMA04_Yes-No Task_2019_Jun_11_1418_261,-1,2019_Jun_11_1418,Yes-No Task,,RAMA04,
Yes-No Task,61,0,61,0,6,-1,Miss,0.666583599057,True,-1,stimulus_RAMA04_Yes-No Task_2019_Jun_11_1418_262,-1,2019_Jun_11_1418,Yes-No Task,,RAMA04,
Yes-No Task,62,0,62,0,6,-1,Correct Rejection,0.599484844133,False,-1,stimulus_RAMA04_Yes-No Task_2019_Jun_11_1418_263,-1,2019_Jun_11_1418,Yes-No Task,,RAMA04,
Yes-No Task,63,0,63,0,6,-1,Correct Rejection,0.736007288098,False,-1,stimulus_RAMA04_Yes-No Task_2019_Jun_11_1418_264,-1,2019_Jun_11_1418,Yes-No Task,,RAMA04,
Yes-No Task,64,0,64,0,6,-1,Correct Rejection,0.66860144306,False,-1,stimulus_RAMA04_Yes-No Task_2019_Jun_11_1418_265,-1,2019_Jun_11_1418,Yes-No Task,,RAMA04,
Yes-No Task,65,0,65,0,6,-1,Correct Rejection,0.668411769904,False,-1,stimulus_RAMA04_Yes-No Task_2019_Jun_11_1418_266,-1,2019_Jun_11_1418,Yes-No Task,,RAMA04,
Yes-No Task,66,0,66,0,6,-1,Correct Rejection,0.762117738836,False,-1,stimulus_RAMA04_Yes-No Task_2019_Jun_11_1418_267,-1,2019_Jun_11_1418,Yes-No Task,,RAMA04,
Yes-No Task,67,0,67,0,6,-1,Miss,0.535626134835,True,-1,stimulus_RAMA04_Yes-No Task_2019_Jun_11_1418_268,-1,2019_Jun_11_1418,Yes-No Task,,RAMA04,
Yes-No Task,68,0,68,0,6,-1,Miss,0.55869811913,True,-1,stimulus_RAMA04_Yes-No Task_2019_Jun_11_1418_269,-1,2019_Jun_11_1418,Yes-No Task,,RAMA04,
Yes-No Task,69,0,69,0,6,-1,Hit,0.771917522885,True,-1,stimulus_RAMA04_Yes-No Task_2019_Jun_11_1418_270,-1,2019_Jun_11_1418,Yes-No Task,,RAMA04,
Yes-No Task,70,0,70,0,6,-1,Miss,0.63247197587,True,-1,stimulus_RAMA04_Yes-No Task_2019_Jun_11_1418_271,-1,2019_Jun_11_1418,Yes-No Task,,RAMA04,
Yes-No Task,71,0,71,0,6,-1,Correct Rejection,0.741029113065,False,-1,stimulus_RAMA04_Yes-No Task_2019_Jun_11_1418_272,-1,2019_Jun_11_1418,Yes-No Task,,RAMA04,
Yes-No Task,72,0,72,0,6,-1,Correct Rejection,0.66904853005,False,-1,stimulus_RAMA04_Yes-No Task_2019_Jun_11_1418_273,-1,2019_Jun_11_1418,Yes-No Task,,RAMA04,
Yes-No Task,73,0,73,0,6,-1,Correct Rejection,0.534985680133,False,-1,stimulus_RAMA04_Yes-No Task_2019_Jun_11_1418_274,-1,2019_Jun_11_1418,Yes-No Task,,RAMA04,
Yes-No Task,74,0,74,0,6,-1,Hit,0.701575026847,True,-1,stimulus_RAMA04_Yes-No Task_2019_Jun_11_1418_275,-1,2019_Jun_11_1418,Yes-No Task,,RAMA04,
Yes-No Task,75,0,75,0,6,-1,No Answer,-1,True,-1,stimulus_RAMA04_Yes-No Task_2019_Jun_11_1418_276,-1,2019_Jun_11_1418,Yes-No Task,,RAMA04,
Yes-No Task,76,0,76,0,6,-1,Miss,0.660623671953,True,-1,stimulus_RAMA04_Yes-No Task_2019_Jun_11_1418_277,-1,2019_Jun_11_1418,Yes-No Task,,RAMA04,
Yes-No Task,77,0,77,0,6,-1,Miss,0.602715036832,True,-1,stimulus_RAMA04_Yes-No Task_2019_Jun_11_1418_278,-1,2019_Jun_11_1418,Yes-No Task,,RAMA04,
Yes-No Task,78,0,78,0,6,-1,Correct Rejection,0.699999343138,False,-1,stimulus_RAMA04_Yes-No Task_2019_Jun_11_1418_279,-1,2019_Jun_11_1418,Yes-No Task,,RAMA04,
Yes-No Task,79,0,79,0,6,-1,Miss,0.699404869694,True,-1,stimulus_RAMA04_Yes-No Task_2019_Jun_11_1418_280,-1,2019_Jun_11_1418,Yes-No Task,,RAMA04,
Yes-No Task,80,0,80,0,6,-1,Miss,0.665006683674,True,-1,stimulus_RAMA04_Yes-No Task_2019_Jun_11_1418_281,-1,2019_Jun_11_1418,Yes-No Task,,RAMA04,
Yes-No Task,81,0,81,0,6,-1,Correct Rejection,0.600100666285,False,-1,stimulus_RAMA04_Yes-No Task_2019_Jun_11_1418_282,-1,2019_Jun_11_1418,Yes-No Task,,RAMA04,
Yes-No Task,82,0,82,0,6,-1,Correct Rejection,0.535663495306,False,-1,stimulus_RAMA04_Yes-No Task_2019_Jun_11_1418_283,-1,2019_Jun_11_1418,Yes-No Task,,RAMA04,
Yes-No Task,83,0,83,0,6,-1,Correct Rejection,0.566949315369,False,-1,stimulus_RAMA04_Yes-No Task_2019_Jun_11_1418_284,-1,2019_Jun_11_1418,Yes-No Task,,RAMA04,
Yes-No Task,84,0,84,0,6,-1,Correct Rejection,0.590171970427,False,-1,stimulus_RAMA04_Yes-No Task_2019_Jun_11_1418_285,-1,2019_Jun_11_1418,Yes-No Task,,RAMA04,
Yes-No Task,85,0,85,0,6,-1,Correct Rejection,0.571049870458,False,-1,stimulus_RAMA04_Yes-No Task_2019_Jun_11_1418_286,-1,2019_Jun_11_1418,Yes-No Task,,RAMA04,
Yes-No Task,86,0,86,0,6,-1,Miss,0.667020011693,True,-1,stimulus_RAMA04_Yes-No Task_2019_Jun_11_1418_287,-1,2019_Jun_11_1418,Yes-No Task,,RAMA04,
Yes-No Task,87,0,87,0,6,-1,Miss,0.534944214392,True,-1,stimulus_RAMA04_Yes-No Task_2019_Jun_11_1418_288,-1,2019_Jun_11_1418,Yes-No Task,,RAMA04,
Yes-No Task,88,0,88,0,6,-1,Correct Rejection,0.63216406526,False,-1,stimulus_RAMA04_Yes-No Task_2019_Jun_11_1418_289,-1,2019_Jun_11_1418,Yes-No Task,,RAMA04,
Yes-No Task,89,0,89,0,6,-1,Hit,0.725637252908,True,-1,stimulus_RAMA04_Yes-No Task_2019_Jun_11_1418_290,-1,2019_Jun_11_1418,Yes-No Task,,RAMA04,
Yes-No Task,90,0,90,0,6,-1,Hit,0.798120346386,True,-1,stimulus_RAMA04_Yes-No Task_2019_Jun_11_1418_291,-1,2019_Jun_11_1418,Yes-No Task,,RAMA04,
Yes-No Task,91,0,91,0,6,-1,Hit,0.626309648622,True,-1,stimulus_RAMA04_Yes-No Task_2019_Jun_11_1418_292,-1,2019_Jun_11_1418,Yes-No Task,,RAMA04,
Yes-No Task,92,0,92,0,6,-1,Correct Rejection,0.601682919078,False,-1,stimulus_RAMA04_Yes-No Task_2019_Jun_11_1418_293,-1,2019_Jun_11_1418,Yes-No Task,,RAMA04,
Yes-No Task,93,0,93,0,6,-1,Correct Rejection,0.60287515074,False,-1,stimulus_RAMA04_Yes-No Task_2019_Jun_11_1418_294,-1,2019_Jun_11_1418,Yes-No Task,,RAMA04,
Yes-No Task,94,0,94,0,6,-1,Hit,0.727017926518,True,-1,stimulus_RAMA04_Yes-No Task_2019_Jun_11_1418_295,-1,2019_Jun_11_1418,Yes-No Task,,RAMA04,
Yes-No Task,95,0,95,0,6,-1,Hit,0.70481999917,True,-1,stimulus_RAMA04_Yes-No Task_2019_Jun_11_1418_296,-1,2019_Jun_11_1418,Yes-No Task,,RAMA04,
Yes-No Task,96,0,96,0,6,-1,Miss,0.666086425539,True,-1,stimulus_RAMA04_Yes-No Task_2019_Jun_11_1418_297,-1,2019_Jun_11_1418,Yes-No Task,,RAMA04,
Yes-No Task,97,0,97,0,6,-1,Correct Rejection,0.732921197545,False,-1,stimulus_RAMA04_Yes-No Task_2019_Jun_11_1418_298,-1,2019_Jun_11_1418,Yes-No Task,,RAMA04,
Yes-No Task,98,0,98,0,6,-1,Correct Rejection,0.666741249617,False,-1,stimulus_RAMA04_Yes-No Task_2019_Jun_11_1418_299,-1,2019_Jun_11_1418,Yes-No Task,,RAMA04,
Yes-No Task,99,0,99,0,6,-1,Miss,0.699058366939,True,-1,stimulus_RAMA04_Yes-No Task_2019_Jun_11_1418_300,-1,2019_Jun_11_1418,Yes-No Task,,RAMA04,
Yes-No Task,0,0,0,0,3.8,-1,Miss,0.567378748674,True,-1,stimulus_RAMA04_Yes-No Task_2019_Jun_11_1418_301,-1,2019_Jun_11_1418,Yes-No Task,,RAMA04,
Yes-No Task,1,0,1,0,3.8,-1,Miss,0.536203366239,True,-1,stimulus_RAMA04_Yes-No Task_2019_Jun_11_1418_302,-1,2019_Jun_11_1418,Yes-No Task,,RAMA04,
Yes-No Task,2,0,2,0,3.8,-1,False Alarm,0.299104019534,False,-1,stimulus_RAMA04_Yes-No Task_2019_Jun_11_1418_303,-1,2019_Jun_11_1418,Yes-No Task,,RAMA04,
Yes-No Task,3,0,3,0,3.8,-1,Correct Rejection,0.334058908746,False,-1,stimulus_RAMA04_Yes-No Task_2019_Jun_11_1418_304,-1,2019_Jun_11_1418,Yes-No Task,,RAMA04,
Yes-No Task,4,0,4,0,3.8,-1,Miss,0.500927017536,True,-1,stimulus_RAMA04_Yes-No Task_2019_Jun_11_1418_305,-1,2019_Jun_11_1418,Yes-No Task,,RAMA04,
Yes-No Task,5,0,5,0,3.8,-1,Correct Rejection,0.434383734595,False,-1,stimulus_RAMA04_Yes-No Task_2019_Jun_11_1418_306,-1,2019_Jun_11_1418,Yes-No Task,,RAMA04,
Yes-No Task,6,0,6,0,3.8,-1,Miss,0.467354033608,True,-1,stimulus_RAMA04_Yes-No Task_2019_Jun_11_1418_307,-1,2019_Jun_11_1418,Yes-No Task,,RAMA04,
Yes-No Task,7,0,7,0,3.8,-1,Correct Rejection,0.370406787377,False,-1,stimulus_RAMA04_Yes-No Task_2019_Jun_11_1418_308,-1,2019_Jun_11_1418,Yes-No Task,,RAMA04,
Yes-No Task,8,0,8,0,3.8,-1,Miss,0.468651365954,True,-1,stimulus_RAMA04_Yes-No Task_2019_Jun_11_1418_309,-1,2019_Jun_11_1418,Yes-No Task,,RAMA04,
Yes-No Task,9,0,9,0,3.8,-1,Miss,0.401014792733,True,-1,stimulus_RAMA04_Yes-No Task_2019_Jun_11_1418_310,-1,2019_Jun_11_1418,Yes-No Task,,RAMA04,
Yes-No Task,10,0,10,0,3.8,-1,Correct Rejection,0.359088386409,False,-1,stimulus_RAMA04_Yes-No Task_2019_Jun_11_1418_311,-1,2019_Jun_11_1418,Yes-No Task,,RAMA04,
Yes-No Task,11,0,11,0,3.8,-1,Miss,0.401195844635,True,-1,stimulus_RAMA04_Yes-No Task_2019_Jun_11_1418_312,-1,2019_Jun_11_1418,Yes-No Task,,RAMA04,
Yes-No Task,12,0,12,0,3.8,-1,Hit,0.302104305476,True,-1,stimulus_RAMA04_Yes-No Task_2019_Jun_11_1418_313,-1,2019_Jun_11_1418,Yes-No Task,,RAMA04,
Yes-No Task,13,0,13,0,3.8,-1,Hit,0.638021355029,True,-1,stimulus_RAMA04_Yes-No Task_2019_Jun_11_1418_314,-1,2019_Jun_11_1418,Yes-No Task,,RAMA04,
Yes-No Task,14,0,14,0,3.8,-1,Correct Rejection,0.402029257268,False,-1,stimulus_RAMA04_Yes-No Task_2019_Jun_11_1418_315,-1,2019_Jun_11_1418,Yes-No Task,,RAMA04,
Yes-No Task,15,0,15,0,3.8,-1,Correct Rejection,0.401826035697,False,-1,stimulus_RAMA04_Yes-No Task_2019_Jun_11_1418_316,-1,2019_Jun_11_1418,Yes-No Task,,RAMA04,
Yes-No Task,16,0,16,0,3.8,-1,Correct Rejection,0.434802493546,False,-1,stimulus_RAMA04_Yes-No Task_2019_Jun_11_1418_317,-1,2019_Jun_11_1418,Yes-No Task,,RAMA04,
Yes-No Task,17,0,17,0,3.8,-1,Correct Rejection,0.467505525798,False,-1,stimulus_RAMA04_Yes-No Task_2019_Jun_11_1418_318,-1,2019_Jun_11_1418,Yes-No Task,,RAMA04,
Yes-No Task,18,0,18,0,3.8,-1,Correct Rejection,0.36895303661,False,-1,stimulus_RAMA04_Yes-No Task_2019_Jun_11_1418_319,-1,2019_Jun_11_1418,Yes-No Task,,RAMA04,
Yes-No Task,19,0,19,0,3.8,-1,Miss,0.399519986939,True,-1,stimulus_RAMA04_Yes-No Task_2019_Jun_11_1418_320,-1,2019_Jun_11_1418,Yes-No Task,,RAMA04,
Yes-No Task,20,0,20,0,3.8,-1,Hit,0.202238882892,True,-1,stimulus_RAMA04_Yes-No Task_2019_Jun_11_1418_321,-1,2019_Jun_11_1418,Yes-No Task,,RAMA04,
Yes-No Task,21,0,21,0,3.8,-1,False Alarm,0.465424457565,False,-1,stimulus_RAMA04_Yes-No Task_2019_Jun_11_1418_322,-1,2019_Jun_11_1418,Yes-No Task,,RAMA04,
Yes-No Task,22,0,22,0,3.8,-1,Correct Rejection,0.232892049011,False,-1,stimulus_RAMA04_Yes-No Task_2019_Jun_11_1418_323,-1,2019_Jun_11_1418,Yes-No Task,,RAMA04,
Yes-No Task,23,0,23,0,3.8,-1,Correct Rejection,0.466769413091,False,-1,stimulus_RAMA04_Yes-No Task_2019_Jun_11_1418_324,-1,2019_Jun_11_1418,Yes-No Task,,RAMA04,
Yes-No Task,24,0,24,0,3.8,-1,Correct Rejection,0.366355498787,False,-1,stimulus_RAMA04_Yes-No Task_2019_Jun_11_1418_325,-1,2019_Jun_11_1418,Yes-No Task,,RAMA04,
Yes-No Task,25,0,25,0,3.8,-1,Correct Rejection,0.332330911886,False,-1,stimulus_RAMA04_Yes-No Task_2019_Jun_11_1418_326,-1,2019_Jun_11_1418,Yes-No Task,,RAMA04,
Yes-No Task,26,0,26,0,3.8,-1,Hit,0.235032236204,True,-1,stimulus_RAMA04_Yes-No Task_2019_Jun_11_1418_327,-1,2019_Jun_11_1418,Yes-No Task,,RAMA04,
Yes-No Task,27,0,27,0,3.8,-1,Hit,0.464710514527,True,-1,stimulus_RAMA04_Yes-No Task_2019_Jun_11_1418_328,-1,2019_Jun_11_1418,Yes-No Task,,RAMA04,
Yes-No Task,28,0,28,0,3.8,-1,Miss,0.0634366655722,True,-1,stimulus_RAMA04_Yes-No Task_2019_Jun_11_1418_329,-1,2019_Jun_11_1418,Yes-No Task,,RAMA04,
Yes-No Task,29,0,29,0,3.8,-1,Correct Rejection,0.369834893849,False,-1,stimulus_RAMA04_Yes-No Task_2019_Jun_11_1418_330,-1,2019_Jun_11_1418,Yes-No Task,,RAMA04,
Yes-No Task,30,0,30,0,3.8,-1,Correct Rejection,0.334525702056,False,-1,stimulus_RAMA04_Yes-No Task_2019_Jun_11_1418_331,-1,2019_Jun_11_1418,Yes-No Task,,RAMA04,
Yes-No Task,31,0,31,0,3.8,-1,Miss,0.234783033375,True,-1,stimulus_RAMA04_Yes-No Task_2019_Jun_11_1418_332,-1,2019_Jun_11_1418,Yes-No Task,,RAMA04,
Yes-No Task,32,0,32,0,3.8,-1,Hit,0.169413096737,True,-1,stimulus_RAMA04_Yes-No Task_2019_Jun_11_1418_333,-1,2019_Jun_11_1418,Yes-No Task,,RAMA04,
Yes-No Task,33,0,33,0,3.8,-1,False Alarm,0.393590440508,False,-1,stimulus_RAMA04_Yes-No Task_2019_Jun_11_1418_334,-1,2019_Jun_11_1418,Yes-No Task,,RAMA04,
Yes-No Task,34,0,34,0,3.8,-1,Hit,0.300348391291,True,-1,stimulus_RAMA04_Yes-No Task_2019_Jun_11_1418_335,-1,2019_Jun_11_1418,Yes-No Task,,RAMA04,
Yes-No Task,35,0,35,0,3.8,-1,Hit,0.432887697127,True,-1,stimulus_RAMA04_Yes-No Task_2019_Jun_11_1418_336,-1,2019_Jun_11_1418,Yes-No Task,,RAMA04,
Yes-No Task,36,0,36,0,3.8,-1,Hit,0.435914668255,True,-1,stimulus_RAMA04_Yes-No Task_2019_Jun_11_1418_337,-1,2019_Jun_11_1418,Yes-No Task,,RAMA04,
Yes-No Task,37,0,37,0,3.8,-1,Hit,0.601151669398,True,-1,stimulus_RAMA04_Yes-No Task_2019_Jun_11_1418_338,-1,2019_Jun_11_1418,Yes-No Task,,RAMA04,
Yes-No Task,38,0,38,0,3.8,-1,Hit,0.389908644836,True,-1,stimulus_RAMA04_Yes-No Task_2019_Jun_11_1418_339,-1,2019_Jun_11_1418,Yes-No Task,,RAMA04,
Yes-No Task,39,0,39,0,3.8,-1,Hit,0.336621139664,True,-1,stimulus_RAMA04_Yes-No Task_2019_Jun_11_1418_340,-1,2019_Jun_11_1418,Yes-No Task,,RAMA04,
Yes-No Task,40,0,40,0,3.8,-1,Hit,0.43259251304,True,-1,stimulus_RAMA04_Yes-No Task_2019_Jun_11_1418_341,-1,2019_Jun_11_1418,Yes-No Task,,RAMA04,
Yes-No Task,41,0,41,0,3.8,-1,Hit,0.23571949359,True,-1,stimulus_RAMA04_Yes-No Task_2019_Jun_11_1418_342,-1,2019_Jun_11_1418,Yes-No Task,,RAMA04,
Yes-No Task,42,0,42,0,3.8,-1,Miss,0.265742468182,True,-1,stimulus_RAMA04_Yes-No Task_2019_Jun_11_1418_343,-1,2019_Jun_11_1418,Yes-No Task,,RAMA04,
Yes-No Task,43,0,43,0,3.8,-1,False Alarm,0.165135595948,False,-1,stimulus_RAMA04_Yes-No Task_2019_Jun_11_1418_344,-1,2019_Jun_11_1418,Yes-No Task,,RAMA04,
Yes-No Task,44,0,44,0,3.8,-1,False Alarm,0.29254017584,False,-1,stimulus_RAMA04_Yes-No Task_2019_Jun_11_1418_345,-1,2019_Jun_11_1418,Yes-No Task,,RAMA04,
Yes-No Task,45,0,45,0,3.8,-1,Hit,0.366386289708,True,-1,stimulus_RAMA04_Yes-No Task_2019_Jun_11_1418_346,-1,2019_Jun_11_1418,Yes-No Task,,RAMA04,
Yes-No Task,46,0,46,0,3.8,-1,Correct Rejection,0.569102230016,False,-1,stimulus_RAMA04_Yes-No Task_2019_Jun_11_1418_347,-1,2019_Jun_11_1418,Yes-No Task,,RAMA04,
Yes-No Task,47,0,47,0,3.8,-1,Correct Rejection,0.365951108746,False,-1,stimulus_RAMA04_Yes-No Task_2019_Jun_11_1418_348,-1,2019_Jun_11_1418,Yes-No Task,,RAMA04,
Yes-No Task,48,0,48,0,3.8,-1,Correct Rejection,0.336387537885,False,-1,stimulus_RAMA04_Yes-No Task_2019_Jun_11_1418_349,-1,2019_Jun_11_1418,Yes-No Task,,RAMA04,
Yes-No Task,49,0,49,0,3.8,-1,Miss,0.300859523471,True,-1,stimulus_RAMA04_Yes-No Task_2019_Jun_11_1418_350,-1,2019_Jun_11_1418,Yes-No Task,,RAMA04,
Yes-No Task,50,0,50,0,3.8,-1,Hit,0.202018829528,True,-1,stimulus_RAMA04_Yes-No Task_2019_Jun_11_1418_351,-1,2019_Jun_11_1418,Yes-No Task,,RAMA04,
Yes-No Task,51,0,51,0,3.8,-1,False Alarm,0.434646895621,False,-1,stimulus_RAMA04_Yes-No Task_2019_Jun_11_1418_352,-1,2019_Jun_11_1418,Yes-No Task,,RAMA04,
Yes-No Task,52,0,52,0,3.8,-1,False Alarm,0.271851013415,False,-1,stimulus_RAMA04_Yes-No Task_2019_Jun_11_1418_353,-1,2019_Jun_11_1418,Yes-No Task,,RAMA04,
Yes-No Task,53,0,53,0,3.8,-1,False Alarm,0.267191292252,False,-1,stimulus_RAMA04_Yes-No Task_2019_Jun_11_1418_354,-1,2019_Jun_11_1418,Yes-No Task,,RAMA04,
Yes-No Task,54,0,54,0,3.8,-1,Hit,0.272295637056,True,-1,stimulus_RAMA04_Yes-No Task_2019_Jun_11_1418_355,-1,2019_Jun_11_1418,Yes-No Task,,RAMA04,
Yes-No Task,55,0,55,0,3.8,-1,Hit,0.200574110728,True,-1,stimulus_RAMA04_Yes-No Task_2019_Jun_11_1418_356,-1,2019_Jun_11_1418,Yes-No Task,,RAMA04,
Yes-No Task,56,0,56,0,3.8,-1,Hit,0.399463331793,True,-1,stimulus_RAMA04_Yes-No Task_2019_Jun_11_1418_357,-1,2019_Jun_11_1418,Yes-No Task,,RAMA04,
Yes-No Task,57,0,57,0,3.8,-1,False Alarm,0.33918295987,False,-1,stimulus_RAMA04_Yes-No Task_2019_Jun_11_1418_358,-1,2019_Jun_11_1418,Yes-No Task,,RAMA04,
Yes-No Task,58,0,58,0,3.8,-1,Correct Rejection,0.133864555508,False,-1,stimulus_RAMA04_Yes-No Task_2019_Jun_11_1418_359,-1,2019_Jun_11_1418,Yes-No Task,,RAMA04,
Yes-No Task,59,0,59,0,3.8,-1,Miss,0.269307257608,True,-1,stimulus_RAMA04_Yes-No Task_2019_Jun_11_1418_360,-1,2019_Jun_11_1418,Yes-No Task,,RAMA04,
Yes-No Task,60,0,60,0,3.8,-1,Hit,0.266620219685,True,-1,stimulus_RAMA04_Yes-No Task_2019_Jun_11_1418_361,-1,2019_Jun_11_1418,Yes-No Task,,RAMA04,
Yes-No Task,61,0,61,0,3.8,-1,False Alarm,0.366385468282,False,-1,stimulus_RAMA04_Yes-No Task_2019_Jun_11_1418_362,-1,2019_Jun_11_1418,Yes-No Task,,RAMA04,
Yes-No Task,62,0,62,0,3.8,-1,Correct Rejection,0.135246049613,False,-1,stimulus_RAMA04_Yes-No Task_2019_Jun_11_1418_363,-1,2019_Jun_11_1418,Yes-No Task,,RAMA04,
Yes-No Task,63,0,63,0,3.8,-1,Miss,0.299316683318,True,-1,stimulus_RAMA04_Yes-No Task_2019_Jun_11_1418_364,-1,2019_Jun_11_1418,Yes-No Task,,RAMA04,
Yes-No Task,64,0,64,0,3.8,-1,False Alarm,0.134796089027,False,-1,stimulus_RAMA04_Yes-No Task_2019_Jun_11_1418_365,-1,2019_Jun_11_1418,Yes-No Task,,RAMA04,
Yes-No Task,65,0,65,0,3.8,-1,Correct Rejection,0.134735738393,False,-1,stimulus_RAMA04_Yes-No Task_2019_Jun_11_1418_366,-1,2019_Jun_11_1418,Yes-No Task,,RAMA04,
Yes-No Task,66,0,66,0,3.8,-1,Correct Rejection,0.197661682032,False,-1,stimulus_RAMA04_Yes-No Task_2019_Jun_11_1418_367,-1,2019_Jun_11_1418,Yes-No Task,,RAMA04,
Yes-No Task,67,0,67,0,3.8,-1,Miss,0.235053995159,True,-1,stimulus_RAMA04_Yes-No Task_2019_Jun_11_1418_368,-1,2019_Jun_11_1418,Yes-No Task,,RAMA04,
Yes-No Task,68,0,68,0,3.8,-1,Hit,0.0671952338889,True,-1,stimulus_RAMA04_Yes-No Task_2019_Jun_11_1418_369,-1,2019_Jun_11_1418,Yes-No Task,,RAMA04,
Yes-No Task,69,0,69,0,3.8,-1,Hit,0.2951459256,True,-1,stimulus_RAMA04_Yes-No Task_2019_Jun_11_1418_370,-1,2019_Jun_11_1418,Yes-No Task,,RAMA04,
Yes-No Task,70,0,70,0,3.8,-1,Hit,0.372259180993,True,-1,stimulus_RAMA04_Yes-No Task_2019_Jun_11_1418_371,-1,2019_Jun_11_1418,Yes-No Task,,RAMA04,
Yes-No Task,71,0,71,0,3.8,-1,Hit,0.299680018798,True,-1,stimulus_RAMA04_Yes-No Task_2019_Jun_11_1418_372,-1,2019_Jun_11_1418,Yes-No Task,,RAMA04,
Yes-No Task,72,0,72,0,3.8,-1,Miss,0.332530437969,True,-1,stimulus_RAMA04_Yes-No Task_2019_Jun_11_1418_373,-1,2019_Jun_11_1418,Yes-No Task,,RAMA04,
Yes-No Task,73,0,73,0,3.8,-1,Hit,0.201559425797,True,-1,stimulus_RAMA04_Yes-No Task_2019_Jun_11_1418_374,-1,2019_Jun_11_1418,Yes-No Task,,RAMA04,
Yes-No Task,74,0,74,0,3.8,-1,False Alarm,0.239934181329,False,-1,stimulus_RAMA04_Yes-No Task_2019_Jun_11_1418_375,-1,2019_Jun_11_1418,Yes-No Task,,RAMA04,
Yes-No Task,75,0,75,0,3.8,-1,Hit,0.168786600698,True,-1,stimulus_RAMA04_Yes-No Task_2019_Jun_11_1418_376,-1,2019_Jun_11_1418,Yes-No Task,,RAMA04,
Yes-No Task,76,0,76,0,3.8,-1,False Alarm,0.268360533286,False,-1,stimulus_RAMA04_Yes-No Task_2019_Jun_11_1418_377,-1,2019_Jun_11_1418,Yes-No Task,,RAMA04,
Yes-No Task,77,0,77,0,3.8,-1,Correct Rejection,0.0346202920191,False,-1,stimulus_RAMA04_Yes-No Task_2019_Jun_11_1418_378,-1,2019_Jun_11_1418,Yes-No Task,,RAMA04,
Yes-No Task,78,0,78,0,3.8,-1,Correct Rejection,0.30375676183,False,-1,stimulus_RAMA04_Yes-No Task_2019_Jun_11_1418_379,-1,2019_Jun_11_1418,Yes-No Task,,RAMA04,
Yes-No Task,79,0,79,0,3.8,-1,Miss,0.134275514167,True,-1,stimulus_RAMA04_Yes-No Task_2019_Jun_11_1418_380,-1,2019_Jun_11_1418,Yes-No Task,,RAMA04,
Yes-No Task,80,0,80,0,3.8,-1,Hit,0.22599360859,True,-1,stimulus_RAMA04_Yes-No Task_2019_Jun_11_1418_381,-1,2019_Jun_11_1418,Yes-No Task,,RAMA04,
Yes-No Task,81,0,81,0,3.8,-1,Hit,0.267271349207,True,-1,stimulus_RAMA04_Yes-No Task_2019_Jun_11_1418_382,-1,2019_Jun_11_1418,Yes-No Task,,RAMA04,
Yes-No Task,82,0,82,0,3.8,-1,Hit,0.501396274194,True,-1,stimulus_RAMA04_Yes-No Task_2019_Jun_11_1418_383,-1,2019_Jun_11_1418,Yes-No Task,,RAMA04,
Yes-No Task,83,0,83,0,3.8,-1,Miss,0.667841929011,True,-1,stimulus_RAMA04_Yes-No Task_2019_Jun_11_1418_384,-1,2019_Jun_11_1418,Yes-No Task,,RAMA04,
Yes-No Task,84,0,84,0,3.8,-1,Hit,0.690470931586,True,-1,stimulus_RAMA04_Yes-No Task_2019_Jun_11_1418_385,-1,2019_Jun_11_1418,Yes-No Task,,RAMA04,
Yes-No Task,85,0,85,0,3.8,-1,No Answer,-1,True,-1,stimulus_RAMA04_Yes-No Task_2019_Jun_11_1418_386,-1,2019_Jun_11_1418,Yes-No Task,,RAMA04,
Yes-No Task,86,0,86,0,3.8,-1,False Alarm,0.800724453293,False,-1,stimulus_RAMA04_Yes-No Task_2019_Jun_11_1418_387,-1,2019_Jun_11_1418,Yes-No Task,,RAMA04,
Yes-No Task,87,0,87,0,3.8,-1,Hit,0.433531846851,True,-1,stimulus_RAMA04_Yes-No Task_2019_Jun_11_1418_388,-1,2019_Jun_11_1418,Yes-No Task,,RAMA04,
Yes-No Task,88,0,88,0,3.8,-1,Hit,0.499841117766,True,-1,stimulus_RAMA04_Yes-No Task_2019_Jun_11_1418_389,-1,2019_Jun_11_1418,Yes-No Task,,RAMA04,
Yes-No Task,89,0,89,0,3.8,-1,Hit,0.404572602827,True,-1,stimulus_RAMA04_Yes-No Task_2019_Jun_11_1418_390,-1,2019_Jun_11_1418,Yes-No Task,,RAMA04,
Yes-No Task,90,0,90,0,3.8,-1,Hit,0.299986698199,True,-1,stimulus_RAMA04_Yes-No Task_2019_Jun_11_1418_391,-1,2019_Jun_11_1418,Yes-No Task,,RAMA04,
Yes-No Task,91,0,91,0,3.8,-1,Hit,0.403998246416,True,-1,stimulus_RAMA04_Yes-No Task_2019_Jun_11_1418_392,-1,2019_Jun_11_1418,Yes-No Task,,RAMA04,
Yes-No Task,92,0,92,0,3.8,-1,False Alarm,0.302890505176,False,-1,stimulus_RAMA04_Yes-No Task_2019_Jun_11_1418_393,-1,2019_Jun_11_1418,Yes-No Task,,RAMA04,
Yes-No Task,93,0,93,0,3.8,-1,Miss,0.166390230879,True,-1,stimulus_RAMA04_Yes-No Task_2019_Jun_11_1418_394,-1,2019_Jun_11_1418,Yes-No Task,,RAMA04,
Yes-No Task,94,0,94,0,3.8,-1,False Alarm,0.200533466414,False,-1,stimulus_RAMA04_Yes-No Task_2019_Jun_11_1418_395,-1,2019_Jun_11_1418,Yes-No Task,,RAMA04,
Yes-No Task,95,0,95,0,3.8,-1,False Alarm,0.132769623306,False,-1,stimulus_RAMA04_Yes-No Task_2019_Jun_11_1418_396,-1,2019_Jun_11_1418,Yes-No Task,,RAMA04,
Yes-No Task,96,0,96,0,3.8,-1,Hit,0.0673413886689,True,-1,stimulus_RAMA04_Yes-No Task_2019_Jun_11_1418_397,-1,2019_Jun_11_1418,Yes-No Task,,RAMA04,
Yes-No Task,97,0,97,0,3.8,-1,False Alarm,0.33372102771,False,-1,stimulus_RAMA04_Yes-No Task_2019_Jun_11_1418_398,-1,2019_Jun_11_1418,Yes-No Task,,RAMA04,
Yes-No Task,98,0,98,0,3.8,-1,False Alarm,0.0747390557081,False,-1,stimulus_RAMA04_Yes-No Task_2019_Jun_11_1418_399,-1,2019_Jun_11_1418,Yes-No Task,,RAMA04,
Yes-No Task,99,0,99,0,3.8,-1,No Answer,-1,False,-1,stimulus_RAMA04_Yes-No Task_2019_Jun_11_1418_400,-1,2019_Jun_11_1418,Yes-No Task,,RAMA04,
Yes-No Task,0,0,0,0,2.5,-1,Hit,0.401061184704,True,-1,stimulus_RAMA04_Yes-No Task_2019_Jun_11_1418_401,-1,2019_Jun_11_1418,Yes-No Task,,RAMA04,
Yes-No Task,1,0,1,0,2.5,-1,False Alarm,0.168825191911,False,-1,stimulus_RAMA04_Yes-No Task_2019_Jun_11_1418_402,-1,2019_Jun_11_1418,Yes-No Task,,RAMA04,
Yes-No Task,2,0,2,0,2.5,-1,Correct Rejection,0.167348039802,False,-1,stimulus_RAMA04_Yes-No Task_2019_Jun_11_1418_403,-1,2019_Jun_11_1418,Yes-No Task,,RAMA04,
Yes-No Task,3,0,3,0,2.5,-1,Miss,0.270662066527,True,-1,stimulus_RAMA04_Yes-No Task_2019_Jun_11_1418_404,-1,2019_Jun_11_1418,Yes-No Task,,RAMA04,
Yes-No Task,4,0,4,0,2.5,-1,False Alarm,0.0664197080769,False,-1,stimulus_RAMA04_Yes-No Task_2019_Jun_11_1418_405,-1,2019_Jun_11_1418,Yes-No Task,,RAMA04,
Yes-No Task,5,0,5,0,2.5,-1,Hit,0.167823454365,True,-1,stimulus_RAMA04_Yes-No Task_2019_Jun_11_1418_406,-1,2019_Jun_11_1418,Yes-No Task,,RAMA04,
Yes-No Task,6,0,6,0,2.5,-1,Hit,0.291325774975,True,-1,stimulus_RAMA04_Yes-No Task_2019_Jun_11_1418_407,-1,2019_Jun_11_1418,Yes-No Task,,RAMA04,
Yes-No Task,7,0,7,0,2.5,-1,Hit,0.33497484168,True,-1,stimulus_RAMA04_Yes-No Task_2019_Jun_11_1418_408,-1,2019_Jun_11_1418,Yes-No Task,,RAMA04,
Yes-No Task,8,0,8,0,2.5,-1,Hit,0.267678202596,True,-1,stimulus_RAMA04_Yes-No Task_2019_Jun_11_1418_409,-1,2019_Jun_11_1418,Yes-No Task,,RAMA04,
Yes-No Task,9,0,9,0,2.5,-1,False Alarm,0.299684124067,False,-1,stimulus_RAMA04_Yes-No Task_2019_Jun_11_1418_410,-1,2019_Jun_11_1418,Yes-No Task,,RAMA04,
Yes-No Task,10,0,10,0,2.5,-1,False Alarm,0.200360214803,False,-1,stimulus_RAMA04_Yes-No Task_2019_Jun_11_1418_411,-1,2019_Jun_11_1418,Yes-No Task,,RAMA04,
Yes-No Task,11,0,11,0,2.5,-1,Miss,0.0682043610141,True,-1,stimulus_RAMA04_Yes-No Task_2019_Jun_11_1418_412,-1,2019_Jun_11_1418,Yes-No Task,,RAMA04,
Yes-No Task,12,0,12,0,2.5,-1,Miss,0.16777049331,True,-1,stimulus_RAMA04_Yes-No Task_2019_Jun_11_1418_413,-1,2019_Jun_11_1418,Yes-No Task,,RAMA04,
Yes-No Task,13,0,13,0,2.5,-1,Correct Rejection,0.500284920447,False,-1,stimulus_RAMA04_Yes-No Task_2019_Jun_11_1418_414,-1,2019_Jun_11_1418,Yes-No Task,,RAMA04,
Yes-No Task,14,0,14,0,2.5,-1,Miss,0.402597866487,True,-1,stimulus_RAMA04_Yes-No Task_2019_Jun_11_1418_415,-1,2019_Jun_11_1418,Yes-No Task,,RAMA04,
Yes-No Task,15,0,15,0,2.5,-1,Miss,0.633098883089,True,-1,stimulus_RAMA04_Yes-No Task_2019_Jun_11_1418_416,-1,2019_Jun_11_1418,Yes-No Task,,RAMA04,
Yes-No Task,16,0,16,0,2.5,-1,Miss,0.730418907013,True,-1,stimulus_RAMA04_Yes-No Task_2019_Jun_11_1418_417,-1,2019_Jun_11_1418,Yes-No Task,,RAMA04,
Yes-No Task,17,0,17,0,2.5,-1,Miss,0.566040361766,True,-1,stimulus_RAMA04_Yes-No Task_2019_Jun_11_1418_418,-1,2019_Jun_11_1418,Yes-No Task,,RAMA04,
Yes-No Task,18,0,18,0,2.5,-1,Miss,0.76940414682,True,-1,stimulus_RAMA04_Yes-No Task_2019_Jun_11_1418_419,-1,2019_Jun_11_1418,Yes-No Task,,RAMA04,
Yes-No Task,19,0,19,0,2.5,-1,Correct Rejection,0.705090139993,False,-1,stimulus_RAMA04_Yes-No Task_2019_Jun_11_1418_420,-1,2019_Jun_11_1418,Yes-No Task,,RAMA04,
Yes-No Task,20,0,20,0,2.5,-1,Miss,0.767614156939,True,-1,stimulus_RAMA04_Yes-No Task_2019_Jun_11_1418_421,-1,2019_Jun_11_1418,Yes-No Task,,RAMA04,
Yes-No Task,21,0,21,0,2.5,-1,Miss,0.664773492608,True,-1,stimulus_RAMA04_Yes-No Task_2019_Jun_11_1418_422,-1,2019_Jun_11_1418,Yes-No Task,,RAMA04,
Yes-No Task,22,0,22,0,2.5,-1,Hit,0.268543637823,True,-1,stimulus_RAMA04_Yes-No Task_2019_Jun_11_1418_423,-1,2019_Jun_11_1418,Yes-No Task,,RAMA04,
Yes-No Task,23,0,23,0,2.5,-1,Hit,0.297991023865,True,-1,stimulus_RAMA04_Yes-No Task_2019_Jun_11_1418_424,-1,2019_Jun_11_1418,Yes-No Task,,RAMA04,
Yes-No Task,24,0,24,0,2.5,-1,Hit,0.367948014755,True,-1,stimulus_RAMA04_Yes-No Task_2019_Jun_11_1418_425,-1,2019_Jun_11_1418,Yes-No Task,,RAMA04,
Yes-No Task,25,0,25,0,2.5,-1,Hit,0.499666634947,True,-1,stimulus_RAMA04_Yes-No Task_2019_Jun_11_1418_426,-1,2019_Jun_11_1418,Yes-No Task,,RAMA04,
Yes-No Task,26,0,26,0,2.5,-1,Hit,0.400399381295,True,-1,stimulus_RAMA04_Yes-No Task_2019_Jun_11_1418_427,-1,2019_Jun_11_1418,Yes-No Task,,RAMA04,
Yes-No Task,27,0,27,0,2.5,-1,Hit,0.637683884241,True,-1,stimulus_RAMA04_Yes-No Task_2019_Jun_11_1418_428,-1,2019_Jun_11_1418,Yes-No Task,,RAMA04,
Yes-No Task,28,0,28,0,2.5,-1,Correct Rejection,0.533327065874,False,-1,stimulus_RAMA04_Yes-No Task_2019_Jun_11_1418_429,-1,2019_Jun_11_1418,Yes-No Task,,RAMA04,
Yes-No Task,29,0,29,0,2.5,-1,Hit,0.536331046373,True,-1,stimulus_RAMA04_Yes-No Task_2019_Jun_11_1418_430,-1,2019_Jun_11_1418,Yes-No Task,,RAMA04,
Yes-No Task,30,0,30,0,2.5,-1,Hit,0.569640458096,True,-1,stimulus_RAMA04_Yes-No Task_2019_Jun_11_1418_431,-1,2019_Jun_11_1418,Yes-No Task,,RAMA04,
Yes-No Task,31,0,31,0,2.5,-1,Hit,0.534686801024,True,-1,stimulus_RAMA04_Yes-No Task_2019_Jun_11_1418_432,-1,2019_Jun_11_1418,Yes-No Task,,RAMA04,
Yes-No Task,32,0,32,0,2.5,-1,Hit,0.569682334084,True,-1,stimulus_RAMA04_Yes-No Task_2019_Jun_11_1418_433,-1,2019_Jun_11_1418,Yes-No Task,,RAMA04,
Yes-No Task,33,0,33,0,2.5,-1,False Alarm,0.567612350918,False,-1,stimulus_RAMA04_Yes-No Task_2019_Jun_11_1418_434,-1,2019_Jun_11_1418,Yes-No Task,,RAMA04,
Yes-No Task,34,0,34,0,2.5,-1,False Alarm,0.509498030879,False,-1,stimulus_RAMA04_Yes-No Task_2019_Jun_11_1418_435,-1,2019_Jun_11_1418,Yes-No Task,,RAMA04,
Yes-No Task,35,0,35,0,2.5,-1,False Alarm,0.566989959683,False,-1,stimulus_RAMA04_Yes-No Task_2019_Jun_11_1418_436,-1,2019_Jun_11_1418,Yes-No Task,,RAMA04,
Yes-No Task,36,0,36,0,2.5,-1,Hit,0.667620643973,True,-1,stimulus_RAMA04_Yes-No Task_2019_Jun_11_1418_437,-1,2019_Jun_11_1418,Yes-No Task,,RAMA04,
Yes-No Task,37,0,37,0,2.5,-1,Hit,0.659213028848,True,-1,stimulus_RAMA04_Yes-No Task_2019_Jun_11_1418_438,-1,2019_Jun_11_1418,Yes-No Task,,RAMA04,
Yes-No Task,38,0,38,0,2.5,-1,Correct Rejection,0.733058320824,False,-1,stimulus_RAMA04_Yes-No Task_2019_Jun_11_1418_439,-1,2019_Jun_11_1418,Yes-No Task,,RAMA04,
Yes-No Task,39,0,39,0,2.5,-1,Hit,0.66662136931,True,-1,stimulus_RAMA04_Yes-No Task_2019_Jun_11_1418_440,-1,2019_Jun_11_1418,Yes-No Task,,RAMA04,
Yes-No Task,40,0,40,0,2.5,-1,False Alarm,0.635255903006,False,-1,stimulus_RAMA04_Yes-No Task_2019_Jun_11_1418_441,-1,2019_Jun_11_1418,Yes-No Task,,RAMA04,
Yes-No Task,41,0,41,0,2.5,-1,Hit,0.634640901815,True,-1,stimulus_RAMA04_Yes-No Task_2019_Jun_11_1418_442,-1,2019_Jun_11_1418,Yes-No Task,,RAMA04,
Yes-No Task,42,0,42,0,2.5,-1,Hit,0.733144125436,True,-1,stimulus_RAMA04_Yes-No Task_2019_Jun_11_1418_443,-1,2019_Jun_11_1418,Yes-No Task,,RAMA04,
Yes-No Task,43,0,43,0,2.5,-1,Hit,0.599754574243,True,-1,stimulus_RAMA04_Yes-No Task_2019_Jun_11_1418_444,-1,2019_Jun_11_1418,Yes-No Task,,RAMA04,
Yes-No Task,44,0,44,0,2.5,-1,Hit,0.769487488084,True,-1,stimulus_RAMA04_Yes-No Task_2019_Jun_11_1418_445,-1,2019_Jun_11_1418,Yes-No Task,,RAMA04,
Yes-No Task,45,0,45,0,2.5,-1,Hit,0.792332438752,True,-1,stimulus_RAMA04_Yes-No Task_2019_Jun_11_1418_446,-1,2019_Jun_11_1418,Yes-No Task,,RAMA04,
Yes-No Task,46,0,46,0,2.5,-1,False Alarm,0.634938138537,False,-1,stimulus_RAMA04_Yes-No Task_2019_Jun_11_1418_447,-1,2019_Jun_11_1418,Yes-No Task,,RAMA04,
Yes-No Task,47,0,47,0,2.5,-1,False Alarm,0.568451921456,False,-1,stimulus_RAMA04_Yes-No Task_2019_Jun_11_1418_448,-1,2019_Jun_11_1418,Yes-No Task,,RAMA04,
Yes-No Task,48,0,48,0,2.5,-1,Hit,0.633754938841,True,-1,stimulus_RAMA04_Yes-No Task_2019_Jun_11_1418_449,-1,2019_Jun_11_1418,Yes-No Task,,RAMA04,
Yes-No Task,49,0,49,0,2.5,-1,False Alarm,0.632782350294,False,-1,stimulus_RAMA04_Yes-No Task_2019_Jun_11_1418_450,-1,2019_Jun_11_1418,Yes-No Task,,RAMA04,
Yes-No Task,50,0,50,0,2.5,-1,Hit,0.534640409052,True,-1,stimulus_RAMA04_Yes-No Task_2019_Jun_11_1418_451,-1,2019_Jun_11_1418,Yes-No Task,,RAMA04,
Yes-No Task,51,0,51,0,2.5,-1,False Alarm,0.668097700924,False,-1,stimulus_RAMA04_Yes-No Task_2019_Jun_11_1418_452,-1,2019_Jun_11_1418,Yes-No Task,,RAMA04,
Yes-No Task,52,0,52,0,2.5,-1,Hit,0.567858268972,True,-1,stimulus_RAMA04_Yes-No Task_2019_Jun_11_1418_453,-1,2019_Jun_11_1418,Yes-No Task,,RAMA04,
Yes-No Task,53,0,53,0,2.5,-1,False Alarm,0.569819868077,False,-1,stimulus_RAMA04_Yes-No Task_2019_Jun_11_1418_454,-1,2019_Jun_11_1418,Yes-No Task,,RAMA04,
Yes-No Task,54,0,54,0,2.5,-1,False Alarm,0.30330351647,False,-1,stimulus_RAMA04_Yes-No Task_2019_Jun_11_1418_455,-1,2019_Jun_11_1418,Yes-No Task,,RAMA04,
Yes-No Task,55,0,55,0,2.5,-1,False Alarm,0.466647480614,False,-1,stimulus_RAMA04_Yes-No Task_2019_Jun_11_1418_456,-1,2019_Jun_11_1418,Yes-No Task,,RAMA04,
Yes-No Task,56,0,56,0,2.5,-1,False Alarm,0.336099332664,False,-1,stimulus_RAMA04_Yes-No Task_2019_Jun_11_1418_457,-1,2019_Jun_11_1418,Yes-No Task,,RAMA04,
Yes-No Task,57,0,57,0,2.5,-1,Hit,0.567731409334,True,-1,stimulus_RAMA04_Yes-No Task_2019_Jun_11_1418_458,-1,2019_Jun_11_1418,Yes-No Task,,RAMA04,
Yes-No Task,58,0,58,0,2.5,-1,Hit,0.640379133169,True,-1,stimulus_RAMA04_Yes-No Task_2019_Jun_11_1418_459,-1,2019_Jun_11_1418,Yes-No Task,,RAMA04,
Yes-No Task,59,0,59,0,2.5,-1,False Alarm,0.568453153595,False,-1,stimulus_RAMA04_Yes-No Task_2019_Jun_11_1418_460,-1,2019_Jun_11_1418,Yes-No Task,,RAMA04,
Yes-No Task,60,0,60,0,2.5,-1,Correct Rejection,0.591401972808,False,-1,stimulus_RAMA04_Yes-No Task_2019_Jun_11_1418_461,-1,2019_Jun_11_1418,Yes-No Task,,RAMA04,
Yes-No Task,61,0,61,0,2.5,-1,False Alarm,0.734882796649,False,-1,stimulus_RAMA04_Yes-No Task_2019_Jun_11_1418_462,-1,2019_Jun_11_1418,Yes-No Task,,RAMA04,
Yes-No Task,62,0,62,0,2.5,-1,Correct Rejection,0.467386056669,False,-1,stimulus_RAMA04_Yes-No Task_2019_Jun_11_1418_463,-1,2019_Jun_11_1418,Yes-No Task,,RAMA04,
Yes-No Task,63,0,63,0,2.5,-1,Hit,0.727524132002,True,-1,stimulus_RAMA04_Yes-No Task_2019_Jun_11_1418_464,-1,2019_Jun_11_1418,Yes-No Task,,RAMA04,
Yes-No Task,64,0,64,0,2.5,-1,Hit,0.60084950598,True,-1,stimulus_RAMA04_Yes-No Task_2019_Jun_11_1418_465,-1,2019_Jun_11_1418,Yes-No Task,,RAMA04,
Yes-No Task,65,0,65,0,2.5,-1,No Answer,-1,False,-1,stimulus_RAMA04_Yes-No Task_2019_Jun_11_1418_466,-1,2019_Jun_11_1418,Yes-No Task,,RAMA04,
Yes-No Task,66,0,66,0,2.5,-1,Hit,0.702014723793,True,-1,stimulus_RAMA04_Yes-No Task_2019_Jun_11_1418_467,-1,2019_Jun_11_1418,Yes-No Task,,RAMA04,
Yes-No Task,67,0,67,0,2.5,-1,Hit,0.666440728586,True,-1,stimulus_RAMA04_Yes-No Task_2019_Jun_11_1418_468,-1,2019_Jun_11_1418,Yes-No Task,,RAMA04,
Yes-No Task,68,0,68,0,2.5,-1,Correct Rejection,0.697194888722,False,-1,stimulus_RAMA04_Yes-No Task_2019_Jun_11_1418_469,-1,2019_Jun_11_1418,Yes-No Task,,RAMA04,
Yes-No Task,69,0,69,0,2.5,-1,Miss,0.667731081136,True,-1,stimulus_RAMA04_Yes-No Task_2019_Jun_11_1418_470,-1,2019_Jun_11_1418,Yes-No Task,,RAMA04,
Yes-No Task,70,0,70,0,2.5,-1,Hit,0.560946691316,True,-1,stimulus_RAMA04_Yes-No Task_2019_Jun_11_1418_471,-1,2019_Jun_11_1418,Yes-No Task,,RAMA04,
Yes-No Task,71,0,71,0,2.5,-1,Correct Rejection,0.730549871456,False,-1,stimulus_RAMA04_Yes-No Task_2019_Jun_11_1418_472,-1,2019_Jun_11_1418,Yes-No Task,,RAMA04,
Yes-No Task,72,0,72,0,2.5,-1,False Alarm,0.637421954889,False,-1,stimulus_RAMA04_Yes-No Task_2019_Jun_11_1418_473,-1,2019_Jun_11_1418,Yes-No Task,,RAMA04,
Yes-No Task,73,0,73,0,2.5,-1,Correct Rejection,0.76960121002,False,-1,stimulus_RAMA04_Yes-No Task_2019_Jun_11_1418_474,-1,2019_Jun_11_1418,Yes-No Task,,RAMA04,
Yes-No Task,74,0,74,0,2.5,-1,Correct Rejection,0.602422726806,False,-1,stimulus_RAMA04_Yes-No Task_2019_Jun_11_1418_475,-1,2019_Jun_11_1418,Yes-No Task,,RAMA04,
Yes-No Task,75,0,75,0,2.5,-1,Miss,0.502799117006,True,-1,stimulus_RAMA04_Yes-No Task_2019_Jun_11_1418_476,-1,2019_Jun_11_1418,Yes-No Task,,RAMA04,
Yes-No Task,76,0,76,0,2.5,-1,Correct Rejection,0.634840839077,False,-1,stimulus_RAMA04_Yes-No Task_2019_Jun_11_1418_477,-1,2019_Jun_11_1418,Yes-No Task,,RAMA04,
Yes-No Task,77,0,77,0,2.5,-1,Miss,0.599453231785,True,-1,stimulus_RAMA04_Yes-No Task_2019_Jun_11_1418_478,-1,2019_Jun_11_1418,Yes-No Task,,RAMA04,
Yes-No Task,78,0,78,0,2.5,-1,Miss,0.568974549416,True,-1,stimulus_RAMA04_Yes-No Task_2019_Jun_11_1418_479,-1,2019_Jun_11_1418,Yes-No Task,,RAMA04,
Yes-No Task,79,0,79,0,2.5,-1,Hit,0.464327883441,True,-1,stimulus_RAMA04_Yes-No Task_2019_Jun_11_1418_480,-1,2019_Jun_11_1418,Yes-No Task,,RAMA04,
Yes-No Task,80,0,80,0,2.5,-1,Hit,0.637824291829,True,-1,stimulus_RAMA04_Yes-No Task_2019_Jun_11_1418_481,-1,2019_Jun_11_1418,Yes-No Task,,RAMA04,
Yes-No Task,81,0,81,0,2.5,-1,Hit,0.639124087524,True,-1,stimulus_RAMA04_Yes-No Task_2019_Jun_11_1418_482,-1,2019_Jun_11_1418,Yes-No Task,,RAMA04,
Yes-No Task,82,0,82,0,2.5,-1,Hit,0.699299358297,True,-1,stimulus_RAMA04_Yes-No Task_2019_Jun_11_1418_483,-1,2019_Jun_11_1418,Yes-No Task,,RAMA04,
Yes-No Task,83,0,83,0,2.5,-1,False Alarm,0.66813875502,False,-1,stimulus_RAMA04_Yes-No Task_2019_Jun_11_1418_484,-1,2019_Jun_11_1418,Yes-No Task,,RAMA04,
Yes-No Task,84,0,84,0,2.5,-1,False Alarm,0.599870759528,False,-1,stimulus_RAMA04_Yes-No Task_2019_Jun_11_1418_485,-1,2019_Jun_11_1418,Yes-No Task,,RAMA04,
Yes-No Task,85,0,85,0,2.5,-1,Correct Rejection,0.635976825375,False,-1,stimulus_RAMA04_Yes-No Task_2019_Jun_11_1418_486,-1,2019_Jun_11_1418,Yes-No Task,,RAMA04,
Yes-No Task,86,0,86,0,2.5,-1,Miss,0.732631350867,True,-1,stimulus_RAMA04_Yes-No Task_2019_Jun_11_1418_487,-1,2019_Jun_11_1418,Yes-No Task,,RAMA04,
Yes-No Task,87,0,87,0,2.5,-1,Hit,0.565994791221,True,-1,stimulus_RAMA04_Yes-No Task_2019_Jun_11_1418_488,-1,2019_Jun_11_1418,Yes-No Task,,RAMA04,
Yes-No Task,88,0,88,0,2.5,-1,False Alarm,0.737827658653,False,-1,stimulus_RAMA04_Yes-No Task_2019_Jun_11_1418_489,-1,2019_Jun_11_1418,Yes-No Task,,RAMA04,
Yes-No Task,89,0,89,0,2.5,-1,Hit,0.63973785704,True,-1,stimulus_RAMA04_Yes-No Task_2019_Jun_11_1418_490,-1,2019_Jun_11_1418,Yes-No Task,,RAMA04,
Yes-No Task,90,0,90,0,2.5,-1,Correct Rejection,0.834626286291,False,-1,stimulus_RAMA04_Yes-No Task_2019_Jun_11_1418_491,-1,2019_Jun_11_1418,Yes-No Task,,RAMA04,
Yes-No Task,91,0,91,0,2.5,-1,Miss,0.768272265326,True,-1,stimulus_RAMA04_Yes-No Task_2019_Jun_11_1418_492,-1,2019_Jun_11_1418,Yes-No Task,,RAMA04,
Yes-No Task,92,0,92,0,2.5,-1,Hit,0.800257659983,True,-1,stimulus_RAMA04_Yes-No Task_2019_Jun_11_1418_493,-1,2019_Jun_11_1418,Yes-No Task,,RAMA04,
Yes-No Task,93,0,93,0,2.5,-1,Hit,0.833441444207,True,-1,stimulus_RAMA04_Yes-No Task_2019_Jun_11_1418_494,-1,2019_Jun_11_1418,Yes-No Task,,RAMA04,
Yes-No Task,94,0,94,0,2.5,-1,Correct Rejection,0.866398606449,False,-1,stimulus_RAMA04_Yes-No Task_2019_Jun_11_1418_495,-1,2019_Jun_11_1418,Yes-No Task,,RAMA04,
Yes-No Task,95,0,95,0,2.5,-1,Correct Rejection,0.83377891453,False,-1,stimulus_RAMA04_Yes-No Task_2019_Jun_11_1418_496,-1,2019_Jun_11_1418,Yes-No Task,,RAMA04,
Yes-No Task,96,0,96,0,2.5,-1,Miss,0.734001349658,True,-1,stimulus_RAMA04_Yes-No Task_2019_Jun_11_1418_497,-1,2019_Jun_11_1418,Yes-No Task,,RAMA04,
Yes-No Task,97,0,97,0,2.5,-1,Correct Rejection,0.7360183727,False,-1,stimulus_RAMA04_Yes-No Task_2019_Jun_11_1418_498,-1,2019_Jun_11_1418,Yes-No Task,,RAMA04,
Yes-No Task,98,0,98,0,2.5,-1,No Answer,-1,True,-1,stimulus_RAMA04_Yes-No Task_2019_Jun_11_1418_499,-1,2019_Jun_11_1418,Yes-No Task,,RAMA04,
Yes-No Task,99,0,99,0,2.5,-1,False Alarm,0.633680629544,False,-1,stimulus_RAMA04_Yes-No Task_2019_Jun_11_1418_500,-1,2019_Jun_11_1418,Yes-No Task,,RAMA04,
Yes-No Task,0,0,0,0,7,-1,Correct Rejection,0.567762200721,False,-1,stimulus_RAMA04_Yes-No Task_2019_Jun_11_1418_501,-1,2019_Jun_11_1418,Yes-No Task,,RAMA04,
Yes-No Task,1,0,1,0,7,-1,Miss,0.472462073434,True,-1,stimulus_RAMA04_Yes-No Task_2019_Jun_11_1418_502,-1,2019_Jun_11_1418,Yes-No Task,,RAMA04,
Yes-No Task,2,0,2,0,7,-1,False Alarm,0.633018415421,False,-1,stimulus_RAMA04_Yes-No Task_2019_Jun_11_1418_503,-1,2019_Jun_11_1418,Yes-No Task,,RAMA04,
Yes-No Task,3,0,3,0,7,-1,Correct Rejection,0.499396494124,False,-1,stimulus_RAMA04_Yes-No Task_2019_Jun_11_1418_504,-1,2019_Jun_11_1418,Yes-No Task,,RAMA04,
Yes-No Task,4,0,4,0,7,-1,False Alarm,0.668571883813,False,-1,stimulus_RAMA04_Yes-No Task_2019_Jun_11_1418_505,-1,2019_Jun_11_1418,Yes-No Task,,RAMA04,
Yes-No Task,5,0,5,0,7,-1,Correct Rejection,0.767746764235,False,-1,stimulus_RAMA04_Yes-No Task_2019_Jun_11_1418_506,-1,2019_Jun_11_1418,Yes-No Task,,RAMA04,
Yes-No Task,6,0,6,0,7,-1,Correct Rejection,0.667115669232,False,-1,stimulus_RAMA04_Yes-No Task_2019_Jun_11_1418_507,-1,2019_Jun_11_1418,Yes-No Task,,RAMA04,
Yes-No Task,7,0,7,0,7,-1,False Alarm,0.698789868038,False,-1,stimulus_RAMA04_Yes-No Task_2019_Jun_11_1418_508,-1,2019_Jun_11_1418,Yes-No Task,,RAMA04,
Yes-No Task,8,0,8,0,7,-1,Hit,0.567489186302,True,-1,stimulus_RAMA04_Yes-No Task_2019_Jun_11_1418_509,-1,2019_Jun_11_1418,Yes-No Task,,RAMA04,
Yes-No Task,9,0,9,0,7,-1,Hit,0.600075212307,True,-1,stimulus_RAMA04_Yes-No Task_2019_Jun_11_1418_510,-1,2019_Jun_11_1418,Yes-No Task,,RAMA04,
Yes-No Task,10,0,10,0,7,-1,Hit,0.465002414305,True,-1,stimulus_RAMA04_Yes-No Task_2019_Jun_11_1418_511,-1,2019_Jun_11_1418,Yes-No Task,,RAMA04,
Yes-No Task,11,0,11,0,7,-1,False Alarm,0.536072811577,False,-1,stimulus_RAMA04_Yes-No Task_2019_Jun_11_1418_512,-1,2019_Jun_11_1418,Yes-No Task,,RAMA04,
Yes-No Task,12,0,12,0,7,-1,Hit,0.467839301564,True,-1,stimulus_RAMA04_Yes-No Task_2019_Jun_11_1418_513,-1,2019_Jun_11_1418,Yes-No Task,,RAMA04,
Yes-No Task,13,0,13,0,7,-1,Hit,0.603314847685,True,-1,stimulus_RAMA04_Yes-No Task_2019_Jun_11_1418_514,-1,2019_Jun_11_1418,Yes-No Task,,RAMA04,
Yes-No Task,14,0,14,0,7,-1,Hit,0.534664221108,True,-1,stimulus_RAMA04_Yes-No Task_2019_Jun_11_1418_515,-1,2019_Jun_11_1418,Yes-No Task,,RAMA04,
Yes-No Task,15,0,15,0,7,-1,Hit,0.500984494574,True,-1,stimulus_RAMA04_Yes-No Task_2019_Jun_11_1418_516,-1,2019_Jun_11_1418,Yes-No Task,,RAMA04,
Yes-No Task,16,0,16,0,7,-1,Hit,0.568321777973,True,-1,stimulus_RAMA04_Yes-No Task_2019_Jun_11_1418_517,-1,2019_Jun_11_1418,Yes-No Task,,RAMA04,
Yes-No Task,17,0,17,0,7,-1,False Alarm,0.702229440212,False,-1,stimulus_RAMA04_Yes-No Task_2019_Jun_11_1418_518,-1,2019_Jun_11_1418,Yes-No Task,,RAMA04,
Yes-No Task,18,0,18,0,7,-1,Miss,0.73567597568,True,-1,stimulus_RAMA04_Yes-No Task_2019_Jun_11_1418_519,-1,2019_Jun_11_1418,Yes-No Task,,RAMA04,
Yes-No Task,19,0,19,0,7,-1,Correct Rejection,0.600050990004,False,-1,stimulus_RAMA04_Yes-No Task_2019_Jun_11_1418_520,-1,2019_Jun_11_1418,Yes-No Task,,RAMA04,
Yes-No Task,20,0,20,0,7,-1,Correct Rejection,0.8315562075,False,-1,stimulus_RAMA04_Yes-No Task_2019_Jun_11_1418_521,-1,2019_Jun_11_1418,Yes-No Task,,RAMA04,
Yes-No Task,21,0,21,0,7,-1,False Alarm,0.503108670469,False,-1,stimulus_RAMA04_Yes-No Task_2019_Jun_11_1418_522,-1,2019_Jun_11_1418,Yes-No Task,,RAMA04,
Yes-No Task,22,0,22,0,7,-1,Hit,0.534963510465,True,-1,stimulus_RAMA04_Yes-No Task_2019_Jun_11_1418_523,-1,2019_Jun_11_1418,Yes-No Task,,RAMA04,
Yes-No Task,23,0,23,0,7,-1,Hit,0.602125078905,True,-1,stimulus_RAMA04_Yes-No Task_2019_Jun_11_1418_524,-1,2019_Jun_11_1418,Yes-No Task,,RAMA04,
Yes-No Task,24,0,24,0,7,-1,No Answer,-1,True,-1,stimulus_RAMA04_Yes-No Task_2019_Jun_11_1418_525,-1,2019_Jun_11_1418,Yes-No Task,,RAMA04,
Yes-No Task,25,0,25,0,7,-1,Correct Rejection,0.767797261477,False,-1,stimulus_RAMA04_Yes-No Task_2019_Jun_11_1418_526,-1,2019_Jun_11_1418,Yes-No Task,,RAMA04,
Yes-No Task,26,0,26,0,7,-1,Correct Rejection,0.535040693823,False,-1,stimulus_RAMA04_Yes-No Task_2019_Jun_11_1418_527,-1,2019_Jun_11_1418,Yes-No Task,,RAMA04,
Yes-No Task,27,0,27,0,7,-1,Correct Rejection,0.831663771067,False,-1,stimulus_RAMA04_Yes-No Task_2019_Jun_11_1418_528,-1,2019_Jun_11_1418,Yes-No Task,,RAMA04,
Yes-No Task,28,0,28,0,7,-1,Hit,0.399913702626,True,-1,stimulus_RAMA04_Yes-No Task_2019_Jun_11_1418_529,-1,2019_Jun_11_1418,Yes-No Task,,RAMA04,
Yes-No Task,29,0,29,0,7,-1,Hit,0.501392989885,True,-1,stimulus_RAMA04_Yes-No Task_2019_Jun_11_1418_530,-1,2019_Jun_11_1418,Yes-No Task,,RAMA04,
Yes-No Task,30,0,30,0,7,-1,Hit,0.537450611126,True,-1,stimulus_RAMA04_Yes-No Task_2019_Jun_11_1418_531,-1,2019_Jun_11_1418,Yes-No Task,,RAMA04,
Yes-No Task,31,0,31,0,7,-1,Correct Rejection,0.591380213387,False,-1,stimulus_RAMA04_Yes-No Task_2019_Jun_11_1418_532,-1,2019_Jun_11_1418,Yes-No Task,,RAMA04,
Yes-No Task,32,0,32,0,7,-1,Miss,0.670324513689,True,-1,stimulus_RAMA04_Yes-No Task_2019_Jun_11_1418_533,-1,2019_Jun_11_1418,Yes-No Task,,RAMA04,
Yes-No Task,33,0,33,0,7,-1,Miss,0.525490112603,True,-1,stimulus_RAMA04_Yes-No Task_2019_Jun_11_1418_534,-1,2019_Jun_11_1418,Yes-No Task,,RAMA04,
Yes-No Task,34,0,34,0,7,-1,False Alarm,0.434530710801,False,-1,stimulus_RAMA04_Yes-No Task_2019_Jun_11_1418_535,-1,2019_Jun_11_1418,Yes-No Task,,RAMA04,
Yes-No Task,35,0,35,0,7,-1,Correct Rejection,0.592516200151,False,-1,stimulus_RAMA04_Yes-No Task_2019_Jun_11_1418_536,-1,2019_Jun_11_1418,Yes-No Task,,RAMA04,
Yes-No Task,36,0,36,0,7,-1,Hit,0.632029404864,True,-1,stimulus_RAMA04_Yes-No Task_2019_Jun_11_1418_537,-1,2019_Jun_11_1418,Yes-No Task,,RAMA04,
Yes-No Task,37,0,37,0,7,-1,Correct Rejection,0.599764016923,False,-1,stimulus_RAMA04_Yes-No Task_2019_Jun_11_1418_538,-1,2019_Jun_11_1418,Yes-No Task,,RAMA04,
Yes-No Task,38,0,38,0,7,-1,Correct Rejection,0.564589895308,False,-1,stimulus_RAMA04_Yes-No Task_2019_Jun_11_1418_539,-1,2019_Jun_11_1418,Yes-No Task,,RAMA04,
Yes-No Task,39,0,39,0,7,-1,Hit,0.535322740208,True,-1,stimulus_RAMA04_Yes-No Task_2019_Jun_11_1418_540,-1,2019_Jun_11_1418,Yes-No Task,,RAMA04,
Yes-No Task,40,0,40,0,7,-1,Hit,0.59782910347,True,-1,stimulus_RAMA04_Yes-No Task_2019_Jun_11_1418_541,-1,2019_Jun_11_1418,Yes-No Task,,RAMA04,
Yes-No Task,41,0,41,0,7,-1,Hit,0.597281842958,True,-1,stimulus_RAMA04_Yes-No Task_2019_Jun_11_1418_542,-1,2019_Jun_11_1418,Yes-No Task,,RAMA04,
Yes-No Task,42,0,42,0,7,-1,Hit,0.559687540401,True,-1,stimulus_RAMA04_Yes-No Task_2019_Jun_11_1418_543,-1,2019_Jun_11_1418,Yes-No Task,,RAMA04,
Yes-No Task,43,0,43,0,7,-1,False Alarm,0.633619047236,False,-1,stimulus_RAMA04_Yes-No Task_2019_Jun_11_1418_544,-1,2019_Jun_11_1418,Yes-No Task,,RAMA04,
Yes-No Task,44,0,44,0,7,-1,Correct Rejection,0.722059325781,False,-1,stimulus_RAMA04_Yes-No Task_2019_Jun_11_1418_545,-1,2019_Jun_11_1418,Yes-No Task,,RAMA04,
Yes-No Task,45,0,45,0,7,-1,Hit,0.567350831348,True,-1,stimulus_RAMA04_Yes-No Task_2019_Jun_11_1418_546,-1,2019_Jun_11_1418,Yes-No Task,,RAMA04,
Yes-No Task,46,0,46,0,7,-1,Correct Rejection,0.532955109142,False,-1,stimulus_RAMA04_Yes-No Task_2019_Jun_11_1418_547,-1,2019_Jun_11_1418,Yes-No Task,,RAMA04,
Yes-No Task,47,0,47,0,7,-1,Miss,0.60104246391,True,-1,stimulus_RAMA04_Yes-No Task_2019_Jun_11_1418_548,-1,2019_Jun_11_1418,Yes-No Task,,RAMA04,
Yes-No Task,48,0,48,0,7,-1,False Alarm,0.601321636699,False,-1,stimulus_RAMA04_Yes-No Task_2019_Jun_11_1418_549,-1,2019_Jun_11_1418,Yes-No Task,,RAMA04,
Yes-No Task,49,0,49,0,7,-1,Miss,0.436617527157,True,-1,stimulus_RAMA04_Yes-No Task_2019_Jun_11_1418_550,-1,2019_Jun_11_1418,Yes-No Task,,RAMA04,
Yes-No Task,50,0,50,0,7,-1,Hit,0.500992294867,True,-1,stimulus_RAMA04_Yes-No Task_2019_Jun_11_1418_551,-1,2019_Jun_11_1418,Yes-No Task,,RAMA04,
Yes-No Task,51,0,51,0,7,-1,Correct Rejection,0.534626861103,False,-1,stimulus_RAMA04_Yes-No Task_2019_Jun_11_1418_552,-1,2019_Jun_11_1418,Yes-No Task,,RAMA04,
Yes-No Task,52,0,52,0,7,-1,Miss,0.501299384516,True,-1,stimulus_RAMA04_Yes-No Task_2019_Jun_11_1418_553,-1,2019_Jun_11_1418,Yes-No Task,,RAMA04,
Yes-No Task,53,0,53,0,7,-1,Hit,0.467344590928,True,-1,stimulus_RAMA04_Yes-No Task_2019_Jun_11_1418_554,-1,2019_Jun_11_1418,Yes-No Task,,RAMA04,
Yes-No Task,54,0,54,0,7,-1,Correct Rejection,0.535547720268,False,-1,stimulus_RAMA04_Yes-No Task_2019_Jun_11_1418_555,-1,2019_Jun_11_1418,Yes-No Task,,RAMA04,
Yes-No Task,55,0,55,0,7,-1,Hit,0.556543972809,True,-1,stimulus_RAMA04_Yes-No Task_2019_Jun_11_1418_556,-1,2019_Jun_11_1418,Yes-No Task,,RAMA04,
Yes-No Task,56,0,56,0,7,-1,Hit,0.603617832065,True,-1,stimulus_RAMA04_Yes-No Task_2019_Jun_11_1418_557,-1,2019_Jun_11_1418,Yes-No Task,,RAMA04,
Yes-No Task,57,0,57,0,7,-1,Correct Rejection,0.49667373905,False,-1,stimulus_RAMA04_Yes-No Task_2019_Jun_11_1418_558,-1,2019_Jun_11_1418,Yes-No Task,,RAMA04,
Yes-No Task,58,0,58,0,7,-1,Hit,0.701077031903,True,-1,stimulus_RAMA04_Yes-No Task_2019_Jun_11_1418_559,-1,2019_Jun_11_1418,Yes-No Task,,RAMA04,
Yes-No Task,59,0,59,0,7,-1,Correct Rejection,0.465197834652,False,-1,stimulus_RAMA04_Yes-No Task_2019_Jun_11_1418_560,-1,2019_Jun_11_1418,Yes-No Task,,RAMA04,
Yes-No Task,60,0,60,0,7,-1,Correct Rejection,0.472729750909,False,-1,stimulus_RAMA04_Yes-No Task_2019_Jun_11_1418_561,-1,2019_Jun_11_1418,Yes-No Task,,RAMA04,
Yes-No Task,61,0,61,0,7,-1,Correct Rejection,0.53304666141,False,-1,stimulus_RAMA04_Yes-No Task_2019_Jun_11_1418_562,-1,2019_Jun_11_1418,Yes-No Task,,RAMA04,
Yes-No Task,62,0,62,0,7,-1,Hit,0.43632111093,True,-1,stimulus_RAMA04_Yes-No Task_2019_Jun_11_1418_563,-1,2019_Jun_11_1418,Yes-No Task,,RAMA04,
Yes-No Task,63,0,63,0,7,-1,Correct Rejection,0.626103142742,False,-1,stimulus_RAMA04_Yes-No Task_2019_Jun_11_1418_564,-1,2019_Jun_11_1418,Yes-No Task,,RAMA04,
Yes-No Task,64,0,64,0,7,-1,Correct Rejection,0.564600158948,False,-1,stimulus_RAMA04_Yes-No Task_2019_Jun_11_1418_565,-1,2019_Jun_11_1418,Yes-No Task,,RAMA04,
Yes-No Task,65,0,65,0,7,-1,Miss,0.404802510049,True,-1,stimulus_RAMA04_Yes-No Task_2019_Jun_11_1418_566,-1,2019_Jun_11_1418,Yes-No Task,,RAMA04,
Yes-No Task,66,0,66,0,7,-1,Correct Rejection,0.568609982729,False,-1,stimulus_RAMA04_Yes-No Task_2019_Jun_11_1418_567,-1,2019_Jun_11_1418,Yes-No Task,,RAMA04,
Yes-No Task,67,0,67,0,7,-1,Miss,0.534422408324,True,-1,stimulus_RAMA04_Yes-No Task_2019_Jun_11_1418_568,-1,2019_Jun_11_1418,Yes-No Task,,RAMA04,
Yes-No Task,68,0,68,0,7,-1,Miss,0.571901347023,True,-1,stimulus_RAMA04_Yes-No Task_2019_Jun_11_1418_569,-1,2019_Jun_11_1418,Yes-No Task,,RAMA04,
Yes-No Task,69,0,69,0,7,-1,Miss,0.567763021681,True,-1,stimulus_RAMA04_Yes-No Task_2019_Jun_11_1418_570,-1,2019_Jun_11_1418,Yes-No Task,,RAMA04,
Yes-No Task,70,0,70,0,7,-1,Correct Rejection,0.735639847349,False,-1,stimulus_RAMA04_Yes-No Task_2019_Jun_11_1418_571,-1,2019_Jun_11_1418,Yes-No Task,,RAMA04,
Yes-No Task,71,0,71,0,7,-1,Correct Rejection,0.637580015697,False,-1,stimulus_RAMA04_Yes-No Task_2019_Jun_11_1418_572,-1,2019_Jun_11_1418,Yes-No Task,,RAMA04,
Yes-No Task,72,0,72,0,7,-1,Hit,0.702195364982,True,-1,stimulus_RAMA04_Yes-No Task_2019_Jun_11_1418_573,-1,2019_Jun_11_1418,Yes-No Task,,RAMA04,
Yes-No Task,73,0,73,0,7,-1,Correct Rejection,0.565865878947,False,-1,stimulus_RAMA04_Yes-No Task_2019_Jun_11_1418_574,-1,2019_Jun_11_1418,Yes-No Task,,RAMA04,
Yes-No Task,74,0,74,0,7,-1,Miss,0.633800099138,True,-1,stimulus_RAMA04_Yes-No Task_2019_Jun_11_1418_575,-1,2019_Jun_11_1418,Yes-No Task,,RAMA04,
Yes-No Task,75,0,75,0,7,-1,Correct Rejection,0.568777486216,False,-1,stimulus_RAMA04_Yes-No Task_2019_Jun_11_1418_576,-1,2019_Jun_11_1418,Yes-No Task,,RAMA04,
Yes-No Task,76,0,76,0,7,-1,Correct Rejection,0.566567915957,False,-1,stimulus_RAMA04_Yes-No Task_2019_Jun_11_1418_577,-1,2019_Jun_11_1418,Yes-No Task,,RAMA04,
Yes-No Task,77,0,77,0,7,-1,Miss,0.569517704658,True,-1,stimulus_RAMA04_Yes-No Task_2019_Jun_11_1418_578,-1,2019_Jun_11_1418,Yes-No Task,,RAMA04,
Yes-No Task,78,0,78,0,7,-1,Correct Rejection,0.634415100329,False,-1,stimulus_RAMA04_Yes-No Task_2019_Jun_11_1418_579,-1,2019_Jun_11_1418,Yes-No Task,,RAMA04,
Yes-No Task,79,0,79,0,7,-1,Correct Rejection,0.502024002373,False,-1,stimulus_RAMA04_Yes-No Task_2019_Jun_11_1418_580,-1,2019_Jun_11_1418,Yes-No Task,,RAMA04,
Yes-No Task,80,0,80,0,7,-1,Hit,0.532758456655,True,-1,stimulus_RAMA04_Yes-No Task_2019_Jun_11_1418_581,-1,2019_Jun_11_1418,Yes-No Task,,RAMA04,
Yes-No Task,81,0,81,0,7,-1,Correct Rejection,0.502517070621,False,-1,stimulus_RAMA04_Yes-No Task_2019_Jun_11_1418_582,-1,2019_Jun_11_1418,Yes-No Task,,RAMA04,
Yes-No Task,82,0,82,0,7,-1,Correct Rejection,0.566778527573,False,-1,stimulus_RAMA04_Yes-No Task_2019_Jun_11_1418_583,-1,2019_Jun_11_1418,Yes-No Task,,RAMA04,
Yes-No Task,83,0,83,0,7,-1,Correct Rejection,0.602812337223,False,-1,stimulus_RAMA04_Yes-No Task_2019_Jun_11_1418_584,-1,2019_Jun_11_1418,Yes-No Task,,RAMA04,
Yes-No Task,84,0,84,0,7,-1,Miss,0.492107622791,True,-1,stimulus_RAMA04_Yes-No Task_2019_Jun_11_1418_585,-1,2019_Jun_11_1418,Yes-No Task,,RAMA04,
Yes-No Task,85,0,85,0,7,-1,Correct Rejection,0.500449961051,False,-1,stimulus_RAMA04_Yes-No Task_2019_Jun_11_1418_586,-1,2019_Jun_11_1418,Yes-No Task,,RAMA04,
Yes-No Task,86,0,86,0,7,-1,Hit,0.602263433859,True,-1,stimulus_RAMA04_Yes-No Task_2019_Jun_11_1418_587,-1,2019_Jun_11_1418,Yes-No Task,,RAMA04,
Yes-No Task,87,0,87,0,7,-1,Correct Rejection,0.572232248727,False,-1,stimulus_RAMA04_Yes-No Task_2019_Jun_11_1418_588,-1,2019_Jun_11_1418,Yes-No Task,,RAMA04,
Yes-No Task,88,0,88,0,7,-1,Correct Rejection,0.567860732321,False,-1,stimulus_RAMA04_Yes-No Task_2019_Jun_11_1418_589,-1,2019_Jun_11_1418,Yes-No Task,,RAMA04,
Yes-No Task,89,0,89,0,7,-1,Correct Rejection,0.465443342458,False,-1,stimulus_RAMA04_Yes-No Task_2019_Jun_11_1418_590,-1,2019_Jun_11_1418,Yes-No Task,,RAMA04,
Yes-No Task,90,0,90,0,7,-1,Hit,0.646901921835,True,-1,stimulus_RAMA04_Yes-No Task_2019_Jun_11_1418_591,-1,2019_Jun_11_1418,Yes-No Task,,RAMA04,
Yes-No Task,91,0,91,0,7,-1,Correct Rejection,0.599649474025,False,-1,stimulus_RAMA04_Yes-No Task_2019_Jun_11_1418_592,-1,2019_Jun_11_1418,Yes-No Task,,RAMA04,
Yes-No Task,92,0,92,0,7,-1,Correct Rejection,0.570951749105,False,-1,stimulus_RAMA04_Yes-No Task_2019_Jun_11_1418_593,-1,2019_Jun_11_1418,Yes-No Task,,RAMA04,
Yes-No Task,93,0,93,0,7,-1,Correct Rejection,0.500521396287,False,-1,stimulus_RAMA04_Yes-No Task_2019_Jun_11_1418_594,-1,2019_Jun_11_1418,Yes-No Task,,RAMA04,
Yes-No Task,94,0,94,0,7,-1,Miss,0.501052234787,True,-1,stimulus_RAMA04_Yes-No Task_2019_Jun_11_1418_595,-1,2019_Jun_11_1418,Yes-No Task,,RAMA04,
Yes-No Task,95,0,95,0,7,-1,Correct Rejection,0.467939064838,False,-1,stimulus_RAMA04_Yes-No Task_2019_Jun_11_1418_596,-1,2019_Jun_11_1418,Yes-No Task,,RAMA04,
Yes-No Task,96,0,96,0,7,-1,Hit,0.501211117022,True,-1,stimulus_RAMA04_Yes-No Task_2019_Jun_11_1418_597,-1,2019_Jun_11_1418,Yes-No Task,,RAMA04,
Yes-No Task,97,0,97,0,7,-1,Hit,0.49988176208,True,-1,stimulus_RAMA04_Yes-No Task_2019_Jun_11_1418_598,-1,2019_Jun_11_1418,Yes-No Task,,RAMA04,
Yes-No Task,98,0,98,0,7,-1,Hit,0.603983220179,True,-1,stimulus_RAMA04_Yes-No Task_2019_Jun_11_1418_599,-1,2019_Jun_11_1418,Yes-No Task,,RAMA04,
Yes-No Task,99,0,99,0,7,-1,Hit,0.667812369764,True,-1,stimulus_RAMA04_Yes-No Task_2019_Jun_11_1418_600,-1,2019_Jun_11_1418,Yes-No Task,,RAMA04,
Yes-No Task,0,0,0,0,5,-1,Miss,0.567754400428,True,-1,stimulus_RAMA04_Yes-No Task_2019_Jun_11_1418_601,-1,2019_Jun_11_1418,Yes-No Task,,RAMA04,
Yes-No Task,1,0,1,0,5,-1,Correct Rejection,0.334541713353,False,-1,stimulus_RAMA04_Yes-No Task_2019_Jun_11_1418_602,-1,2019_Jun_11_1418,Yes-No Task,,RAMA04,
Yes-No Task,2,0,2,0,5,-1,Hit,0.637342308648,True,-1,stimulus_RAMA04_Yes-No Task_2019_Jun_11_1418_603,-1,2019_Jun_11_1418,Yes-No Task,,RAMA04,
Yes-No Task,3,0,3,0,5,-1,Correct Rejection,0.5345443408,False,-1,stimulus_RAMA04_Yes-No Task_2019_Jun_11_1418_604,-1,2019_Jun_11_1418,Yes-No Task,,RAMA04,
Yes-No Task,4,0,4,0,5,-1,Correct Rejection,0.501592515968,False,-1,stimulus_RAMA04_Yes-No Task_2019_Jun_11_1418_605,-1,2019_Jun_11_1418,Yes-No Task,,RAMA04,
Yes-No Task,5,0,5,0,5,-1,Miss,0.534921634477,True,-1,stimulus_RAMA04_Yes-No Task_2019_Jun_11_1418_606,-1,2019_Jun_11_1418,Yes-No Task,,RAMA04,
Yes-No Task,6,0,6,0,5,-1,Correct Rejection,0.568623119965,False,-1,stimulus_RAMA04_Yes-No Task_2019_Jun_11_1418_607,-1,2019_Jun_11_1418,Yes-No Task,,RAMA04,
Yes-No Task,7,0,7,0,5,-1,Hit,0.634935675189,True,-1,stimulus_RAMA04_Yes-No Task_2019_Jun_11_1418_608,-1,2019_Jun_11_1418,Yes-No Task,,RAMA04,
Yes-No Task,8,0,8,0,5,-1,Hit,0.460605032742,True,-1,stimulus_RAMA04_Yes-No Task_2019_Jun_11_1418_609,-1,2019_Jun_11_1418,Yes-No Task,,RAMA04,
Yes-No Task,9,0,9,0,5,-1,Correct Rejection,0.442871406209,False,-1,stimulus_RAMA04_Yes-No Task_2019_Jun_11_1418_610,-1,2019_Jun_11_1418,Yes-No Task,,RAMA04,
Yes-No Task,10,0,10,0,5,-1,Correct Rejection,0.601074897218,False,-1,stimulus_RAMA04_Yes-No Task_2019_Jun_11_1418_611,-1,2019_Jun_11_1418,Yes-No Task,,RAMA04,
Yes-No Task,11,0,11,0,5,-1,Miss,0.636046618223,True,-1,stimulus_RAMA04_Yes-No Task_2019_Jun_11_1418_612,-1,2019_Jun_11_1418,Yes-No Task,,RAMA04,
Yes-No Task,12,0,12,0,5,-1,Miss,0.567042099312,True,-1,stimulus_RAMA04_Yes-No Task_2019_Jun_11_1418_613,-1,2019_Jun_11_1418,Yes-No Task,,RAMA04,
Yes-No Task,13,0,13,0,5,-1,Correct Rejection,0.532430838794,False,-1,stimulus_RAMA04_Yes-No Task_2019_Jun_11_1418_614,-1,2019_Jun_11_1418,Yes-No Task,,RAMA04,
Yes-No Task,14,0,14,0,5,-1,Correct Rejection,0.56903818436,False,-1,stimulus_RAMA04_Yes-No Task_2019_Jun_11_1418_615,-1,2019_Jun_11_1418,Yes-No Task,,RAMA04,
Yes-No Task,15,0,15,0,5,-1,No Answer,-1,True,-1,stimulus_RAMA04_Yes-No Task_2019_Jun_11_1418_616,-1,2019_Jun_11_1418,Yes-No Task,,RAMA04,
Yes-No Task,16,0,16,0,5,-1,Correct Rejection,0.467154096812,False,-1,stimulus_RAMA04_Yes-No Task_2019_Jun_11_1418_617,-1,2019_Jun_11_1418,Yes-No Task,,RAMA04,
Yes-No Task,17,0,17,0,5,-1,Miss,0.466905304696,True,-1,stimulus_RAMA04_Yes-No Task_2019_Jun_11_1418_618,-1,2019_Jun_11_1418,Yes-No Task,,RAMA04,
Yes-No Task,18,0,18,0,5,-1,Miss,0.536977659445,True,-1,stimulus_RAMA04_Yes-No Task_2019_Jun_11_1418_619,-1,2019_Jun_11_1418,Yes-No Task,,RAMA04,
Yes-No Task,19,0,19,0,5,-1,Correct Rejection,0.431660158094,False,-1,stimulus_RAMA04_Yes-No Task_2019_Jun_11_1418_620,-1,2019_Jun_11_1418,Yes-No Task,,RAMA04,
Yes-No Task,20,0,20,0,5,-1,Miss,0.560458960012,True,-1,stimulus_RAMA04_Yes-No Task_2019_Jun_11_1418_621,-1,2019_Jun_11_1418,Yes-No Task,,RAMA04,
Yes-No Task,21,0,21,0,5,-1,Miss,0.600291981827,True,-1,stimulus_RAMA04_Yes-No Task_2019_Jun_11_1418_622,-1,2019_Jun_11_1418,Yes-No Task,,RAMA04,
Yes-No Task,22,0,22,0,5,-1,Hit,0.335091026966,True,-1,stimulus_RAMA04_Yes-No Task_2019_Jun_11_1418_623,-1,2019_Jun_11_1418,Yes-No Task,,RAMA04,
Yes-No Task,23,0,23,0,5,-1,Hit,0.400590286124,True,-1,stimulus_RAMA04_Yes-No Task_2019_Jun_11_1418_624,-1,2019_Jun_11_1418,Yes-No Task,,RAMA04,
Yes-No Task,24,0,24,0,5,-1,Hit,0.500262340065,True,-1,stimulus_RAMA04_Yes-No Task_2019_Jun_11_1418_625,-1,2019_Jun_11_1418,Yes-No Task,,RAMA04,
Yes-No Task,25,0,25,0,5,-1,Correct Rejection,0.469220385421,False,-1,stimulus_RAMA04_Yes-No Task_2019_Jun_11_1418_626,-1,2019_Jun_11_1418,Yes-No Task,,RAMA04,
Yes-No Task,26,0,26,0,5,-1,Correct Rejection,0.534785743337,False,-1,stimulus_RAMA04_Yes-No Task_2019_Jun_11_1418_627,-1,2019_Jun_11_1418,Yes-No Task,,RAMA04,
Yes-No Task,27,0,27,0,5,-1,Miss,0.540886898991,True,-1,stimulus_RAMA04_Yes-No Task_2019_Jun_11_1418_628,-1,2019_Jun_11_1418,Yes-No Task,,RAMA04,
Yes-No Task,28,0,28,0,5,-1,Miss,0.568187118042,True,-1,stimulus_RAMA04_Yes-No Task_2019_Jun_11_1418_629,-1,2019_Jun_11_1418,Yes-No Task,,RAMA04,
Yes-No Task,29,0,29,0,5,-1,Hit,0.498159102164,True,-1,stimulus_RAMA04_Yes-No Task_2019_Jun_11_1418_630,-1,2019_Jun_11_1418,Yes-No Task,,RAMA04,
Yes-No Task,30,0,30,0,5,-1,Correct Rejection,0.538177691866,False,-1,stimulus_RAMA04_Yes-No Task_2019_Jun_11_1418_631,-1,2019_Jun_11_1418,Yes-No Task,,RAMA04,
Yes-No Task,31,0,31,0,5,-1,Miss,0.49911116343,True,-1,stimulus_RAMA04_Yes-No Task_2019_Jun_11_1418_632,-1,2019_Jun_11_1418,Yes-No Task,,RAMA04,
Yes-No Task,32,0,32,0,5,-1,Hit,0.293295584619,True,-1,stimulus_RAMA04_Yes-No Task_2019_Jun_11_1418_633,-1,2019_Jun_11_1418,Yes-No Task,,RAMA04,
Yes-No Task,33,0,33,0,5,-1,Hit,0.368634040933,True,-1,stimulus_RAMA04_Yes-No Task_2019_Jun_11_1418_634,-1,2019_Jun_11_1418,Yes-No Task,,RAMA04,
Yes-No Task,34,0,34,0,5,-1,Hit,0.403100788128,True,-1,stimulus_RAMA04_Yes-No Task_2019_Jun_11_1418_635,-1,2019_Jun_11_1418,Yes-No Task,,RAMA04,
Yes-No Task,35,0,35,0,5,-1,Correct Rejection,0.50133592356,False,-1,stimulus_RAMA04_Yes-No Task_2019_Jun_11_1418_636,-1,2019_Jun_11_1418,Yes-No Task,,RAMA04,
Yes-No Task,36,0,36,0,5,-1,Hit,0.667657182552,True,-1,stimulus_RAMA04_Yes-No Task_2019_Jun_11_1418_637,-1,2019_Jun_11_1418,Yes-No Task,,RAMA04,
Yes-No Task,37,0,37,0,5,-1,Hit,0.637164951768,True,-1,stimulus_RAMA04_Yes-No Task_2019_Jun_11_1418_638,-1,2019_Jun_11_1418,Yes-No Task,,RAMA04,
Yes-No Task,38,0,38,0,5,-1,Correct Rejection,0.536016976926,False,-1,stimulus_RAMA04_Yes-No Task_2019_Jun_11_1418_639,-1,2019_Jun_11_1418,Yes-No Task,,RAMA04,
Yes-No Task,39,0,39,0,5,-1,Miss,0.599587891717,True,-1,stimulus_RAMA04_Yes-No Task_2019_Jun_11_1418_640,-1,2019_Jun_11_1418,Yes-No Task,,RAMA04,
Yes-No Task,40,0,40,0,5,-1,Hit,0.66917703161,True,-1,stimulus_RAMA04_Yes-No Task_2019_Jun_11_1418_641,-1,2019_Jun_11_1418,Yes-No Task,,RAMA04,
Yes-No Task,41,0,41,0,5,-1,Miss,0.568952790461,True,-1,stimulus_RAMA04_Yes-No Task_2019_Jun_11_1418_642,-1,2019_Jun_11_1418,Yes-No Task,,RAMA04,
Yes-No Task,42,0,42,0,5,-1,Hit,0.532872588839,True,-1,stimulus_RAMA04_Yes-No Task_2019_Jun_11_1418_643,-1,2019_Jun_11_1418,Yes-No Task,,RAMA04,
Yes-No Task,43,0,43,0,5,-1,Correct Rejection,0.565149882808,False,-1,stimulus_RAMA04_Yes-No Task_2019_Jun_11_1418_644,-1,2019_Jun_11_1418,Yes-No Task,,RAMA04,
Yes-No Task,44,0,44,0,5,-1,Miss,0.602890340611,True,-1,stimulus_RAMA04_Yes-No Task_2019_Jun_11_1418_645,-1,2019_Jun_11_1418,Yes-No Task,,RAMA04,
Yes-No Task,45,0,45,0,5,-1,Hit,0.29753244156,True,-1,stimulus_RAMA04_Yes-No Task_2019_Jun_11_1418_646,-1,2019_Jun_11_1418,Yes-No Task,,RAMA04,
Yes-No Task,46,0,46,0,5,-1,Correct Rejection,0.669089995325,False,-1,stimulus_RAMA04_Yes-No Task_2019_Jun_11_1418_647,-1,2019_Jun_11_1418,Yes-No Task,,RAMA04,
Yes-No Task,47,0,47,0,5,-1,Correct Rejection,0.640720298048,False,-1,stimulus_RAMA04_Yes-No Task_2019_Jun_11_1418_648,-1,2019_Jun_11_1418,Yes-No Task,,RAMA04,
Yes-No Task,48,0,48,0,5,-1,Hit,0.600147468969,True,-1,stimulus_RAMA04_Yes-No Task_2019_Jun_11_1418_649,-1,2019_Jun_11_1418,Yes-No Task,,RAMA04,
Yes-No Task,49,0,49,0,5,-1,Correct Rejection,0.565411401913,False,-1,stimulus_RAMA04_Yes-No Task_2019_Jun_11_1418_650,-1,2019_Jun_11_1418,Yes-No Task,,RAMA04,
Yes-No Task,50,0,50,0,5,-1,Hit,0.505603982136,True,-1,stimulus_RAMA04_Yes-No Task_2019_Jun_11_1418_651,-1,2019_Jun_11_1418,Yes-No Task,,RAMA04,
Yes-No Task,51,0,51,0,5,-1,Correct Rejection,0.566616360564,False,-1,stimulus_RAMA04_Yes-No Task_2019_Jun_11_1418_652,-1,2019_Jun_11_1418,Yes-No Task,,RAMA04,
Yes-No Task,52,0,52,0,5,-1,Correct Rejection,0.565710281022,False,-1,stimulus_RAMA04_Yes-No Task_2019_Jun_11_1418_653,-1,2019_Jun_11_1418,Yes-No Task,,RAMA04,
Yes-No Task,53,0,53,0,5,-1,Miss,0.601238295436,True,-1,stimulus_RAMA04_Yes-No Task_2019_Jun_11_1418_654,-1,2019_Jun_11_1418,Yes-No Task,,RAMA04,
Yes-No Task,54,0,54,0,5,-1,Correct Rejection,0.535797744058,False,-1,stimulus_RAMA04_Yes-No Task_2019_Jun_11_1418_655,-1,2019_Jun_11_1418,Yes-No Task,,RAMA04,
Yes-No Task,55,0,55,0,5,-1,Hit,0.468548317906,True,-1,stimulus_RAMA04_Yes-No Task_2019_Jun_11_1418_656,-1,2019_Jun_11_1418,Yes-No Task,,RAMA04,
Yes-No Task,56,0,56,0,5,-1,Miss,0.534268863034,True,-1,stimulus_RAMA04_Yes-No Task_2019_Jun_11_1418_657,-1,2019_Jun_11_1418,Yes-No Task,,RAMA04,
Yes-No Task,57,0,57,0,5,-1,Miss,0.567482617218,True,-1,stimulus_RAMA04_Yes-No Task_2019_Jun_11_1418_658,-1,2019_Jun_11_1418,Yes-No Task,,RAMA04,
Yes-No Task,58,0,58,0,5,-1,Hit,0.559300803579,True,-1,stimulus_RAMA04_Yes-No Task_2019_Jun_11_1418_659,-1,2019_Jun_11_1418,Yes-No Task,,RAMA04,
