Task,trials.thisRepN,trials.thisTrialN,trials.thisN,trials.thisIndex,time_response_second,response_2IFCnew,response_key2Interval_2IFCnew,signal_intensity,constant Value,response,time_response,signal_on_stimuluspos1,signal_on_stimuluspos2,stimulus_name_pos1,stimulus_name_pos2,random_intensity,date,expName,session,participant,
2IFCnew,0,0,0,0,-1,1,null,4.4,-1,Hit,0.567442700034,True,False,stimulusRORE28_2IFCnew_2019_Jun_12_1714_1,stimulusRORE28_2IFCnew_2019_Jun_12_1714_2,True,2019_Jun_12_1714,2IFCnew,3,RORE28,
2IFCnew,1,0,1,0,-1,1,null,6.6,-1,Hit,0.533952899976,True,False,stimulusRORE28_2IFCnew_2019_Jun_12_1714_3,stimulusRORE28_2IFCnew_2019_Jun_12_1714_4,True,2019_Jun_12_1714,2IFCnew,3,RORE28,
2IFCnew,2,0,2,0,-1,3,null,1.4,-1,Correct Rejection,0.535502600018,False,True,stimulusRORE28_2IFCnew_2019_Jun_12_1714_5,stimulusRORE28_2IFCnew_2019_Jun_12_1714_6,True,2019_Jun_12_1714,2IFCnew,3,RORE28,
2IFCnew,3,0,3,0,0.467620099895,5,Yes,4.4,-1,False Alarm,0.601972300094,False,True,stimulusRORE28_2IFCnew_2019_Jun_12_1714_7,stimulusRORE28_2IFCnew_2019_Jun_12_1714_8,True,2019_Jun_12_1714,2IFCnew,3,RORE28,
2IFCnew,4,0,4,0,-1,2,Yes,5,-1,False Alarm,0.500835699961,False,True,stimulusRORE28_2IFCnew_2019_Jun_12_1714_9,stimulusRORE28_2IFCnew_2019_Jun_12_1714_10,True,2019_Jun_12_1714,2IFCnew,3,RORE28,
2IFCnew,5,0,5,0,-1,1,Yes,4.4,-1,Hit,0.46770170005,True,False,stimulusRORE28_2IFCnew_2019_Jun_12_1714_11,stimulusRORE28_2IFCnew_2019_Jun_12_1714_12,True,2019_Jun_12_1714,2IFCnew,3,RORE28,
2IFCnew,6,0,6,0,-1,1,Yes,3.7,-1,Hit,0.567124299938,True,False,stimulusRORE28_2IFCnew_2019_Jun_12_1714_13,stimulusRORE28_2IFCnew_2019_Jun_12_1714_14,True,2019_Jun_12_1714,2IFCnew,3,RORE28,
2IFCnew,7,0,7,0,0.630747799994,5,Yes,6.6,-1,False Alarm,0.803171700099,False,True,stimulusRORE28_2IFCnew_2019_Jun_12_1714_15,stimulusRORE28_2IFCnew_2019_Jun_12_1714_16,True,2019_Jun_12_1714,2IFCnew,3,RORE28,
2IFCnew,8,0,8,0,-1,3,Yes,1.4,-1,Correct Rejection,0.597559700022,False,True,stimulusRORE28_2IFCnew_2019_Jun_12_1714_17,stimulusRORE28_2IFCnew_2019_Jun_12_1714_18,True,2019_Jun_12_1714,2IFCnew,3,RORE28,
2IFCnew,9,0,9,0,0.43394519994,5,Yes,3.7,-1,False Alarm,0.536272899946,False,True,stimulusRORE28_2IFCnew_2019_Jun_12_1714_19,stimulusRORE28_2IFCnew_2019_Jun_12_1714_20,True,2019_Jun_12_1714,2IFCnew,3,RORE28,
2IFCnew,10,0,10,0,-1,1,Yes,4.4,-1,Hit,0.634918699972,True,False,stimulusRORE28_2IFCnew_2019_Jun_12_1714_21,stimulusRORE28_2IFCnew_2019_Jun_12_1714_22,True,2019_Jun_12_1714,2IFCnew,3,RORE28,
2IFCnew,11,0,11,0,-1,1,Yes,1.4,-1,Hit,0.533888799837,True,False,stimulusRORE28_2IFCnew_2019_Jun_12_1714_23,stimulusRORE28_2IFCnew_2019_Jun_12_1714_24,True,2019_Jun_12_1714,2IFCnew,3,RORE28,
2IFCnew,12,0,12,0,-1,2,Yes,4.4,-1,False Alarm,0.767340800026,False,True,stimulusRORE28_2IFCnew_2019_Jun_12_1714_25,stimulusRORE28_2IFCnew_2019_Jun_12_1714_26,True,2019_Jun_12_1714,2IFCnew,3,RORE28,
2IFCnew,13,0,13,0,-1,1,Yes,3,-1,Hit,0.568449500017,True,False,stimulusRORE28_2IFCnew_2019_Jun_12_1714_27,stimulusRORE28_2IFCnew_2019_Jun_12_1714_28,True,2019_Jun_12_1714,2IFCnew,3,RORE28,
2IFCnew,14,0,14,0,-1,2,Yes,1.4,-1,False Alarm,0.601692500059,False,True,stimulusRORE28_2IFCnew_2019_Jun_12_1714_29,stimulusRORE28_2IFCnew_2019_Jun_12_1714_30,True,2019_Jun_12_1714,2IFCnew,3,RORE28,
2IFCnew,15,0,15,0,-1,2,Yes,1.4,-1,False Alarm,0.533985699993,False,True,stimulusRORE28_2IFCnew_2019_Jun_12_1714_31,stimulusRORE28_2IFCnew_2019_Jun_12_1714_32,True,2019_Jun_12_1714,2IFCnew,3,RORE28,
2IFCnew,16,0,16,0,-1,1,Yes,3.7,-1,Hit,0.465543099912,True,False,stimulusRORE28_2IFCnew_2019_Jun_12_1714_33,stimulusRORE28_2IFCnew_2019_Jun_12_1714_34,True,2019_Jun_12_1714,2IFCnew,3,RORE28,
2IFCnew,17,0,17,0,-1,2,Yes,3.7,-1,False Alarm,0.634777599946,False,True,stimulusRORE28_2IFCnew_2019_Jun_12_1714_35,stimulusRORE28_2IFCnew_2019_Jun_12_1714_36,True,2019_Jun_12_1714,2IFCnew,3,RORE28,
2IFCnew,18,0,18,0,-1,1,Yes,1.4,-1,Hit,0.56719929981,True,False,stimulusRORE28_2IFCnew_2019_Jun_12_1714_37,stimulusRORE28_2IFCnew_2019_Jun_12_1714_38,True,2019_Jun_12_1714,2IFCnew,3,RORE28,
2IFCnew,19,0,19,0,0.39568950003,5,Yes,5.7,-1,False Alarm,0.601477199933,False,True,stimulusRORE28_2IFCnew_2019_Jun_12_1714_39,stimulusRORE28_2IFCnew_2019_Jun_12_1714_40,True,2019_Jun_12_1714,2IFCnew,3,RORE28,
2IFCnew,20,0,20,0,0.667239699978,2,Yes,3.7,-1,Correct Rejection,0.566247200128,False,True,stimulusRORE28_2IFCnew_2019_Jun_12_1714_41,stimulusRORE28_2IFCnew_2019_Jun_12_1714_42,True,2019_Jun_12_1714,2IFCnew,3,RORE28,
2IFCnew,21,0,21,0,-1,4,Yes,4.4,-1,Miss,0.634055200033,True,False,stimulusRORE28_2IFCnew_2019_Jun_12_1714_43,stimulusRORE28_2IFCnew_2019_Jun_12_1714_44,True,2019_Jun_12_1714,2IFCnew,3,RORE28,
2IFCnew,22,0,22,0,-1,4,Yes,3.7,-1,Miss,0.734077799832,True,False,stimulusRORE28_2IFCnew_2019_Jun_12_1714_45,stimulusRORE28_2IFCnew_2019_Jun_12_1714_46,True,2019_Jun_12_1714,2IFCnew,3,RORE28,
2IFCnew,23,0,23,0,0.599678799976,5,Yes,5.7,-1,False Alarm,0.500443700003,False,True,stimulusRORE28_2IFCnew_2019_Jun_12_1714_47,stimulusRORE28_2IFCnew_2019_Jun_12_1714_48,True,2019_Jun_12_1714,2IFCnew,3,RORE28,
2IFCnew,24,0,24,0,0.468053400051,2,Yes,4.4,-1,Correct Rejection,0.633650700096,False,True,stimulusRORE28_2IFCnew_2019_Jun_12_1714_49,stimulusRORE28_2IFCnew_2019_Jun_12_1714_50,True,2019_Jun_12_1714,2IFCnew,3,RORE28,
2IFCnew,25,0,25,0,0.500709900167,2,Yes,1.4,-1,Correct Rejection,0.564726700075,False,True,stimulusRORE28_2IFCnew_2019_Jun_12_1714_51,stimulusRORE28_2IFCnew_2019_Jun_12_1714_52,True,2019_Jun_12_1714,2IFCnew,3,RORE28,
2IFCnew,26,0,26,0,0.500823500101,2,Yes,5,-1,Correct Rejection,0.633915899787,False,True,stimulusRORE28_2IFCnew_2019_Jun_12_1714_53,stimulusRORE28_2IFCnew_2019_Jun_12_1714_54,True,2019_Jun_12_1714,2IFCnew,3,RORE28,
2IFCnew,27,0,27,0,0.801183599979,6,No,3,-1,Miss,0.567351900041,True,False,stimulusRORE28_2IFCnew_2019_Jun_12_1714_55,stimulusRORE28_2IFCnew_2019_Jun_12_1714_56,True,2019_Jun_12_1714,2IFCnew,3,RORE28,
2IFCnew,28,0,28,0,0.76730229985,6,No,3.7,-1,Miss,0.733178500086,True,False,stimulusRORE28_2IFCnew_2019_Jun_12_1714_57,stimulusRORE28_2IFCnew_2019_Jun_12_1714_58,True,2019_Jun_12_1714,2IFCnew,3,RORE28,
2IFCnew,29,0,29,0,-1,3,No,2.2,-1,Correct Rejection,0.60130349989,False,True,stimulusRORE28_2IFCnew_2019_Jun_12_1714_59,stimulusRORE28_2IFCnew_2019_Jun_12_1714_60,True,2019_Jun_12_1714,2IFCnew,3,RORE28,
2IFCnew,30,0,30,0,0.20208710013,6,No,3.7,-1,Miss,0.533972700126,True,False,stimulusRORE28_2IFCnew_2019_Jun_12_1714_61,stimulusRORE28_2IFCnew_2019_Jun_12_1714_62,True,2019_Jun_12_1714,2IFCnew,3,RORE28,
2IFCnew,31,0,31,0,-1,1,No,5.7,-1,Hit,0.566774800187,True,False,stimulusRORE28_2IFCnew_2019_Jun_12_1714_63,stimulusRORE28_2IFCnew_2019_Jun_12_1714_64,True,2019_Jun_12_1714,2IFCnew,3,RORE28,
2IFCnew,32,0,32,0,-1,4,No,1.4,-1,Miss,0.700654000044,True,False,stimulusRORE28_2IFCnew_2019_Jun_12_1714_65,stimulusRORE28_2IFCnew_2019_Jun_12_1714_66,True,2019_Jun_12_1714,2IFCnew,3,RORE28,
2IFCnew,33,0,33,0,-1,1,No,5,-1,Hit,0.567376899999,True,False,stimulusRORE28_2IFCnew_2019_Jun_12_1714_67,stimulusRORE28_2IFCnew_2019_Jun_12_1714_68,True,2019_Jun_12_1714,2IFCnew,3,RORE28,
2IFCnew,34,0,34,0,-1,2,No,5.7,-1,False Alarm,0.601301599992,False,True,stimulusRORE28_2IFCnew_2019_Jun_12_1714_69,stimulusRORE28_2IFCnew_2019_Jun_12_1714_70,True,2019_Jun_12_1714,2IFCnew,3,RORE28,
2IFCnew,35,0,35,0,-1,4,No,2.2,-1,Miss,0.500778299989,True,False,stimulusRORE28_2IFCnew_2019_Jun_12_1714_71,stimulusRORE28_2IFCnew_2019_Jun_12_1714_72,True,2019_Jun_12_1714,2IFCnew,3,RORE28,
2IFCnew,36,0,36,0,-1,1,No,2.2,-1,Hit,0.60159779992,True,False,stimulusRORE28_2IFCnew_2019_Jun_12_1714_73,stimulusRORE28_2IFCnew_2019_Jun_12_1714_74,True,2019_Jun_12_1714,2IFCnew,3,RORE28,
2IFCnew,37,0,37,0,-1,1,No,5,-1,Hit,0.499610000057,True,False,stimulusRORE28_2IFCnew_2019_Jun_12_1714_75,stimulusRORE28_2IFCnew_2019_Jun_12_1714_76,True,2019_Jun_12_1714,2IFCnew,3,RORE28,
2IFCnew,38,0,38,0,-1,4,No,2.2,-1,Miss,0.667374599958,True,False,stimulusRORE28_2IFCnew_2019_Jun_12_1714_77,stimulusRORE28_2IFCnew_2019_Jun_12_1714_78,True,2019_Jun_12_1714,2IFCnew,3,RORE28,
2IFCnew,39,0,39,0,0.800809999928,6,No,2.2,-1,Miss,0.667249500053,True,False,stimulusRORE28_2IFCnew_2019_Jun_12_1714_79,stimulusRORE28_2IFCnew_2019_Jun_12_1714_80,True,2019_Jun_12_1714,2IFCnew,3,RORE28,
2IFCnew,40,0,40,0,-1,3,No,5.7,-1,Correct Rejection,0.700625299942,False,True,stimulusRORE28_2IFCnew_2019_Jun_12_1714_81,stimulusRORE28_2IFCnew_2019_Jun_12_1714_82,True,2019_Jun_12_1714,2IFCnew,3,RORE28,
2IFCnew,41,0,41,0,0.533604600001,4,Yes,1.4,-1,Miss,0.633993200026,True,False,stimulusRORE28_2IFCnew_2019_Jun_12_1714_83,stimulusRORE28_2IFCnew_2019_Jun_12_1714_84,True,2019_Jun_12_1714,2IFCnew,3,RORE28,
2IFCnew,42,0,42,0,-1,1,Yes,5,-1,Hit,0.53341400018,True,False,stimulusRORE28_2IFCnew_2019_Jun_12_1714_85,stimulusRORE28_2IFCnew_2019_Jun_12_1714_86,True,2019_Jun_12_1714,2IFCnew,3,RORE28,
2IFCnew,43,0,43,0,-1,3,Yes,5.7,-1,Correct Rejection,0.867444999982,False,True,stimulusRORE28_2IFCnew_2019_Jun_12_1714_87,stimulusRORE28_2IFCnew_2019_Jun_12_1714_88,True,2019_Jun_12_1714,2IFCnew,3,RORE28,
2IFCnew,44,0,44,0,-1,4,Yes,2.2,-1,Miss,0.633502299897,True,False,stimulusRORE28_2IFCnew_2019_Jun_12_1714_89,stimulusRORE28_2IFCnew_2019_Jun_12_1714_90,True,2019_Jun_12_1714,2IFCnew,3,RORE28,
2IFCnew,45,0,45,0,-1,0,Yes,5.7,-1,No Answer,-1,False,True,stimulusRORE28_2IFCnew_2019_Jun_12_1714_91,stimulusRORE28_2IFCnew_2019_Jun_12_1714_92,True,2019_Jun_12_1714,2IFCnew,3,RORE28,
2IFCnew,46,0,46,0,-1,4,Yes,4.4,-1,Miss,0.700079199858,True,False,stimulusRORE28_2IFCnew_2019_Jun_12_1714_93,stimulusRORE28_2IFCnew_2019_Jun_12_1714_94,True,2019_Jun_12_1714,2IFCnew,3,RORE28,
2IFCnew,47,0,47,0,0.702455100138,2,Yes,3.7,-1,Correct Rejection,0.767120099859,False,True,stimulusRORE28_2IFCnew_2019_Jun_12_1714_95,stimulusRORE28_2IFCnew_2019_Jun_12_1714_96,True,2019_Jun_12_1714,2IFCnew,3,RORE28,
2IFCnew,48,0,48,0,0.434422800085,1,No,5,-1,Hit,0.598379400093,True,False,stimulusRORE28_2IFCnew_2019_Jun_12_1714_97,stimulusRORE28_2IFCnew_2019_Jun_12_1714_98,True,2019_Jun_12_1714,2IFCnew,3,RORE28,
2IFCnew,49,0,49,0,0.433955700137,1,No,4.4,-1,Hit,0.566893500043,True,False,stimulusRORE28_2IFCnew_2019_Jun_12_1714_99,stimulusRORE28_2IFCnew_2019_Jun_12_1714_100,True,2019_Jun_12_1714,2IFCnew,3,RORE28,
2IFCnew,50,0,50,0,0.500486999983,2,Yes,4.4,-1,Correct Rejection,0.567130699987,False,True,stimulusRORE28_2IFCnew_2019_Jun_12_1714_101,stimulusRORE28_2IFCnew_2019_Jun_12_1714_102,True,2019_Jun_12_1714,2IFCnew,3,RORE28,
2IFCnew,51,0,51,0,0.667495000176,6,No,1.4,-1,Miss,0.700509799877,True,False,stimulusRORE28_2IFCnew_2019_Jun_12_1714_103,stimulusRORE28_2IFCnew_2019_Jun_12_1714_104,True,2019_Jun_12_1714,2IFCnew,3,RORE28,
2IFCnew,52,0,52,0,0.76669570012,1,No,4.4,-1,Hit,0.834001499927,True,False,stimulusRORE28_2IFCnew_2019_Jun_12_1714_105,stimulusRORE28_2IFCnew_2019_Jun_12_1714_106,True,2019_Jun_12_1714,2IFCnew,3,RORE28,
2IFCnew,53,0,53,0,0.500403299928,5,Yes,5,-1,False Alarm,0.632515899837,False,True,stimulusRORE28_2IFCnew_2019_Jun_12_1714_107,stimulusRORE28_2IFCnew_2019_Jun_12_1714_108,True,2019_Jun_12_1714,2IFCnew,3,RORE28,
2IFCnew,54,0,54,0,0.533377100015,1,No,6.6,-1,Hit,0.567891600076,True,False,stimulusRORE28_2IFCnew_2019_Jun_12_1714_109,stimulusRORE28_2IFCnew_2019_Jun_12_1714_110,True,2019_Jun_12_1714,2IFCnew,3,RORE28,
2IFCnew,55,0,55,0,0.600972400047,1,No,4.4,-1,Hit,0.601948200027,True,False,stimulusRORE28_2IFCnew_2019_Jun_12_1714_111,stimulusRORE28_2IFCnew_2019_Jun_12_1714_112,True,2019_Jun_12_1714,2IFCnew,3,RORE28,
2IFCnew,56,0,56,0,0.500421599951,2,Yes,4.4,-1,Correct Rejection,0.634498700034,False,True,stimulusRORE28_2IFCnew_2019_Jun_12_1714_113,stimulusRORE28_2IFCnew_2019_Jun_12_1714_114,True,2019_Jun_12_1714,2IFCnew,3,RORE28,
2IFCnew,57,0,57,0,0.534370899899,1,No,5.7,-1,Hit,0.601030600024,True,False,stimulusRORE28_2IFCnew_2019_Jun_12_1714_115,stimulusRORE28_2IFCnew_2019_Jun_12_1714_116,True,2019_Jun_12_1714,2IFCnew,3,RORE28,
2IFCnew,58,0,58,0,-1,3,No,2.2,-1,Correct Rejection,0.70090899989,False,True,stimulusRORE28_2IFCnew_2019_Jun_12_1714_117,stimulusRORE28_2IFCnew_2019_Jun_12_1714_118,True,2019_Jun_12_1714,2IFCnew,3,RORE28,
2IFCnew,59,0,59,0,0.533174299868,1,No,5.7,-1,Hit,0.567251699977,True,False,stimulusRORE28_2IFCnew_2019_Jun_12_1714_119,stimulusRORE28_2IFCnew_2019_Jun_12_1714_120,True,2019_Jun_12_1714,2IFCnew,3,RORE28,
2IFCnew,60,0,60,0,0.60058930004,6,No,3.7,-1,Miss,0.568142500008,True,False,stimulusRORE28_2IFCnew_2019_Jun_12_1714_121,stimulusRORE28_2IFCnew_2019_Jun_12_1714_122,True,2019_Jun_12_1714,2IFCnew,3,RORE28,
2IFCnew,61,0,61,0,0.701084899949,8,No,2.2,-1,Correct Rejection,0.602300500032,False,True,stimulusRORE28_2IFCnew_2019_Jun_12_1714_123,stimulusRORE28_2IFCnew_2019_Jun_12_1714_124,True,2019_Jun_12_1714,2IFCnew,3,RORE28,
2IFCnew,62,0,62,0,-1,1,No,1.4,-1,Hit,0.567536799936,True,False,stimulusRORE28_2IFCnew_2019_Jun_12_1714_125,stimulusRORE28_2IFCnew_2019_Jun_12_1714_126,True,2019_Jun_12_1714,2IFCnew,3,RORE28,
2IFCnew,63,0,63,0,0.533540999983,1,No,5.7,-1,Hit,0.56767540006,True,False,stimulusRORE28_2IFCnew_2019_Jun_12_1714_127,stimulusRORE28_2IFCnew_2019_Jun_12_1714_128,True,2019_Jun_12_1714,2IFCnew,3,RORE28,
2IFCnew,64,0,64,0,0.567612200044,1,No,6.6,-1,Hit,0.501131199999,True,False,stimulusRORE28_2IFCnew_2019_Jun_12_1714_129,stimulusRORE28_2IFCnew_2019_Jun_12_1714_130,True,2019_Jun_12_1714,2IFCnew,3,RORE28,
2IFCnew,65,0,65,0,0.533790300135,8,No,3.7,-1,Correct Rejection,0.735047199996,False,True,stimulusRORE28_2IFCnew_2019_Jun_12_1714_131,stimulusRORE28_2IFCnew_2019_Jun_12_1714_132,True,2019_Jun_12_1714,2IFCnew,3,RORE28,
2IFCnew,66,0,66,0,0.599777600029,5,Yes,3.7,-1,False Alarm,0.733714400092,False,True,stimulusRORE28_2IFCnew_2019_Jun_12_1714_133,stimulusRORE28_2IFCnew_2019_Jun_12_1714_134,True,2019_Jun_12_1714,2IFCnew,3,RORE28,
2IFCnew,67,0,67,0,0.467263899976,2,Yes,5.7,-1,Correct Rejection,0.500732700108,False,True,stimulusRORE28_2IFCnew_2019_Jun_12_1714_135,stimulusRORE28_2IFCnew_2019_Jun_12_1714_136,True,2019_Jun_12_1714,2IFCnew,3,RORE28,
2IFCnew,68,0,68,0,0.367174999788,1,No,6.6,-1,Hit,0.497573199915,True,False,stimulusRORE28_2IFCnew_2019_Jun_12_1714_137,stimulusRORE28_2IFCnew_2019_Jun_12_1714_138,True,2019_Jun_12_1714,2IFCnew,3,RORE28,
2IFCnew,69,0,69,0,0.567441399908,5,Yes,5,-1,False Alarm,0.534262500005,False,True,stimulusRORE28_2IFCnew_2019_Jun_12_1714_139,stimulusRORE28_2IFCnew_2019_Jun_12_1714_140,True,2019_Jun_12_1714,2IFCnew,3,RORE28,
2IFCnew,70,0,70,0,-1,3,Yes,2.2,-1,Correct Rejection,0.567492499948,False,True,stimulusRORE28_2IFCnew_2019_Jun_12_1714_141,stimulusRORE28_2IFCnew_2019_Jun_12_1714_142,True,2019_Jun_12_1714,2IFCnew,3,RORE28,
2IFCnew,71,0,71,0,0.467703800183,2,Yes,5,-1,Correct Rejection,0.633655000012,False,True,stimulusRORE28_2IFCnew_2019_Jun_12_1714_143,stimulusRORE28_2IFCnew_2019_Jun_12_1714_144,True,2019_Jun_12_1714,2IFCnew,3,RORE28,
2IFCnew,72,0,72,0,0.668104700046,1,No,5,-1,Hit,0.603572500171,True,False,stimulusRORE28_2IFCnew_2019_Jun_12_1714_145,stimulusRORE28_2IFCnew_2019_Jun_12_1714_146,True,2019_Jun_12_1714,2IFCnew,3,RORE28,
2IFCnew,73,0,73,0,0.568129800027,7,Yes,4.4,-1,Hit,0.534064299893,True,False,stimulusRORE28_2IFCnew_2019_Jun_12_1714_147,stimulusRORE28_2IFCnew_2019_Jun_12_1714_148,True,2019_Jun_12_1714,2IFCnew,3,RORE28,
2IFCnew,74,0,74,0,0.734592400026,5,Yes,2.2,-1,False Alarm,0.534819500055,False,True,stimulusRORE28_2IFCnew_2019_Jun_12_1714_149,stimulusRORE28_2IFCnew_2019_Jun_12_1714_150,True,2019_Jun_12_1714,2IFCnew,3,RORE28,
2IFCnew,0,0,0,0,-1,0,Yes,3.7,-1,No Answer,-1,True,False,stimulusRORE28_2IFCnew_2019_Jun_12_1714_151,stimulusRORE28_2IFCnew_2019_Jun_12_1714_152,True,2019_Jun_12_1714,2IFCnew,3,RORE28,
2IFCnew,1,0,1,0,-1,1,Yes,3,-1,Hit,0.569261600031,True,False,stimulusRORE28_2IFCnew_2019_Jun_12_1714_153,stimulusRORE28_2IFCnew_2019_Jun_12_1714_154,True,2019_Jun_12_1714,2IFCnew,3,RORE28,
2IFCnew,2,0,2,0,-1,1,Yes,5.7,-1,Hit,0.466163900215,True,False,stimulusRORE28_2IFCnew_2019_Jun_12_1714_155,stimulusRORE28_2IFCnew_2019_Jun_12_1714_156,True,2019_Jun_12_1714,2IFCnew,3,RORE28,
2IFCnew,3,0,3,0,0.534329200163,5,Yes,1.4,-1,False Alarm,0.567265999969,False,True,stimulusRORE28_2IFCnew_2019_Jun_12_1714_157,stimulusRORE28_2IFCnew_2019_Jun_12_1714_158,True,2019_Jun_12_1714,2IFCnew,3,RORE28,
2IFCnew,4,0,4,0,0.5004892,8,No,1.4,-1,Correct Rejection,0.667077699909,False,True,stimulusRORE28_2IFCnew_2019_Jun_12_1714_159,stimulusRORE28_2IFCnew_2019_Jun_12_1714_160,True,2019_Jun_12_1714,2IFCnew,3,RORE28,
2IFCnew,5,0,5,0,-1,4,No,1.4,-1,Miss,0.600925600156,True,False,stimulusRORE28_2IFCnew_2019_Jun_12_1714_161,stimulusRORE28_2IFCnew_2019_Jun_12_1714_162,True,2019_Jun_12_1714,2IFCnew,3,RORE28,
2IFCnew,6,0,6,0,-1,1,No,1.4,-1,Hit,0.534038200043,True,False,stimulusRORE28_2IFCnew_2019_Jun_12_1714_163,stimulusRORE28_2IFCnew_2019_Jun_12_1714_164,True,2019_Jun_12_1714,2IFCnew,3,RORE28,
2IFCnew,7,0,7,0,-1,1,No,2.2,-1,Hit,0.500520499889,True,False,stimulusRORE28_2IFCnew_2019_Jun_12_1714_165,stimulusRORE28_2IFCnew_2019_Jun_12_1714_166,True,2019_Jun_12_1714,2IFCnew,3,RORE28,
2IFCnew,8,0,8,0,-1,1,No,5.7,-1,Hit,0.567147500115,True,False,stimulusRORE28_2IFCnew_2019_Jun_12_1714_167,stimulusRORE28_2IFCnew_2019_Jun_12_1714_168,True,2019_Jun_12_1714,2IFCnew,3,RORE28,
2IFCnew,9,0,9,0,0.600885800086,5,Yes,5.7,-1,False Alarm,0.602639799938,False,True,stimulusRORE28_2IFCnew_2019_Jun_12_1714_169,stimulusRORE28_2IFCnew_2019_Jun_12_1714_170,True,2019_Jun_12_1714,2IFCnew,3,RORE28,
2IFCnew,10,0,10,0,0.634381900076,2,Yes,5,-1,Correct Rejection,0.667564800009,False,True,stimulusRORE28_2IFCnew_2019_Jun_12_1714_171,stimulusRORE28_2IFCnew_2019_Jun_12_1714_172,True,2019_Jun_12_1714,2IFCnew,3,RORE28,
2IFCnew,11,0,11,0,0.700625900179,1,No,4.4,-1,Hit,0.667475100141,True,False,stimulusRORE28_2IFCnew_2019_Jun_12_1714_173,stimulusRORE28_2IFCnew_2019_Jun_12_1714_174,True,2019_Jun_12_1714,2IFCnew,3,RORE28,
2IFCnew,12,0,12,0,-1,1,No,6.6,-1,Hit,0.566885800101,True,False,stimulusRORE28_2IFCnew_2019_Jun_12_1714_175,stimulusRORE28_2IFCnew_2019_Jun_12_1714_176,True,2019_Jun_12_1714,2IFCnew,3,RORE28,
2IFCnew,13,0,13,0,-1,4,No,4.4,-1,Miss,0.567378999898,True,False,stimulusRORE28_2IFCnew_2019_Jun_12_1714_177,stimulusRORE28_2IFCnew_2019_Jun_12_1714_178,True,2019_Jun_12_1714,2IFCnew,3,RORE28,
2IFCnew,14,0,14,0,-1,2,No,3,-1,False Alarm,0.568670599954,False,True,stimulusRORE28_2IFCnew_2019_Jun_12_1714_179,stimulusRORE28_2IFCnew_2019_Jun_12_1714_180,True,2019_Jun_12_1714,2IFCnew,3,RORE28,
2IFCnew,15,0,15,0,0.534008500166,2,Yes,4.4,-1,Correct Rejection,0.600615600124,False,True,stimulusRORE28_2IFCnew_2019_Jun_12_1714_181,stimulusRORE28_2IFCnew_2019_Jun_12_1714_182,True,2019_Jun_12_1714,2IFCnew,3,RORE28,
2IFCnew,16,0,16,0,0.566554300021,5,Yes,1.4,-1,False Alarm,0.700903299963,False,True,stimulusRORE28_2IFCnew_2019_Jun_12_1714_183,stimulusRORE28_2IFCnew_2019_Jun_12_1714_184,True,2019_Jun_12_1714,2IFCnew,3,RORE28,
2IFCnew,17,0,17,0,0.566415499896,2,Yes,3.7,-1,Correct Rejection,0.532812099904,False,True,stimulusRORE28_2IFCnew_2019_Jun_12_1714_185,stimulusRORE28_2IFCnew_2019_Jun_12_1714_186,True,2019_Jun_12_1714,2IFCnew,3,RORE28,
2IFCnew,18,0,18,0,0.567133300006,2,Yes,3.7,-1,Correct Rejection,0.534119299846,False,True,stimulusRORE28_2IFCnew_2019_Jun_12_1714_187,stimulusRORE28_2IFCnew_2019_Jun_12_1714_188,True,2019_Jun_12_1714,2IFCnew,3,RORE28,
2IFCnew,19,0,19,0,0.700624099933,4,Yes,1.4,-1,Miss,0.56710139988,True,False,stimulusRORE28_2IFCnew_2019_Jun_12_1714_189,stimulusRORE28_2IFCnew_2019_Jun_12_1714_190,True,2019_Jun_12_1714,2IFCnew,3,RORE28,
2IFCnew,20,0,20,0,0.600755400024,2,Yes,3,-1,Correct Rejection,0.599964299938,False,True,stimulusRORE28_2IFCnew_2019_Jun_12_1714_191,stimulusRORE28_2IFCnew_2019_Jun_12_1714_192,True,2019_Jun_12_1714,2IFCnew,3,RORE28,
2IFCnew,21,0,21,0,0.433874999871,5,Yes,1.4,-1,False Alarm,0.667529399972,False,True,stimulusRORE28_2IFCnew_2019_Jun_12_1714_193,stimulusRORE28_2IFCnew_2019_Jun_12_1714_194,True,2019_Jun_12_1714,2IFCnew,3,RORE28,
2IFCnew,22,0,22,0,0.499986999901,4,Yes,1.4,-1,Miss,0.567848100094,True,False,stimulusRORE28_2IFCnew_2019_Jun_12_1714_195,stimulusRORE28_2IFCnew_2019_Jun_12_1714_196,True,2019_Jun_12_1714,2IFCnew,3,RORE28,
2IFCnew,23,0,23,0,0.801321099978,6,No,1.4,-1,Miss,0.834564300021,True,False,stimulusRORE28_2IFCnew_2019_Jun_12_1714_197,stimulusRORE28_2IFCnew_2019_Jun_12_1714_198,True,2019_Jun_12_1714,2IFCnew,3,RORE28,
2IFCnew,24,0,24,0,0.802481199848,6,No,3,-1,Miss,0.700647599995,True,False,stimulusRORE28_2IFCnew_2019_Jun_12_1714_199,stimulusRORE28_2IFCnew_2019_Jun_12_1714_200,True,2019_Jun_12_1714,2IFCnew,3,RORE28,
2IFCnew,25,0,25,0,0.602322699968,5,Yes,4.4,-1,False Alarm,0.699174500071,False,True,stimulusRORE28_2IFCnew_2019_Jun_12_1714_201,stimulusRORE28_2IFCnew_2019_Jun_12_1714_202,True,2019_Jun_12_1714,2IFCnew,3,RORE28,
2IFCnew,26,0,26,0,0.73414309998,8,No,5.7,-1,Correct Rejection,0.529853800079,False,True,stimulusRORE28_2IFCnew_2019_Jun_12_1714_203,stimulusRORE28_2IFCnew_2019_Jun_12_1714_204,True,2019_Jun_12_1714,2IFCnew,3,RORE28,
2IFCnew,27,0,27,0,0.634250799892,3,No,1.4,-1,False Alarm,0.534412800102,False,True,stimulusRORE28_2IFCnew_2019_Jun_12_1714_205,stimulusRORE28_2IFCnew_2019_Jun_12_1714_206,True,2019_Jun_12_1714,2IFCnew,3,RORE28,
2IFCnew,28,0,28,0,-1,4,No,4.4,-1,Miss,0.602213700069,True,False,stimulusRORE28_2IFCnew_2019_Jun_12_1714_207,stimulusRORE28_2IFCnew_2019_Jun_12_1714_208,True,2019_Jun_12_1714,2IFCnew,3,RORE28,
2IFCnew,29,0,29,0,-1,3,No,5,-1,Correct Rejection,0.49853309989,False,True,stimulusRORE28_2IFCnew_2019_Jun_12_1714_209,stimulusRORE28_2IFCnew_2019_Jun_12_1714_210,True,2019_Jun_12_1714,2IFCnew,3,RORE28,
2IFCnew,30,0,30,0,0.732857900206,2,Yes,5.7,-1,Correct Rejection,0.534017200116,False,True,stimulusRORE28_2IFCnew_2019_Jun_12_1714_211,stimulusRORE28_2IFCnew_2019_Jun_12_1714_212,True,2019_Jun_12_1714,2IFCnew,3,RORE28,
2IFCnew,31,0,31,0,0.501139300177,2,Yes,3,-1,Correct Rejection,0.53377390001,False,True,stimulusRORE28_2IFCnew_2019_Jun_12_1714_213,stimulusRORE28_2IFCnew_2019_Jun_12_1714_214,True,2019_Jun_12_1714,2IFCnew,3,RORE28,
2IFCnew,32,0,32,0,0.36713849986,5,Yes,5,-1,False Alarm,0.50078839995,False,True,stimulusRORE28_2IFCnew_2019_Jun_12_1714_215,stimulusRORE28_2IFCnew_2019_Jun_12_1714_216,True,2019_Jun_12_1714,2IFCnew,3,RORE28,
2IFCnew,33,0,33,0,0.6330002998,2,Yes,2.2,-1,Correct Rejection,0.500621499959,False,True,stimulusRORE28_2IFCnew_2019_Jun_12_1714_217,stimulusRORE28_2IFCnew_2019_Jun_12_1714_218,True,2019_Jun_12_1714,2IFCnew,3,RORE28,
2IFCnew,34,0,34,0,0.833704400109,8,No,2.2,-1,Correct Rejection,0.667620199965,False,True,stimulusRORE28_2IFCnew_2019_Jun_12_1714_219,stimulusRORE28_2IFCnew_2019_Jun_12_1714_220,True,2019_Jun_12_1714,2IFCnew,3,RORE28,
2IFCnew,35,0,35,0,-1,4,No,2.2,-1,Miss,0.600747799966,True,False,stimulusRORE28_2IFCnew_2019_Jun_12_1714_221,stimulusRORE28_2IFCnew_2019_Jun_12_1714_222,True,2019_Jun_12_1714,2IFCnew,3,RORE28,
2IFCnew,36,0,36,0,0.332321800059,5,Yes,1.4,-1,False Alarm,0.500148399966,False,True,stimulusRORE28_2IFCnew_2019_Jun_12_1714_223,stimulusRORE28_2IFCnew_2019_Jun_12_1714_224,True,2019_Jun_12_1714,2IFCnew,3,RORE28,
2IFCnew,37,0,37,0,0.467247999972,3,No,1.4,-1,False Alarm,0.633991100127,False,True,stimulusRORE28_2IFCnew_2019_Jun_12_1714_225,stimulusRORE28_2IFCnew_2019_Jun_12_1714_226,True,2019_Jun_12_1714,2IFCnew,3,RORE28,
2IFCnew,38,0,38,0,0.634784100112,3,No,2.2,-1,False Alarm,0.701636800077,False,True,stimulusRORE28_2IFCnew_2019_Jun_12_1714_227,stimulusRORE28_2IFCnew_2019_Jun_12_1714_228,True,2019_Jun_12_1714,2IFCnew,3,RORE28,
2IFCnew,39,0,39,0,-1,4,No,5.7,-1,Miss,0.600945999846,True,False,stimulusRORE28_2IFCnew_2019_Jun_12_1714_229,stimulusRORE28_2IFCnew_2019_Jun_12_1714_230,True,2019_Jun_12_1714,2IFCnew,3,RORE28,
2IFCnew,40,0,40,0,-1,3,No,4.4,-1,Correct Rejection,0.367214899976,False,True,stimulusRORE28_2IFCnew_2019_Jun_12_1714_231,stimulusRORE28_2IFCnew_2019_Jun_12_1714_232,True,2019_Jun_12_1714,2IFCnew,3,RORE28,
2IFCnew,41,0,41,0,-1,3,No,2.2,-1,Correct Rejection,0.632890800014,False,True,stimulusRORE28_2IFCnew_2019_Jun_12_1714_233,stimulusRORE28_2IFCnew_2019_Jun_12_1714_234,True,2019_Jun_12_1714,2IFCnew,3,RORE28,
2IFCnew,42,0,42,0,-1,1,No,3,-1,Hit,0.83581079985,True,False,stimulusRORE28_2IFCnew_2019_Jun_12_1714_235,stimulusRORE28_2IFCnew_2019_Jun_12_1714_236,True,2019_Jun_12_1714,2IFCnew,3,RORE28,
2IFCnew,43,0,43,0,-1,1,No,5.7,-1,Hit,0.602193299914,True,False,stimulusRORE28_2IFCnew_2019_Jun_12_1714_237,stimulusRORE28_2IFCnew_2019_Jun_12_1714_238,True,2019_Jun_12_1714,2IFCnew,3,RORE28,
2IFCnew,44,0,44,0,-1,1,No,5.7,-1,Hit,0.533916600049,True,False,stimulusRORE28_2IFCnew_2019_Jun_12_1714_239,stimulusRORE28_2IFCnew_2019_Jun_12_1714_240,True,2019_Jun_12_1714,2IFCnew,3,RORE28,
2IFCnew,45,0,45,0,-1,2,No,1.4,-1,False Alarm,0.566538600018,False,True,stimulusRORE28_2IFCnew_2019_Jun_12_1714_241,stimulusRORE28_2IFCnew_2019_Jun_12_1714_242,True,2019_Jun_12_1714,2IFCnew,3,RORE28,
2IFCnew,46,0,46,0,-1,1,No,5,-1,Hit,0.500823999988,True,False,stimulusRORE28_2IFCnew_2019_Jun_12_1714_243,stimulusRORE28_2IFCnew_2019_Jun_12_1714_244,True,2019_Jun_12_1714,2IFCnew,3,RORE28,
2IFCnew,47,0,47,0,-1,2,No,1.4,-1,False Alarm,0.567822100129,False,True,stimulusRORE28_2IFCnew_2019_Jun_12_1714_245,stimulusRORE28_2IFCnew_2019_Jun_12_1714_246,True,2019_Jun_12_1714,2IFCnew,3,RORE28,
2IFCnew,48,0,48,0,-1,1,No,5.7,-1,Hit,0.499203100102,True,False,stimulusRORE28_2IFCnew_2019_Jun_12_1714_247,stimulusRORE28_2IFCnew_2019_Jun_12_1714_248,True,2019_Jun_12_1714,2IFCnew,3,RORE28,
2IFCnew,49,0,49,0,-1,2,No,3,-1,False Alarm,0.534106099978,False,True,stimulusRORE28_2IFCnew_2019_Jun_12_1714_249,stimulusRORE28_2IFCnew_2019_Jun_12_1714_250,True,2019_Jun_12_1714,2IFCnew,3,RORE28,
2IFCnew,50,0,50,0,-1,1,No,5.7,-1,Hit,0.435260100057,True,False,stimulusRORE28_2IFCnew_2019_Jun_12_1714_251,stimulusRORE28_2IFCnew_2019_Jun_12_1714_252,True,2019_Jun_12_1714,2IFCnew,3,RORE28,
2IFCnew,51,0,51,0,-1,2,No,3,-1,False Alarm,0.567391100107,False,True,stimulusRORE28_2IFCnew_2019_Jun_12_1714_253,stimulusRORE28_2IFCnew_2019_Jun_12_1714_254,True,2019_Jun_12_1714,2IFCnew,3,RORE28,
2IFCnew,52,0,52,0,-1,1,No,5.7,-1,Hit,0.667984599946,True,False,stimulusRORE28_2IFCnew_2019_Jun_12_1714_255,stimulusRORE28_2IFCnew_2019_Jun_12_1714_256,True,2019_Jun_12_1714,2IFCnew,3,RORE28,
2IFCnew,53,0,53,0,-1,3,No,3.7,-1,Correct Rejection,0.600494599901,False,True,stimulusRORE28_2IFCnew_2019_Jun_12_1714_257,stimulusRORE28_2IFCnew_2019_Jun_12_1714_258,True,2019_Jun_12_1714,2IFCnew,3,RORE28,
2IFCnew,54,0,54,0,-1,3,No,5.7,-1,Correct Rejection,0.566493500024,False,True,stimulusRORE28_2IFCnew_2019_Jun_12_1714_259,stimulusRORE28_2IFCnew_2019_Jun_12_1714_260,True,2019_Jun_12_1714,2IFCnew,3,RORE28,
2IFCnew,55,0,55,0,-1,2,No,2.2,-1,False Alarm,0.501102100126,False,True,stimulusRORE28_2IFCnew_2019_Jun_12_1714_261,stimulusRORE28_2IFCnew_2019_Jun_12_1714_262,True,2019_Jun_12_1714,2IFCnew,3,RORE28,
2IFCnew,56,0,56,0,-1,1,No,5,-1,Hit,0.533805200132,True,False,stimulusRORE28_2IFCnew_2019_Jun_12_1714_263,stimulusRORE28_2IFCnew_2019_Jun_12_1714_264,True,2019_Jun_12_1714,2IFCnew,3,RORE28,
2IFCnew,57,0,57,0,-1,2,No,5,-1,False Alarm,0.533923600102,False,True,stimulusRORE28_2IFCnew_2019_Jun_12_1714_265,stimulusRORE28_2IFCnew_2019_Jun_12_1714_266,True,2019_Jun_12_1714,2IFCnew,3,RORE28,
2IFCnew,58,0,58,0,-1,2,No,3.7,-1,False Alarm,0.567637,False,True,stimulusRORE28_2IFCnew_2019_Jun_12_1714_267,stimulusRORE28_2IFCnew_2019_Jun_12_1714_268,True,2019_Jun_12_1714,2IFCnew,3,RORE28,
2IFCnew,59,0,59,0,0.736243200023,6,No,5,-1,Miss,0.501710100099,True,False,stimulusRORE28_2IFCnew_2019_Jun_12_1714_269,stimulusRORE28_2IFCnew_2019_Jun_12_1714_270,True,2019_Jun_12_1714,2IFCnew,3,RORE28,
2IFCnew,60,0,60,0,-1,2,No,2.2,-1,False Alarm,0.534398599993,False,True,stimulusRORE28_2IFCnew_2019_Jun_12_1714_271,stimulusRORE28_2IFCnew_2019_Jun_12_1714_272,True,2019_Jun_12_1714,2IFCnew,3,RORE28,
2IFCnew,61,0,61,0,-1,2,No,3.7,-1,False Alarm,0.601869999897,False,True,stimulusRORE28_2IFCnew_2019_Jun_12_1714_273,stimulusRORE28_2IFCnew_2019_Jun_12_1714_274,True,2019_Jun_12_1714,2IFCnew,3,RORE28,
2IFCnew,62,0,62,0,-1,3,No,2.2,-1,Correct Rejection,0.567537400173,False,True,stimulusRORE28_2IFCnew_2019_Jun_12_1714_275,stimulusRORE28_2IFCnew_2019_Jun_12_1714_276,True,2019_Jun_12_1714,2IFCnew,3,RORE28,
2IFCnew,63,0,63,0,-1,3,No,3.7,-1,Correct Rejection,0.599962200038,False,True,stimulusRORE28_2IFCnew_2019_Jun_12_1714_277,stimulusRORE28_2IFCnew_2019_Jun_12_1714_278,True,2019_Jun_12_1714,2IFCnew,3,RORE28,
2IFCnew,64,0,64,0,-1,4,No,2.2,-1,Miss,0.700881199911,True,False,stimulusRORE28_2IFCnew_2019_Jun_12_1714_279,stimulusRORE28_2IFCnew_2019_Jun_12_1714_280,True,2019_Jun_12_1714,2IFCnew,3,RORE28,
2IFCnew,65,0,65,0,-1,3,No,6.6,-1,Correct Rejection,0.500168700004,False,True,stimulusRORE28_2IFCnew_2019_Jun_12_1714_281,stimulusRORE28_2IFCnew_2019_Jun_12_1714_282,True,2019_Jun_12_1714,2IFCnew,3,RORE28,
2IFCnew,66,0,66,0,-1,3,No,6.6,-1,Correct Rejection,0.500688600121,False,True,stimulusRORE28_2IFCnew_2019_Jun_12_1714_283,stimulusRORE28_2IFCnew_2019_Jun_12_1714_284,True,2019_Jun_12_1714,2IFCnew,3,RORE28,
2IFCnew,67,0,67,0,0.667396199889,2,Yes,6.6,-1,Correct Rejection,0.365180700086,False,True,stimulusRORE28_2IFCnew_2019_Jun_12_1714_285,stimulusRORE28_2IFCnew_2019_Jun_12_1714_286,True,2019_Jun_12_1714,2IFCnew,3,RORE28,
2IFCnew,68,0,68,0,-1,1,Yes,5.7,-1,Hit,0.567475100048,True,False,stimulusRORE28_2IFCnew_2019_Jun_12_1714_287,stimulusRORE28_2IFCnew_2019_Jun_12_1714_288,True,2019_Jun_12_1714,2IFCnew,3,RORE28,
2IFCnew,69,0,69,0,0.567207799992,5,Yes,3.7,-1,False Alarm,0.49997200002,False,True,stimulusRORE28_2IFCnew_2019_Jun_12_1714_289,stimulusRORE28_2IFCnew_2019_Jun_12_1714_290,True,2019_Jun_12_1714,2IFCnew,3,RORE28,
2IFCnew,70,0,70,0,-1,3,Yes,2.2,-1,Correct Rejection,0.567697999999,False,True,stimulusRORE28_2IFCnew_2019_Jun_12_1714_291,stimulusRORE28_2IFCnew_2019_Jun_12_1714_292,True,2019_Jun_12_1714,2IFCnew,3,RORE28,
2IFCnew,71,0,71,0,0.600400999887,7,Yes,2.2,-1,Hit,0.499987600138,True,False,stimulusRORE28_2IFCnew_2019_Jun_12_1714_293,stimulusRORE28_2IFCnew_2019_Jun_12_1714_294,True,2019_Jun_12_1714,2IFCnew,3,RORE28,
2IFCnew,72,0,72,0,0.299997900147,1,No,5,-1,Hit,0.467578399926,True,False,stimulusRORE28_2IFCnew_2019_Jun_12_1714_295,stimulusRORE28_2IFCnew_2019_Jun_12_1714_296,True,2019_Jun_12_1714,2IFCnew,3,RORE28,
2IFCnew,73,0,73,0,0.700481900014,8,No,2.2,-1,Correct Rejection,0.600594900083,False,True,stimulusRORE28_2IFCnew_2019_Jun_12_1714_297,stimulusRORE28_2IFCnew_2019_Jun_12_1714_298,True,2019_Jun_12_1714,2IFCnew,3,RORE28,
2IFCnew,74,0,74,0,-1,1,No,3,-1,Hit,0.80108419992,True,False,stimulusRORE28_2IFCnew_2019_Jun_12_1714_299,stimulusRORE28_2IFCnew_2019_Jun_12_1714_300,True,2019_Jun_12_1714,2IFCnew,3,RORE28,
2IFCnew,0,0,0,0,0.701281600166,2,Yes,5,-1,Correct Rejection,0.671994999982,False,True,stimulusRORE28_2IFCnew_2019_Jun_12_1714_301,stimulusRORE28_2IFCnew_2019_Jun_12_1714_302,True,2019_Jun_12_1714,2IFCnew,3,RORE28,
2IFCnew,1,0,1,0,-1,1,Yes,3,-1,Hit,0.70324289985,True,False,stimulusRORE28_2IFCnew_2019_Jun_12_1714_303,stimulusRORE28_2IFCnew_2019_Jun_12_1714_304,True,2019_Jun_12_1714,2IFCnew,3,RORE28,
2IFCnew,2,0,2,0,-1,4,Yes,3,-1,Miss,0.666685699951,True,False,stimulusRORE28_2IFCnew_2019_Jun_12_1714_305,stimulusRORE28_2IFCnew_2019_Jun_12_1714_306,True,2019_Jun_12_1714,2IFCnew,3,RORE28,
2IFCnew,3,0,3,0,0.766942000017,1,No,5,-1,Hit,0.500614100136,True,False,stimulusRORE28_2IFCnew_2019_Jun_12_1714_307,stimulusRORE28_2IFCnew_2019_Jun_12_1714_308,True,2019_Jun_12_1714,2IFCnew,3,RORE28,
2IFCnew,4,0,4,0,-1,1,No,6.6,-1,Hit,0.501711299876,True,False,stimulusRORE28_2IFCnew_2019_Jun_12_1714_309,stimulusRORE28_2IFCnew_2019_Jun_12_1714_310,True,2019_Jun_12_1714,2IFCnew,3,RORE28,
2IFCnew,5,0,5,0,0.567345800111,2,Yes,5.7,-1,Correct Rejection,0.467906800099,False,True,stimulusRORE28_2IFCnew_2019_Jun_12_1714_311,stimulusRORE28_2IFCnew_2019_Jun_12_1714_312,True,2019_Jun_12_1714,2IFCnew,3,RORE28,
2IFCnew,6,0,6,0,0.500443900004,5,Yes,2.2,-1,False Alarm,0.501305100042,False,True,stimulusRORE28_2IFCnew_2019_Jun_12_1714_313,stimulusRORE28_2IFCnew_2019_Jun_12_1714_314,True,2019_Jun_12_1714,2IFCnew,3,RORE28,
2IFCnew,7,0,7,0,-1,1,Yes,4.4,-1,Hit,0.60047179996,True,False,stimulusRORE28_2IFCnew_2019_Jun_12_1714_315,stimulusRORE28_2IFCnew_2019_Jun_12_1714_316,True,2019_Jun_12_1714,2IFCnew,3,RORE28,
2IFCnew,8,0,8,0,-1,1,Yes,5.7,-1,Hit,0.501193400007,True,False,stimulusRORE28_2IFCnew_2019_Jun_12_1714_317,stimulusRORE28_2IFCnew_2019_Jun_12_1714_318,True,2019_Jun_12_1714,2IFCnew,3,RORE28,
2IFCnew,9,0,9,0,-1,1,Yes,3,-1,Hit,0.499967499869,True,False,stimulusRORE28_2IFCnew_2019_Jun_12_1714_319,stimulusRORE28_2IFCnew_2019_Jun_12_1714_320,True,2019_Jun_12_1714,2IFCnew,3,RORE28,
2IFCnew,10,0,10,0,-1,3,Yes,3.7,-1,Correct Rejection,0.567861899966,False,True,stimulusRORE28_2IFCnew_2019_Jun_12_1714_321,stimulusRORE28_2IFCnew_2019_Jun_12_1714_322,True,2019_Jun_12_1714,2IFCnew,3,RORE28,
2IFCnew,11,0,11,0,-1,1,Yes,5.7,-1,Hit,0.534156499896,True,False,stimulusRORE28_2IFCnew_2019_Jun_12_1714_323,stimulusRORE28_2IFCnew_2019_Jun_12_1714_324,True,2019_Jun_12_1714,2IFCnew,3,RORE28,
2IFCnew,12,0,12,0,-1,4,Yes,6.6,-1,Miss,0.535356199834,True,False,stimulusRORE28_2IFCnew_2019_Jun_12_1714_325,stimulusRORE28_2IFCnew_2019_Jun_12_1714_326,True,2019_Jun_12_1714,2IFCnew,3,RORE28,
2IFCnew,13,0,13,0,-1,2,Yes,1.4,-1,False Alarm,0.500865500188,False,True,stimulusRORE28_2IFCnew_2019_Jun_12_1714_327,stimulusRORE28_2IFCnew_2019_Jun_12_1714_328,True,2019_Jun_12_1714,2IFCnew,3,RORE28,
2IFCnew,14,0,14,0,-1,2,Yes,6.6,-1,False Alarm,0.633524999954,False,True,stimulusRORE28_2IFCnew_2019_Jun_12_1714_329,stimulusRORE28_2IFCnew_2019_Jun_12_1714_330,True,2019_Jun_12_1714,2IFCnew,3,RORE28,
2IFCnew,15,0,15,0,-1,2,Yes,2.2,-1,False Alarm,0.701130699832,False,True,stimulusRORE28_2IFCnew_2019_Jun_12_1714_331,stimulusRORE28_2IFCnew_2019_Jun_12_1714_332,True,2019_Jun_12_1714,2IFCnew,3,RORE28,
2IFCnew,16,0,16,0,-1,4,Yes,5,-1,Miss,0.60087529989,True,False,stimulusRORE28_2IFCnew_2019_Jun_12_1714_333,stimulusRORE28_2IFCnew_2019_Jun_12_1714_334,True,2019_Jun_12_1714,2IFCnew,3,RORE28,
2IFCnew,17,0,17,0,-1,3,Yes,5.7,-1,Correct Rejection,0.699977000011,False,True,stimulusRORE28_2IFCnew_2019_Jun_12_1714_335,stimulusRORE28_2IFCnew_2019_Jun_12_1714_336,True,2019_Jun_12_1714,2IFCnew,3,RORE28,
2IFCnew,18,0,18,0,0.733385900036,7,Yes,3,-1,Hit,0.500432900153,True,False,stimulusRORE28_2IFCnew_2019_Jun_12_1714_337,stimulusRORE28_2IFCnew_2019_Jun_12_1714_338,True,2019_Jun_12_1714,2IFCnew,3,RORE28,
2IFCnew,19,0,19,0,-1,3,Yes,3.7,-1,Correct Rejection,0.700972500024,False,True,stimulusRORE28_2IFCnew_2019_Jun_12_1714_339,stimulusRORE28_2IFCnew_2019_Jun_12_1714_340,True,2019_Jun_12_1714,2IFCnew,3,RORE28,
2IFCnew,20,0,20,0,-1,2,Yes,5.7,-1,False Alarm,0.567450300092,False,True,stimulusRORE28_2IFCnew_2019_Jun_12_1714_341,stimulusRORE28_2IFCnew_2019_Jun_12_1714_342,True,2019_Jun_12_1714,2IFCnew,3,RORE28,
2IFCnew,21,0,21,0,-1,3,Yes,3,-1,Correct Rejection,0.534391699824,False,True,stimulusRORE28_2IFCnew_2019_Jun_12_1714_343,stimulusRORE28_2IFCnew_2019_Jun_12_1714_344,True,2019_Jun_12_1714,2IFCnew,3,RORE28,
2IFCnew,22,0,22,0,-1,4,Yes,3,-1,Miss,0.700798900099,True,False,stimulusRORE28_2IFCnew_2019_Jun_12_1714_345,stimulusRORE28_2IFCnew_2019_Jun_12_1714_346,True,2019_Jun_12_1714,2IFCnew,3,RORE28,
2IFCnew,23,0,23,0,-1,1,Yes,5.7,-1,Hit,0.534025599947,True,False,stimulusRORE28_2IFCnew_2019_Jun_12_1714_347,stimulusRORE28_2IFCnew_2019_Jun_12_1714_348,True,2019_Jun_12_1714,2IFCnew,3,RORE28,
2IFCnew,24,0,24,0,-1,3,Yes,1.4,-1,Correct Rejection,0.734192499891,False,True,stimulusRORE28_2IFCnew_2019_Jun_12_1714_349,stimulusRORE28_2IFCnew_2019_Jun_12_1714_350,True,2019_Jun_12_1714,2IFCnew,3,RORE28,
2IFCnew,25,0,25,0,-1,1,Yes,3.7,-1,Hit,0.567145599984,True,False,stimulusRORE28_2IFCnew_2019_Jun_12_1714_351,stimulusRORE28_2IFCnew_2019_Jun_12_1714_352,True,2019_Jun_12_1714,2IFCnew,3,RORE28,
2IFCnew,26,0,26,0,-1,3,Yes,3.7,-1,Correct Rejection,0.600314599928,False,True,stimulusRORE28_2IFCnew_2019_Jun_12_1714_353,stimulusRORE28_2IFCnew_2019_Jun_12_1714_354,True,2019_Jun_12_1714,2IFCnew,3,RORE28,
2IFCnew,27,0,27,0,0.600655599963,5,Yes,5,-1,False Alarm,0.466752899811,False,True,stimulusRORE28_2IFCnew_2019_Jun_12_1714_355,stimulusRORE28_2IFCnew_2019_Jun_12_1714_356,True,2019_Jun_12_1714,2IFCnew,3,RORE28,
2IFCnew,28,0,28,0,0.601354199927,2,Yes,2.2,-1,Correct Rejection,0.567344499985,False,True,stimulusRORE28_2IFCnew_2019_Jun_12_1714_357,stimulusRORE28_2IFCnew_2019_Jun_12_1714_358,True,2019_Jun_12_1714,2IFCnew,3,RORE28,
2IFCnew,29,0,29,0,0.567310200073,2,Yes,3,-1,Correct Rejection,0.532072900096,False,True,stimulusRORE28_2IFCnew_2019_Jun_12_1714_359,stimulusRORE28_2IFCnew_2019_Jun_12_1714_360,True,2019_Jun_12_1714,2IFCnew,3,RORE28,
2IFCnew,30,0,30,0,0.367217299994,5,Yes,6.6,-1,False Alarm,0.568352700211,False,True,stimulusRORE28_2IFCnew_2019_Jun_12_1714_361,stimulusRORE28_2IFCnew_2019_Jun_12_1714_362,True,2019_Jun_12_1714,2IFCnew,3,RORE28,
2IFCnew,31,0,31,0,0.500446599908,2,Yes,4.4,-1,Correct Rejection,0.433798699873,False,True,stimulusRORE28_2IFCnew_2019_Jun_12_1714_363,stimulusRORE28_2IFCnew_2019_Jun_12_1714_364,True,2019_Jun_12_1714,2IFCnew,3,RORE28,
2IFCnew,32,0,32,0,-1,1,Yes,2.2,-1,Hit,0.633639100008,True,False,stimulusRORE28_2IFCnew_2019_Jun_12_1714_365,stimulusRORE28_2IFCnew_2019_Jun_12_1714_366,True,2019_Jun_12_1714,2IFCnew,3,RORE28,
2IFCnew,33,0,33,0,0.633381899912,7,Yes,3.7,-1,Hit,0.601810000138,True,False,stimulusRORE28_2IFCnew_2019_Jun_12_1714_367,stimulusRORE28_2IFCnew_2019_Jun_12_1714_368,True,2019_Jun_12_1714,2IFCnew,3,RORE28,
2IFCnew,34,0,34,0,-1,2,Yes,6.6,-1,False Alarm,0.567871800158,False,True,stimulusRORE28_2IFCnew_2019_Jun_12_1714_369,stimulusRORE28_2IFCnew_2019_Jun_12_1714_370,True,2019_Jun_12_1714,2IFCnew,3,RORE28,
2IFCnew,35,0,35,0,-1,3,Yes,5,-1,Correct Rejection,0.733593999874,False,True,stimulusRORE28_2IFCnew_2019_Jun_12_1714_371,stimulusRORE28_2IFCnew_2019_Jun_12_1714_372,True,2019_Jun_12_1714,2IFCnew,3,RORE28,
2IFCnew,36,0,36,0,-1,3,Yes,1.4,-1,Correct Rejection,0.600283700041,False,True,stimulusRORE28_2IFCnew_2019_Jun_12_1714_373,stimulusRORE28_2IFCnew_2019_Jun_12_1714_374,True,2019_Jun_12_1714,2IFCnew,3,RORE28,
2IFCnew,37,0,37,0,-1,1,Yes,1.4,-1,Hit,0.533925600117,True,False,stimulusRORE28_2IFCnew_2019_Jun_12_1714_375,stimulusRORE28_2IFCnew_2019_Jun_12_1714_376,True,2019_Jun_12_1714,2IFCnew,3,RORE28,
2IFCnew,38,0,38,0,-1,2,Yes,4.4,-1,False Alarm,0.500174699817,False,True,stimulusRORE28_2IFCnew_2019_Jun_12_1714_377,stimulusRORE28_2IFCnew_2019_Jun_12_1714_378,True,2019_Jun_12_1714,2IFCnew,3,RORE28,
2IFCnew,39,0,39,0,0.467313400004,6,No,3,-1,Miss,0.568084700033,True,False,stimulusRORE28_2IFCnew_2019_Jun_12_1714_379,stimulusRORE28_2IFCnew_2019_Jun_12_1714_380,True,2019_Jun_12_1714,2IFCnew,3,RORE28,
2IFCnew,40,0,40,0,0.666454799939,8,No,1.4,-1,Correct Rejection,0.634629399981,False,True,stimulusRORE28_2IFCnew_2019_Jun_12_1714_381,stimulusRORE28_2IFCnew_2019_Jun_12_1714_382,True,2019_Jun_12_1714,2IFCnew,3,RORE28,
2IFCnew,41,0,41,0,-1,1,No,6.6,-1,Hit,0.500843200134,True,False,stimulusRORE28_2IFCnew_2019_Jun_12_1714_383,stimulusRORE28_2IFCnew_2019_Jun_12_1714_384,True,2019_Jun_12_1714,2IFCnew,3,RORE28,
2IFCnew,42,0,42,0,0.600660600001,2,Yes,3.7,-1,Correct Rejection,0.601306600031,False,True,stimulusRORE28_2IFCnew_2019_Jun_12_1714_385,stimulusRORE28_2IFCnew_2019_Jun_12_1714_386,True,2019_Jun_12_1714,2IFCnew,3,RORE28,
2IFCnew,43,0,43,0,0.434065199923,1,No,1.4,-1,Hit,0.500585599802,True,False,stimulusRORE28_2IFCnew_2019_Jun_12_1714_387,stimulusRORE28_2IFCnew_2019_Jun_12_1714_388,True,2019_Jun_12_1714,2IFCnew,3,RORE28,
2IFCnew,44,0,44,0,0.635060800007,6,No,3,-1,Miss,0.533740499988,True,False,stimulusRORE28_2IFCnew_2019_Jun_12_1714_389,stimulusRORE28_2IFCnew_2019_Jun_12_1714_390,True,2019_Jun_12_1714,2IFCnew,3,RORE28,
2IFCnew,45,0,45,0,-1,3,No,3.7,-1,Correct Rejection,0.500482799951,False,True,stimulusRORE28_2IFCnew_2019_Jun_12_1714_391,stimulusRORE28_2IFCnew_2019_Jun_12_1714_392,True,2019_Jun_12_1714,2IFCnew,3,RORE28,
2IFCnew,46,0,46,0,-1,1,No,5.7,-1,Hit,0.602708199993,True,False,stimulusRORE28_2IFCnew_2019_Jun_12_1714_393,stimulusRORE28_2IFCnew_2019_Jun_12_1714_394,True,2019_Jun_12_1714,2IFCnew,3,RORE28,
2IFCnew,47,0,47,0,0.602110699983,5,Yes,5.7,-1,False Alarm,0.602125700098,False,True,stimulusRORE28_2IFCnew_2019_Jun_12_1714_395,stimulusRORE28_2IFCnew_2019_Jun_12_1714_396,True,2019_Jun_12_1714,2IFCnew,3,RORE28,
2IFCnew,48,0,48,0,0.732407500036,1,No,5.7,-1,Hit,0.533929300029,True,False,stimulusRORE28_2IFCnew_2019_Jun_12_1714_397,stimulusRORE28_2IFCnew_2019_Jun_12_1714_398,True,2019_Jun_12_1714,2IFCnew,3,RORE28,
2IFCnew,49,0,49,0,0.566946499981,1,No,1.4,-1,Hit,0.534140100004,True,False,stimulusRORE28_2IFCnew_2019_Jun_12_1714_399,stimulusRORE28_2IFCnew_2019_Jun_12_1714_400,True,2019_Jun_12_1714,2IFCnew,3,RORE28,
2IFCnew,50,0,50,0,0.50096799992,5,Yes,3,-1,False Alarm,0.535470200004,False,True,stimulusRORE28_2IFCnew_2019_Jun_12_1714_401,stimulusRORE28_2IFCnew_2019_Jun_12_1714_402,True,2019_Jun_12_1714,2IFCnew,3,RORE28,
2IFCnew,51,0,51,0,0.802809299901,6,No,1.4,-1,Miss,0.566599400016,True,False,stimulusRORE28_2IFCnew_2019_Jun_12_1714_403,stimulusRORE28_2IFCnew_2019_Jun_12_1714_404,True,2019_Jun_12_1714,2IFCnew,3,RORE28,
2IFCnew,52,0,52,0,-1,1,No,2.2,-1,Hit,0.634856600082,True,False,stimulusRORE28_2IFCnew_2019_Jun_12_1714_405,stimulusRORE28_2IFCnew_2019_Jun_12_1714_406,True,2019_Jun_12_1714,2IFCnew,3,RORE28,
2IFCnew,53,0,53,0,0.400488700019,5,Yes,5.7,-1,False Alarm,0.56600370002,False,True,stimulusRORE28_2IFCnew_2019_Jun_12_1714_407,stimulusRORE28_2IFCnew_2019_Jun_12_1714_408,True,2019_Jun_12_1714,2IFCnew,3,RORE28,
2IFCnew,54,0,54,0,0.533823399805,2,Yes,5,-1,Correct Rejection,0.666026900057,False,True,stimulusRORE28_2IFCnew_2019_Jun_12_1714_409,stimulusRORE28_2IFCnew_2019_Jun_12_1714_410,True,2019_Jun_12_1714,2IFCnew,3,RORE28,
2IFCnew,55,0,55,0,0.500549700111,4,Yes,1.4,-1,Miss,0.701413899893,True,False,stimulusRORE28_2IFCnew_2019_Jun_12_1714_411,stimulusRORE28_2IFCnew_2019_Jun_12_1714_412,True,2019_Jun_12_1714,2IFCnew,3,RORE28,
2IFCnew,56,0,56,0,0.567237999989,1,No,4.4,-1,Hit,0.501045800047,True,False,stimulusRORE28_2IFCnew_2019_Jun_12_1714_413,stimulusRORE28_2IFCnew_2019_Jun_12_1714_414,True,2019_Jun_12_1714,2IFCnew,3,RORE28,
2IFCnew,57,0,57,0,0.800448199967,4,Yes,5,-1,Miss,0.634192500031,True,False,stimulusRORE28_2IFCnew_2019_Jun_12_1714_415,stimulusRORE28_2IFCnew_2019_Jun_12_1714_416,True,2019_Jun_12_1714,2IFCnew,3,RORE28,
2IFCnew,58,0,58,0,0.666778200073,2,Yes,6.6,-1,Correct Rejection,0.702166499803,False,True,stimulusRORE28_2IFCnew_2019_Jun_12_1714_417,stimulusRORE28_2IFCnew_2019_Jun_12_1714_418,True,2019_Jun_12_1714,2IFCnew,3,RORE28,
2IFCnew,59,0,59,0,-1,1,Yes,1.4,-1,Hit,0.701164799975,True,False,stimulusRORE28_2IFCnew_2019_Jun_12_1714_419,stimulusRORE28_2IFCnew_2019_Jun_12_1714_420,True,2019_Jun_12_1714,2IFCnew,3,RORE28,
2IFCnew,60,0,60,0,-1,1,Yes,1.4,-1,Hit,0.567275899928,True,False,stimulusRORE28_2IFCnew_2019_Jun_12_1714_421,stimulusRORE28_2IFCnew_2019_Jun_12_1714_422,True,2019_Jun_12_1714,2IFCnew,3,RORE28,
2IFCnew,61,0,61,0,-1,3,Yes,3,-1,Correct Rejection,0.90070589981,False,True,stimulusRORE28_2IFCnew_2019_Jun_12_1714_423,stimulusRORE28_2IFCnew_2019_Jun_12_1714_424,True,2019_Jun_12_1714,2IFCnew,3,RORE28,
2IFCnew,62,0,62,0,0.501035399968,1,No,1.4,-1,Hit,0.534707600018,True,False,stimulusRORE28_2IFCnew_2019_Jun_12_1714_425,stimulusRORE28_2IFCnew_2019_Jun_12_1714_426,True,2019_Jun_12_1714,2IFCnew,3,RORE28,
2IFCnew,63,0,63,0,0.300009399885,1,No,4.4,-1,Hit,0.567499000113,True,False,stimulusRORE28_2IFCnew_2019_Jun_12_1714_427,stimulusRORE28_2IFCnew_2019_Jun_12_1714_428,True,2019_Jun_12_1714,2IFCnew,3,RORE28,
2IFCnew,64,0,64,0,0.735609800089,2,Yes,3,-1,Correct Rejection,0.636223300127,False,True,stimulusRORE28_2IFCnew_2019_Jun_12_1714_429,stimulusRORE28_2IFCnew_2019_Jun_12_1714_430,True,2019_Jun_12_1714,2IFCnew,3,RORE28,
2IFCnew,65,0,65,0,0.501139499946,1,No,4.4,-1,Hit,0.533168100053,True,False,stimulusRORE28_2IFCnew_2019_Jun_12_1714_431,stimulusRORE28_2IFCnew_2019_Jun_12_1714_432,True,2019_Jun_12_1714,2IFCnew,3,RORE28,
2IFCnew,66,0,66,0,0.832738499856,5,Yes,6.6,-1,False Alarm,0.533981099958,False,True,stimulusRORE28_2IFCnew_2019_Jun_12_1714_433,stimulusRORE28_2IFCnew_2019_Jun_12_1714_434,True,2019_Jun_12_1714,2IFCnew,3,RORE28,
2IFCnew,67,0,67,0,0.400492899818,1,No,4.4,-1,Hit,0.533711199882,True,False,stimulusRORE28_2IFCnew_2019_Jun_12_1714_435,stimulusRORE28_2IFCnew_2019_Jun_12_1714_436,True,2019_Jun_12_1714,2IFCnew,3,RORE28,
2IFCnew,68,0,68,0,0.46643800009,2,Yes,3,-1,Correct Rejection,0.735661400016,False,True,stimulusRORE28_2IFCnew_2019_Jun_12_1714_437,stimulusRORE28_2IFCnew_2019_Jun_12_1714_438,True,2019_Jun_12_1714,2IFCnew,3,RORE28,
2IFCnew,69,0,69,0,0.533609199803,1,No,6.6,-1,Hit,0.466698199976,True,False,stimulusRORE28_2IFCnew_2019_Jun_12_1714_439,stimulusRORE28_2IFCnew_2019_Jun_12_1714_440,True,2019_Jun_12_1714,2IFCnew,3,RORE28,
2IFCnew,70,0,70,0,0.50015820004,3,No,1.4,-1,False Alarm,0.600786600029,False,True,stimulusRORE28_2IFCnew_2019_Jun_12_1714_441,stimulusRORE28_2IFCnew_2019_Jun_12_1714_442,True,2019_Jun_12_1714,2IFCnew,3,RORE28,
2IFCnew,71,0,71,0,0.833860700019,1,No,4.4,-1,Hit,0.600903900107,True,False,stimulusRORE28_2IFCnew_2019_Jun_12_1714_443,stimulusRORE28_2IFCnew_2019_Jun_12_1714_444,True,2019_Jun_12_1714,2IFCnew,3,RORE28,
2IFCnew,72,0,72,0,-1,3,No,6.6,-1,Correct Rejection,0.700246300083,False,True,stimulusRORE28_2IFCnew_2019_Jun_12_1714_445,stimulusRORE28_2IFCnew_2019_Jun_12_1714_446,True,2019_Jun_12_1714,2IFCnew,3,RORE28,
2IFCnew,73,0,73,0,0.333734899992,5,Yes,5,-1,False Alarm,0.500685699983,False,True,stimulusRORE28_2IFCnew_2019_Jun_12_1714_447,stimulusRORE28_2IFCnew_2019_Jun_12_1714_448,True,2019_Jun_12_1714,2IFCnew,3,RORE28,
2IFCnew,74,0,74,0,0.600586200133,1,No,4.4,-1,Hit,0.535127199953,True,False,stimulusRORE28_2IFCnew_2019_Jun_12_1714_449,stimulusRORE28_2IFCnew_2019_Jun_12_1714_450,True,2019_Jun_12_1714,2IFCnew,3,RORE28,
2IFCnew,0,0,0,0,0.567894999869,2,Yes,6.6,-1,Correct Rejection,0.534085199935,False,True,stimulusRORE28_2IFCnew_2019_Jun_12_1714_451,stimulusRORE28_2IFCnew_2019_Jun_12_1714_452,True,2019_Jun_12_1714,2IFCnew,3,RORE28,
2IFCnew,1,0,1,0,0.533913100138,6,No,3,-1,Miss,0.567055199994,True,False,stimulusRORE28_2IFCnew_2019_Jun_12_1714_453,stimulusRORE28_2IFCnew_2019_Jun_12_1714_454,True,2019_Jun_12_1714,2IFCnew,3,RORE28,
2IFCnew,2,0,2,0,0.367273600074,6,No,6.6,-1,Miss,0.433966600103,True,False,stimulusRORE28_2IFCnew_2019_Jun_12_1714_455,stimulusRORE28_2IFCnew_2019_Jun_12_1714_456,True,2019_Jun_12_1714,2IFCnew,3,RORE28,
2IFCnew,3,0,3,0,0.466634199955,1,No,5,-1,Hit,0.600763399852,True,False,stimulusRORE28_2IFCnew_2019_Jun_12_1714_457,stimulusRORE28_2IFCnew_2019_Jun_12_1714_458,True,2019_Jun_12_1714,2IFCnew,3,RORE28,
2IFCnew,4,0,4,0,0.600405599922,3,No,4.4,-1,False Alarm,0.602089700056,False,True,stimulusRORE28_2IFCnew_2019_Jun_12_1714_459,stimulusRORE28_2IFCnew_2019_Jun_12_1714_460,True,2019_Jun_12_1714,2IFCnew,3,RORE28,
2IFCnew,5,0,5,0,0.534354000119,4,Yes,3.7,-1,Miss,0.566602699924,True,False,stimulusRORE28_2IFCnew_2019_Jun_12_1714_461,stimulusRORE28_2IFCnew_2019_Jun_12_1714_462,True,2019_Jun_12_1714,2IFCnew,3,RORE28,
2IFCnew,6,0,6,0,-1,3,Yes,3.7,-1,Correct Rejection,0.50077010016,False,True,stimulusRORE28_2IFCnew_2019_Jun_12_1714_463,stimulusRORE28_2IFCnew_2019_Jun_12_1714_464,True,2019_Jun_12_1714,2IFCnew,3,RORE28,
2IFCnew,7,0,7,0,0.66786679998,2,Yes,5,-1,Correct Rejection,0.601631300058,False,True,stimulusRORE28_2IFCnew_2019_Jun_12_1714_465,stimulusRORE28_2IFCnew_2019_Jun_12_1714_466,True,2019_Jun_12_1714,2IFCnew,3,RORE28,
2IFCnew,8,0,8,0,0.732832300011,1,No,1.4,-1,Hit,0.534368499881,True,False,stimulusRORE28_2IFCnew_2019_Jun_12_1714_467,stimulusRORE28_2IFCnew_2019_Jun_12_1714_468,True,2019_Jun_12_1714,2IFCnew,3,RORE28,
2IFCnew,9,0,9,0,0.699609300122,3,No,3,-1,False Alarm,0.503058200004,False,True,stimulusRORE28_2IFCnew_2019_Jun_12_1714_469,stimulusRORE28_2IFCnew_2019_Jun_12_1714_470,True,2019_Jun_12_1714,2IFCnew,3,RORE28,
2IFCnew,10,0,10,0,-1,1,No,6.6,-1,Hit,0.567171399947,True,False,stimulusRORE28_2IFCnew_2019_Jun_12_1714_471,stimulusRORE28_2IFCnew_2019_Jun_12_1714_472,True,2019_Jun_12_1714,2IFCnew,3,RORE28,
2IFCnew,11,0,11,0,-1,2,No,5.7,-1,False Alarm,0.567283799872,False,True,stimulusRORE28_2IFCnew_2019_Jun_12_1714_473,stimulusRORE28_2IFCnew_2019_Jun_12_1714_474,True,2019_Jun_12_1714,2IFCnew,3,RORE28,
2IFCnew,12,0,12,0,-1,4,No,3,-1,Miss,0.565871299943,True,False,stimulusRORE28_2IFCnew_2019_Jun_12_1714_475,stimulusRORE28_2IFCnew_2019_Jun_12_1714_476,True,2019_Jun_12_1714,2IFCnew,3,RORE28,
2IFCnew,13,0,13,0,-1,1,No,3.7,-1,Hit,0.500188800041,True,False,stimulusRORE28_2IFCnew_2019_Jun_12_1714_477,stimulusRORE28_2IFCnew_2019_Jun_12_1714_478,True,2019_Jun_12_1714,2IFCnew,3,RORE28,
2IFCnew,14,0,14,0,-1,3,No,3,-1,Correct Rejection,0.700048700208,False,True,stimulusRORE28_2IFCnew_2019_Jun_12_1714_479,stimulusRORE28_2IFCnew_2019_Jun_12_1714_480,True,2019_Jun_12_1714,2IFCnew,3,RORE28,
2IFCnew,15,0,15,0,-1,3,No,2.2,-1,Correct Rejection,0.633644800168,False,True,stimulusRORE28_2IFCnew_2019_Jun_12_1714_481,stimulusRORE28_2IFCnew_2019_Jun_12_1714_482,True,2019_Jun_12_1714,2IFCnew,3,RORE28,
2IFCnew,16,0,16,0,-1,2,No,2.2,-1,False Alarm,0.503619299969,False,True,stimulusRORE28_2IFCnew_2019_Jun_12_1714_483,stimulusRORE28_2IFCnew_2019_Jun_12_1714_484,True,2019_Jun_12_1714,2IFCnew,3,RORE28,
2IFCnew,17,0,17,0,0.900288200006,5,Yes,5,-1,False Alarm,0.566420500167,False,True,stimulusRORE28_2IFCnew_2019_Jun_12_1714_485,stimulusRORE28_2IFCnew_2019_Jun_12_1714_486,True,2019_Jun_12_1714,2IFCnew,3,RORE28,
2IFCnew,18,0,18,0,0.667493799934,5,Yes,4.4,-1,False Alarm,0.600635800045,False,True,stimulusRORE28_2IFCnew_2019_Jun_12_1714_487,stimulusRORE28_2IFCnew_2019_Jun_12_1714_488,True,2019_Jun_12_1714,2IFCnew,3,RORE28,
2IFCnew,19,0,19,0,-1,3,Yes,5,-1,Correct Rejection,0.567322599934,False,True,stimulusRORE28_2IFCnew_2019_Jun_12_1714_489,stimulusRORE28_2IFCnew_2019_Jun_12_1714_490,True,2019_Jun_12_1714,2IFCnew,3,RORE28,
2IFCnew,20,0,20,0,-1,1,Yes,6.6,-1,Hit,0.467096900102,True,False,stimulusRORE28_2IFCnew_2019_Jun_12_1714_491,stimulusRORE28_2IFCnew_2019_Jun_12_1714_492,True,2019_Jun_12_1714,2IFCnew,3,RORE28,
2IFCnew,21,0,21,0,0.601877300069,5,Yes,6.6,-1,False Alarm,0.564520699903,False,True,stimulusRORE28_2IFCnew_2019_Jun_12_1714_493,stimulusRORE28_2IFCnew_2019_Jun_12_1714_494,True,2019_Jun_12_1714,2IFCnew,3,RORE28,
2IFCnew,22,0,22,0,-1,1,Yes,3.7,-1,Hit,0.533313499996,True,False,stimulusRORE28_2IFCnew_2019_Jun_12_1714_495,stimulusRORE28_2IFCnew_2019_Jun_12_1714_496,True,2019_Jun_12_1714,2IFCnew,3,RORE28,
2IFCnew,23,0,23,0,-1,3,Yes,5.7,-1,Correct Rejection,0.533631700091,False,True,stimulusRORE28_2IFCnew_2019_Jun_12_1714_497,stimulusRORE28_2IFCnew_2019_Jun_12_1714_498,True,2019_Jun_12_1714,2IFCnew,3,RORE28,
2IFCnew,24,0,24,0,-1,1,Yes,1.4,-1,Hit,0.433873199858,True,False,stimulusRORE28_2IFCnew_2019_Jun_12_1714_499,stimulusRORE28_2IFCnew_2019_Jun_12_1714_500,True,2019_Jun_12_1714,2IFCnew,3,RORE28,
2IFCnew,25,0,25,0,-1,1,Yes,5.7,-1,Hit,0.565125599969,True,False,stimulusRORE28_2IFCnew_2019_Jun_12_1714_501,stimulusRORE28_2IFCnew_2019_Jun_12_1714_502,True,2019_Jun_12_1714,2IFCnew,3,RORE28,
2IFCnew,26,0,26,0,-1,2,Yes,3,-1,False Alarm,0.468441100093,False,True,stimulusRORE28_2IFCnew_2019_Jun_12_1714_503,stimulusRORE28_2IFCnew_2019_Jun_12_1714_504,True,2019_Jun_12_1714,2IFCnew,3,RORE28,
2IFCnew,27,0,27,0,-1,4,Yes,3,-1,Miss,0.367600300116,True,False,stimulusRORE28_2IFCnew_2019_Jun_12_1714_505,stimulusRORE28_2IFCnew_2019_Jun_12_1714_506,True,2019_Jun_12_1714,2IFCnew,3,RORE28,
2IFCnew,28,0,28,0,-1,1,Yes,3.7,-1,Hit,0.46856609988,True,False,stimulusRORE28_2IFCnew_2019_Jun_12_1714_507,stimulusRORE28_2IFCnew_2019_Jun_12_1714_508,True,2019_Jun_12_1714,2IFCnew,3,RORE28,
2IFCnew,29,0,29,0,-1,2,Yes,1.4,-1,False Alarm,0.500535500003,False,True,stimulusRORE28_2IFCnew_2019_Jun_12_1714_509,stimulusRORE28_2IFCnew_2019_Jun_12_1714_510,True,2019_Jun_12_1714,2IFCnew,3,RORE28,
2IFCnew,30,0,30,0,-1,1,Yes,4.4,-1,Hit,0.500607100083,True,False,stimulusRORE28_2IFCnew_2019_Jun_12_1714_511,stimulusRORE28_2IFCnew_2019_Jun_12_1714_512,True,2019_Jun_12_1714,2IFCnew,3,RORE28,
2IFCnew,31,0,31,0,-1,1,Yes,2.2,-1,Hit,0.634758500149,True,False,stimulusRORE28_2IFCnew_2019_Jun_12_1714_513,stimulusRORE28_2IFCnew_2019_Jun_12_1714_514,True,2019_Jun_12_1714,2IFCnew,3,RORE28,
2IFCnew,32,0,32,0,-1,1,Yes,3.7,-1,Hit,0.500033100136,True,False,stimulusRORE28_2IFCnew_2019_Jun_12_1714_515,stimulusRORE28_2IFCnew_2019_Jun_12_1714_516,True,2019_Jun_12_1714,2IFCnew,3,RORE28,
2IFCnew,33,0,33,0,-1,2,Yes,3.7,-1,False Alarm,0.567641900154,False,True,stimulusRORE28_2IFCnew_2019_Jun_12_1714_517,stimulusRORE28_2IFCnew_2019_Jun_12_1714_518,True,2019_Jun_12_1714,2IFCnew,3,RORE28,
2IFCnew,34,0,34,0,-1,3,Yes,3,-1,Correct Rejection,0.667424499989,False,True,stimulusRORE28_2IFCnew_2019_Jun_12_1714_519,stimulusRORE28_2IFCnew_2019_Jun_12_1714_520,True,2019_Jun_12_1714,2IFCnew,3,RORE28,
2IFCnew,35,0,35,0,-1,1,Yes,1.4,-1,Hit,0.567883500131,True,False,stimulusRORE28_2IFCnew_2019_Jun_12_1714_521,stimulusRORE28_2IFCnew_2019_Jun_12_1714_522,True,2019_Jun_12_1714,2IFCnew,3,RORE28,
2IFCnew,36,0,36,0,-1,2,Yes,4.4,-1,False Alarm,0.567915899912,False,True,stimulusRORE28_2IFCnew_2019_Jun_12_1714_523,stimulusRORE28_2IFCnew_2019_Jun_12_1714_524,True,2019_Jun_12_1714,2IFCnew,3,RORE28,
2IFCnew,37,0,37,0,-1,1,Yes,5.7,-1,Hit,0.53337770002,True,False,stimulusRORE28_2IFCnew_2019_Jun_12_1714_525,stimulusRORE28_2IFCnew_2019_Jun_12_1714_526,True,2019_Jun_12_1714,2IFCnew,3,RORE28,
2IFCnew,38,0,38,0,-1,3,Yes,3.7,-1,Correct Rejection,0.76875960012,False,True,stimulusRORE28_2IFCnew_2019_Jun_12_1714_527,stimulusRORE28_2IFCnew_2019_Jun_12_1714_528,True,2019_Jun_12_1714,2IFCnew,3,RORE28,
2IFCnew,39,0,39,0,-1,1,Yes,6.6,-1,Hit,0.531009499915,True,False,stimulusRORE28_2IFCnew_2019_Jun_12_1714_529,stimulusRORE28_2IFCnew_2019_Jun_12_1714_530,True,2019_Jun_12_1714,2IFCnew,3,RORE28,
2IFCnew,40,0,40,0,0.566853099968,2,Yes,3.7,-1,Correct Rejection,0.534410100197,False,True,stimulusRORE28_2IFCnew_2019_Jun_12_1714_531,stimulusRORE28_2IFCnew_2019_Jun_12_1714_532,True,2019_Jun_12_1714,2IFCnew,3,RORE28,
2IFCnew,41,0,41,0,0.300615400076,5,Yes,4.4,-1,False Alarm,0.534564299975,False,True,stimulusRORE28_2IFCnew_2019_Jun_12_1714_533,stimulusRORE28_2IFCnew_2019_Jun_12_1714_534,True,2019_Jun_12_1714,2IFCnew,3,RORE28,
2IFCnew,42,0,42,0,0.633129799971,1,No,6.6,-1,Hit,0.533738899976,True,False,stimulusRORE28_2IFCnew_2019_Jun_12_1714_535,stimulusRORE28_2IFCnew_2019_Jun_12_1714_536,True,2019_Jun_12_1714,2IFCnew,3,RORE28,
2IFCnew,43,0,43,0,0.734176200116,1,No,4.4,-1,Hit,0.7667411,True,False,stimulusRORE28_2IFCnew_2019_Jun_12_1714_537,stimulusRORE28_2IFCnew_2019_Jun_12_1714_538,True,2019_Jun_12_1714,2IFCnew,3,RORE28,
2IFCnew,44,0,44,0,0.732863400131,1,No,2.2,-1,Hit,0.60338789993,True,False,stimulusRORE28_2IFCnew_2019_Jun_12_1714_539,stimulusRORE28_2IFCnew_2019_Jun_12_1714_540,True,2019_Jun_12_1714,2IFCnew,3,RORE28,
2IFCnew,45,0,45,0,0.733726099832,1,No,6.6,-1,Hit,0.532352000009,True,False,stimulusRORE28_2IFCnew_2019_Jun_12_1714_541,stimulusRORE28_2IFCnew_2019_Jun_12_1714_542,True,2019_Jun_12_1714,2IFCnew,3,RORE28,
2IFCnew,46,0,46,0,-1,1,No,1.4,-1,Hit,0.566986599937,True,False,stimulusRORE28_2IFCnew_2019_Jun_12_1714_543,stimulusRORE28_2IFCnew_2019_Jun_12_1714_544,True,2019_Jun_12_1714,2IFCnew,3,RORE28,
2IFCnew,47,0,47,0,0.567017700057,1,No,5,-1,Hit,0.433886300074,True,False,stimulusRORE28_2IFCnew_2019_Jun_12_1714_545,stimulusRORE28_2IFCnew_2019_Jun_12_1714_546,True,2019_Jun_12_1714,2IFCnew,3,RORE28,
2IFCnew,48,0,48,0,0.667391899973,1,No,4.4,-1,Hit,0.334146099864,True,False,stimulusRORE28_2IFCnew_2019_Jun_12_1714_547,stimulusRORE28_2IFCnew_2019_Jun_12_1714_548,True,2019_Jun_12_1714,2IFCnew,3,RORE28,
2IFCnew,49,0,49,0,0.600435800152,3,No,5.7,-1,False Alarm,0.533330900129,False,True,stimulusRORE28_2IFCnew_2019_Jun_12_1714_549,stimulusRORE28_2IFCnew_2019_Jun_12_1714_550,True,2019_Jun_12_1714,2IFCnew,3,RORE28,
2IFCnew,50,0,50,0,0.668524299981,5,Yes,5,-1,False Alarm,0.433896899922,False,True,stimulusRORE28_2IFCnew_2019_Jun_12_1714_551,stimulusRORE28_2IFCnew_2019_Jun_12_1714_552,True,2019_Jun_12_1714,2IFCnew,3,RORE28,
2IFCnew,51,0,51,0,0.700759000145,3,No,1.4,-1,False Alarm,0.63187459996,False,True,stimulusRORE28_2IFCnew_2019_Jun_12_1714_553,stimulusRORE28_2IFCnew_2019_Jun_12_1714_554,True,2019_Jun_12_1714,2IFCnew,3,RORE28,
2IFCnew,52,0,52,0,0.501532400027,2,Yes,5,-1,Correct Rejection,0.634098300012,False,True,stimulusRORE28_2IFCnew_2019_Jun_12_1714_555,stimulusRORE28_2IFCnew_2019_Jun_12_1714_556,True,2019_Jun_12_1714,2IFCnew,3,RORE28,
2IFCnew,53,0,53,0,0.565892199986,4,Yes,6.6,-1,Miss,0.733508599922,True,False,stimulusRORE28_2IFCnew_2019_Jun_12_1714_557,stimulusRORE28_2IFCnew_2019_Jun_12_1714_558,True,2019_Jun_12_1714,2IFCnew,3,RORE28,
2IFCnew,54,0,54,0,-1,1,Yes,5.7,-1,Hit,0.667459600139,True,False,stimulusRORE28_2IFCnew_2019_Jun_12_1714_559,stimulusRORE28_2IFCnew_2019_Jun_12_1714_560,True,2019_Jun_12_1714,2IFCnew,3,RORE28,
2IFCnew,55,0,55,0,0.500841999892,2,Yes,5.7,-1,Correct Rejection,0.601543599973,False,True,stimulusRORE28_2IFCnew_2019_Jun_12_1714_561,stimulusRORE28_2IFCnew_2019_Jun_12_1714_562,True,2019_Jun_12_1714,2IFCnew,3,RORE28,
2IFCnew,56,0,56,0,0.568896000041,5,Yes,2.2,-1,False Alarm,0.500724700047,False,True,stimulusRORE28_2IFCnew_2019_Jun_12_1714_563,stimulusRORE28_2IFCnew_2019_Jun_12_1714_564,True,2019_Jun_12_1714,2IFCnew,3,RORE28,
2IFCnew,57,0,57,0,0.368122000014,2,Yes,6.6,-1,Correct Rejection,0.466881100088,False,True,stimulusRORE28_2IFCnew_2019_Jun_12_1714_565,stimulusRORE28_2IFCnew_2019_Jun_12_1714_566,True,2019_Jun_12_1714,2IFCnew,3,RORE28,
2IFCnew,58,0,58,0,0.501209799899,5,Yes,2.2,-1,False Alarm,0.669016700005,False,True,stimulusRORE28_2IFCnew_2019_Jun_12_1714_567,stimulusRORE28_2IFCnew_2019_Jun_12_1714_568,True,2019_Jun_12_1714,2IFCnew,3,RORE28,
2IFCnew,59,0,59,0,0.400190100074,2,Yes,5.7,-1,Correct Rejection,0.567381999921,False,True,stimulusRORE28_2IFCnew_2019_Jun_12_1714_569,stimulusRORE28_2IFCnew_2019_Jun_12_1714_570,True,2019_Jun_12_1714,2IFCnew,3,RORE28,
2IFCnew,60,0,60,0,0.499981699977,1,No,5,-1,Hit,0.501168099931,True,False,stimulusRORE28_2IFCnew_2019_Jun_12_1714_571,stimulusRORE28_2IFCnew_2019_Jun_12_1714_572,True,2019_Jun_12_1714,2IFCnew,3,RORE28,
2IFCnew,61,0,61,0,0.467146599898,2,Yes,1.4,-1,Correct Rejection,0.534778999863,False,True,stimulusRORE28_2IFCnew_2019_Jun_12_1714_573,stimulusRORE28_2IFCnew_2019_Jun_12_1714_574,True,2019_Jun_12_1714,2IFCnew,3,RORE28,
2IFCnew,62,0,62,0,0.5680629001,1,No,6.6,-1,Hit,0.53400370013,True,False,stimulusRORE28_2IFCnew_2019_Jun_12_1714_575,stimulusRORE28_2IFCnew_2019_Jun_12_1714_576,True,2019_Jun_12_1714,2IFCnew,3,RORE28,
2IFCnew,63,0,63,0,0.500071800081,2,Yes,4.4,-1,Correct Rejection,0.600473599974,False,True,stimulusRORE28_2IFCnew_2019_Jun_12_1714_577,stimulusRORE28_2IFCnew_2019_Jun_12_1714_578,True,2019_Jun_12_1714,2IFCnew,3,RORE28,
2IFCnew,64,0,64,0,0.50043549994,2,Yes,2.2,-1,Correct Rejection,0.570567399962,False,True,stimulusRORE28_2IFCnew_2019_Jun_12_1714_579,stimulusRORE28_2IFCnew_2019_Jun_12_1714_580,True,2019_Jun_12_1714,2IFCnew,3,RORE28,
2IFCnew,65,0,65,0,0.500317400089,1,No,3,-1,Hit,0.566381599987,True,False,stimulusRORE28_2IFCnew_2019_Jun_12_1714_581,stimulusRORE28_2IFCnew_2019_Jun_12_1714_582,True,2019_Jun_12_1714,2IFCnew,3,RORE28,
2IFCnew,66,0,66,0,0.500436099945,1,No,5,-1,Hit,0.501423799898,True,False,stimulusRORE28_2IFCnew_2019_Jun_12_1714_583,stimulusRORE28_2IFCnew_2019_Jun_12_1714_584,True,2019_Jun_12_1714,2IFCnew,3,RORE28,
2IFCnew,67,0,67,0,0.467219099868,5,Yes,4.4,-1,False Alarm,0.634008100023,False,True,stimulusRORE28_2IFCnew_2019_Jun_12_1714_585,stimulusRORE28_2IFCnew_2019_Jun_12_1714_586,True,2019_Jun_12_1714,2IFCnew,3,RORE28,
2IFCnew,68,0,68,0,0.668291400187,6,No,3,-1,Miss,0.532977499999,True,False,stimulusRORE28_2IFCnew_2019_Jun_12_1714_587,stimulusRORE28_2IFCnew_2019_Jun_12_1714_588,True,2019_Jun_12_1714,2IFCnew,3,RORE28,
2IFCnew,69,0,69,0,0.865917499876,7,Yes,2.2,-1,Hit,0.502295600018,True,False,stimulusRORE28_2IFCnew_2019_Jun_12_1714_589,stimulusRORE28_2IFCnew_2019_Jun_12_1714_590,True,2019_Jun_12_1714,2IFCnew,3,RORE28,
2IFCnew,70,0,70,0,0.633536000038,5,Yes,3.7,-1,False Alarm,0.601725500077,False,True,stimulusRORE28_2IFCnew_2019_Jun_12_1714_591,stimulusRORE28_2IFCnew_2019_Jun_12_1714_592,True,2019_Jun_12_1714,2IFCnew,3,RORE28,
2IFCnew,71,0,71,0,0.434143699938,2,Yes,6.6,-1,Correct Rejection,0.434261000017,False,True,stimulusRORE28_2IFCnew_2019_Jun_12_1714_593,stimulusRORE28_2IFCnew_2019_Jun_12_1714_594,True,2019_Jun_12_1714,2IFCnew,3,RORE28,
2IFCnew,72,0,72,0,0.501607999904,2,Yes,4.4,-1,Correct Rejection,0.500258299988,False,True,stimulusRORE28_2IFCnew_2019_Jun_12_1714_595,stimulusRORE28_2IFCnew_2019_Jun_12_1714_596,True,2019_Jun_12_1714,2IFCnew,3,RORE28,
2IFCnew,73,0,73,0,-1,1,Yes,4.4,-1,Hit,0.534299000166,True,False,stimulusRORE28_2IFCnew_2019_Jun_12_1714_597,stimulusRORE28_2IFCnew_2019_Jun_12_1714_598,True,2019_Jun_12_1714,2IFCnew,3,RORE28,
2IFCnew,74,0,74,0,-1,1,Yes,3.7,-1,Hit,0.533950999845,True,False,stimulusRORE28_2IFCnew_2019_Jun_12_1714_599,stimulusRORE28_2IFCnew_2019_Jun_12_1714_600,True,2019_Jun_12_1714,2IFCnew,3,RORE28,
2IFCnew,0,0,0,0,0.733826200012,8,No,5.7,-1,Correct Rejection,0.468080699909,False,True,stimulusRORE28_2IFCnew_2019_Jun_12_1714_601,stimulusRORE28_2IFCnew_2019_Jun_12_1714_602,True,2019_Jun_12_1714,2IFCnew,3,RORE28,
2IFCnew,1,0,1,0,0.533207400003,2,Yes,5,-1,Correct Rejection,0.600609099958,False,True,stimulusRORE28_2IFCnew_2019_Jun_12_1714_603,stimulusRORE28_2IFCnew_2019_Jun_12_1714_604,True,2019_Jun_12_1714,2IFCnew,3,RORE28,
2IFCnew,2,0,2,0,-1,1,Yes,6.6,-1,Hit,0.602039200021,True,False,stimulusRORE28_2IFCnew_2019_Jun_12_1714_605,stimulusRORE28_2IFCnew_2019_Jun_12_1714_606,True,2019_Jun_12_1714,2IFCnew,3,RORE28,
2IFCnew,3,0,3,0,0.664529900067,3,No,5.7,-1,False Alarm,0.567731299903,False,True,stimulusRORE28_2IFCnew_2019_Jun_12_1714_607,stimulusRORE28_2IFCnew_2019_Jun_12_1714_608,True,2019_Jun_12_1714,2IFCnew,3,RORE28,
2IFCnew,4,0,4,0,-1,2,No,6.6,-1,False Alarm,0.500770199811,False,True,stimulusRORE28_2IFCnew_2019_Jun_12_1714_609,stimulusRORE28_2IFCnew_2019_Jun_12_1714_610,True,2019_Jun_12_1714,2IFCnew,3,RORE28,
2IFCnew,5,0,5,0,0.667911699973,2,Yes,6.6,-1,Correct Rejection,0.566934700124,False,True,stimulusRORE28_2IFCnew_2019_Jun_12_1714_611,stimulusRORE28_2IFCnew_2019_Jun_12_1714_612,True,2019_Jun_12_1714,2IFCnew,3,RORE28,
2IFCnew,6,0,6,0,0.533482400002,2,Yes,5.7,-1,Correct Rejection,0.533944200026,False,True,stimulusRORE28_2IFCnew_2019_Jun_12_1714_613,stimulusRORE28_2IFCnew_2019_Jun_12_1714_614,True,2019_Jun_12_1714,2IFCnew,3,RORE28,
2IFCnew,7,0,7,0,0.667465199949,1,No,5.7,-1,Hit,0.533966700081,True,False,stimulusRORE28_2IFCnew_2019_Jun_12_1714_615,stimulusRORE28_2IFCnew_2019_Jun_12_1714_616,True,2019_Jun_12_1714,2IFCnew,3,RORE28,
2IFCnew,8,0,8,0,0.500693900045,7,Yes,1.4,-1,Hit,0.501304500038,True,False,stimulusRORE28_2IFCnew_2019_Jun_12_1714_617,stimulusRORE28_2IFCnew_2019_Jun_12_1714_618,True,2019_Jun_12_1714,2IFCnew,3,RORE28,
2IFCnew,9,0,9,0,0.433712200029,2,Yes,3.7,-1,Correct Rejection,0.668038400123,False,True,stimulusRORE28_2IFCnew_2019_Jun_12_1714_619,stimulusRORE28_2IFCnew_2019_Jun_12_1714_620,True,2019_Jun_12_1714,2IFCnew,3,RORE28,
2IFCnew,10,0,10,0,0.500865099952,4,Yes,2.2,-1,Miss,0.601172700059,True,False,stimulusRORE28_2IFCnew_2019_Jun_12_1714_621,stimulusRORE28_2IFCnew_2019_Jun_12_1714_622,True,2019_Jun_12_1714,2IFCnew,3,RORE28,
2IFCnew,11,0,11,0,0.667388299946,7,Yes,4.4,-1,Hit,0.56807420007,True,False,stimulusRORE28_2IFCnew_2019_Jun_12_1714_623,stimulusRORE28_2IFCnew_2019_Jun_12_1714_624,True,2019_Jun_12_1714,2IFCnew,3,RORE28,
2IFCnew,12,0,12,0,-1,4,Yes,2.2,-1,Miss,0.634837199934,True,False,stimulusRORE28_2IFCnew_2019_Jun_12_1714_625,stimulusRORE28_2IFCnew_2019_Jun_12_1714_626,True,2019_Jun_12_1714,2IFCnew,3,RORE28,
2IFCnew,13,0,13,0,-1,2,Yes,4.4,-1,False Alarm,0.467010099906,False,True,stimulusRORE28_2IFCnew_2019_Jun_12_1714_627,stimulusRORE28_2IFCnew_2019_Jun_12_1714_628,True,2019_Jun_12_1714,2IFCnew,3,RORE28,
2IFCnew,14,0,14,0,0.400446299929,5,Yes,5.7,-1,False Alarm,0.500489100115,False,True,stimulusRORE28_2IFCnew_2019_Jun_12_1714_629,stimulusRORE28_2IFCnew_2019_Jun_12_1714_630,True,2019_Jun_12_1714,2IFCnew,3,RORE28,
2IFCnew,15,0,15,0,-1,3,Yes,1.4,-1,Correct Rejection,0.566993700108,False,True,stimulusRORE28_2IFCnew_2019_Jun_12_1714_631,stimulusRORE28_2IFCnew_2019_Jun_12_1714_632,True,2019_Jun_12_1714,2IFCnew,3,RORE28,
2IFCnew,16,0,16,0,-1,1,Yes,5,-1,Hit,0.600664099911,True,False,stimulusRORE28_2IFCnew_2019_Jun_12_1714_633,stimulusRORE28_2IFCnew_2019_Jun_12_1714_634,True,2019_Jun_12_1714,2IFCnew,3,RORE28,
2IFCnew,17,0,17,0,-1,1,Yes,6.6,-1,Hit,0.735430599889,True,False,stimulusRORE28_2IFCnew_2019_Jun_12_1714_635,stimulusRORE28_2IFCnew_2019_Jun_12_1714_636,True,2019_Jun_12_1714,2IFCnew,3,RORE28,
2IFCnew,18,0,18,0,-1,1,Yes,2.2,-1,Hit,0.770854500122,True,False,stimulusRORE28_2IFCnew_2019_Jun_12_1714_637,stimulusRORE28_2IFCnew_2019_Jun_12_1714_638,True,2019_Jun_12_1714,2IFCnew,3,RORE28,
2IFCnew,19,0,19,0,-1,1,Yes,5,-1,Hit,0.533645599848,True,False,stimulusRORE28_2IFCnew_2019_Jun_12_1714_639,stimulusRORE28_2IFCnew_2019_Jun_12_1714_640,True,2019_Jun_12_1714,2IFCnew,3,RORE28,
2IFCnew,20,0,20,0,-1,2,Yes,2.2,-1,False Alarm,0.634155599866,False,True,stimulusRORE28_2IFCnew_2019_Jun_12_1714_641,stimulusRORE28_2IFCnew_2019_Jun_12_1714_642,True,2019_Jun_12_1714,2IFCnew,3,RORE28,
2IFCnew,21,0,21,0,-1,3,Yes,5,-1,Correct Rejection,0.800642499933,False,True,stimulusRORE28_2IFCnew_2019_Jun_12_1714_643,stimulusRORE28_2IFCnew_2019_Jun_12_1714_644,True,2019_Jun_12_1714,2IFCnew,3,RORE28,
2IFCnew,22,0,22,0,-1,1,Yes,5,-1,Hit,0.500732399989,True,False,stimulusRORE28_2IFCnew_2019_Jun_12_1714_645,stimulusRORE28_2IFCnew_2019_Jun_12_1714_646,True,2019_Jun_12_1714,2IFCnew,3,RORE28,
2IFCnew,23,0,23,0,-1,2,Yes,4.4,-1,False Alarm,0.601613499923,False,True,stimulusRORE28_2IFCnew_2019_Jun_12_1714_647,stimulusRORE28_2IFCnew_2019_Jun_12_1714_648,True,2019_Jun_12_1714,2IFCnew,3,RORE28,
2IFCnew,24,0,24,0,0.800913000014,6,No,1.4,-1,Miss,0.800901199924,True,False,stimulusRORE28_2IFCnew_2019_Jun_12_1714_649,stimulusRORE28_2IFCnew_2019_Jun_12_1714_650,True,2019_Jun_12_1714,2IFCnew,3,RORE28,
2IFCnew,25,0,25,0,-1,1,No,5.7,-1,Hit,0.534118799958,True,False,stimulusRORE28_2IFCnew_2019_Jun_12_1714_651,stimulusRORE28_2IFCnew_2019_Jun_12_1714_652,True,2019_Jun_12_1714,2IFCnew,3,RORE28,
2IFCnew,26,0,26,0,0.534891400021,5,Yes,3,-1,False Alarm,0.73413960007,False,True,stimulusRORE28_2IFCnew_2019_Jun_12_1714_653,stimulusRORE28_2IFCnew_2019_Jun_12_1714_654,True,2019_Jun_12_1714,2IFCnew,3,RORE28,
2IFCnew,27,0,27,0,0.767291099997,2,Yes,6.6,-1,Correct Rejection,0.700653099921,False,True,stimulusRORE28_2IFCnew_2019_Jun_12_1714_655,stimulusRORE28_2IFCnew_2019_Jun_12_1714_656,True,2019_Jun_12_1714,2IFCnew,3,RORE28,
2IFCnew,28,0,28,0,-1,2,Yes,5,-1,False Alarm,0.667180699995,False,True,stimulusRORE28_2IFCnew_2019_Jun_12_1714_657,stimulusRORE28_2IFCnew_2019_Jun_12_1714_658,True,2019_Jun_12_1714,2IFCnew,3,RORE28,
2IFCnew,29,0,29,0,0.632985299919,2,Yes,1.4,-1,Correct Rejection,0.868135199882,False,True,stimulusRORE28_2IFCnew_2019_Jun_12_1714_659,stimulusRORE28_2IFCnew_2019_Jun_12_1714_660,True,2019_Jun_12_1714,2IFCnew,3,RORE28,
2IFCnew,30,0,30,0,-1,1,Yes,5,-1,Hit,0.56724340003,True,False,stimulusRORE28_2IFCnew_2019_Jun_12_1714_661,stimulusRORE28_2IFCnew_2019_Jun_12_1714_662,True,2019_Jun_12_1714,2IFCnew,3,RORE28,
2IFCnew,31,0,31,0,-1,1,Yes,3.7,-1,Hit,0.500603999943,True,False,stimulusRORE28_2IFCnew_2019_Jun_12_1714_663,stimulusRORE28_2IFCnew_2019_Jun_12_1714_664,True,2019_Jun_12_1714,2IFCnew,3,RORE28,
2IFCnew,32,0,32,0,-1,3,Yes,3,-1,Correct Rejection,0.601513300091,False,True,stimulusRORE28_2IFCnew_2019_Jun_12_1714_665,stimulusRORE28_2IFCnew_2019_Jun_12_1714_666,True,2019_Jun_12_1714,2IFCnew,3,RORE28,
2IFCnew,33,0,33,0,-1,2,Yes,3,-1,False Alarm,0.467542700004,False,True,stimulusRORE28_2IFCnew_2019_Jun_12_1714_667,stimulusRORE28_2IFCnew_2019_Jun_12_1714_668,True,2019_Jun_12_1714,2IFCnew,3,RORE28,
2IFCnew,34,0,34,0,-1,1,Yes,4.4,-1,Hit,0.56664850004,True,False,stimulusRORE28_2IFCnew_2019_Jun_12_1714_669,stimulusRORE28_2IFCnew_2019_Jun_12_1714_670,True,2019_Jun_12_1714,2IFCnew,3,RORE28,
2IFCnew,35,0,35,0,-1,4,Yes,2.2,-1,Miss,0.533383900067,True,False,stimulusRORE28_2IFCnew_2019_Jun_12_1714_671,stimulusRORE28_2IFCnew_2019_Jun_12_1714_672,True,2019_Jun_12_1714,2IFCnew,3,RORE28,
2IFCnew,36,0,36,0,-1,2,Yes,2.2,-1,False Alarm,0.534296000144,False,True,stimulusRORE28_2IFCnew_2019_Jun_12_1714_673,stimulusRORE28_2IFCnew_2019_Jun_12_1714_674,True,2019_Jun_12_1714,2IFCnew,3,RORE28,
2IFCnew,37,0,37,0,-1,3,Yes,1.4,-1,Correct Rejection,0.733889400028,False,True,stimulusRORE28_2IFCnew_2019_Jun_12_1714_675,stimulusRORE28_2IFCnew_2019_Jun_12_1714_676,True,2019_Jun_12_1714,2IFCnew,3,RORE28,
2IFCnew,38,0,38,0,-1,1,Yes,5.7,-1,Hit,0.533826800063,True,False,stimulusRORE28_2IFCnew_2019_Jun_12_1714_677,stimulusRORE28_2IFCnew_2019_Jun_12_1714_678,True,2019_Jun_12_1714,2IFCnew,3,RORE28,
2IFCnew,39,0,39,0,-1,2,Yes,5.7,-1,False Alarm,0.499674800085,False,True,stimulusRORE28_2IFCnew_2019_Jun_12_1714_679,stimulusRORE28_2IFCnew_2019_Jun_12_1714_680,True,2019_Jun_12_1714,2IFCnew,3,RORE28,
2IFCnew,40,0,40,0,-1,1,Yes,3,-1,Hit,0.534284000052,True,False,stimulusRORE28_2IFCnew_2019_Jun_12_1714_681,stimulusRORE28_2IFCnew_2019_Jun_12_1714_682,True,2019_Jun_12_1714,2IFCnew,3,RORE28,
2IFCnew,41,0,41,0,-1,2,Yes,5,-1,False Alarm,0.601305800024,False,True,stimulusRORE28_2IFCnew_2019_Jun_12_1714_683,stimulusRORE28_2IFCnew_2019_Jun_12_1714_684,True,2019_Jun_12_1714,2IFCnew,3,RORE28,
2IFCnew,42,0,42,0,-1,2,Yes,5,-1,False Alarm,0.433666400146,False,True,stimulusRORE28_2IFCnew_2019_Jun_12_1714_685,stimulusRORE28_2IFCnew_2019_Jun_12_1714_686,True,2019_Jun_12_1714,2IFCnew,3,RORE28,
2IFCnew,43,0,43,0,-1,4,Yes,5.7,-1,Miss,0.69969329983,True,False,stimulusRORE28_2IFCnew_2019_Jun_12_1714_687,stimulusRORE28_2IFCnew_2019_Jun_12_1714_688,True,2019_Jun_12_1714,2IFCnew,3,RORE28,
2IFCnew,44,0,44,0,-1,1,Yes,4.4,-1,Hit,0.599510000087,True,False,stimulusRORE28_2IFCnew_2019_Jun_12_1714_689,stimulusRORE28_2IFCnew_2019_Jun_12_1714_690,True,2019_Jun_12_1714,2IFCnew,3,RORE28,
2IFCnew,45,0,45,0,-1,1,Yes,3.7,-1,Hit,0.533785699867,True,False,stimulusRORE28_2IFCnew_2019_Jun_12_1714_691,stimulusRORE28_2IFCnew_2019_Jun_12_1714_692,True,2019_Jun_12_1714,2IFCnew,3,RORE28,
2IFCnew,46,0,46,0,-1,2,Yes,2.2,-1,False Alarm,0.535457300022,False,True,stimulusRORE28_2IFCnew_2019_Jun_12_1714_693,stimulusRORE28_2IFCnew_2019_Jun_12_1714_694,True,2019_Jun_12_1714,2IFCnew,3,RORE28,
2IFCnew,47,0,47,0,-1,2,Yes,3,-1,False Alarm,0.53402040014,False,True,stimulusRORE28_2IFCnew_2019_Jun_12_1714_695,stimulusRORE28_2IFCnew_2019_Jun_12_1714_696,True,2019_Jun_12_1714,2IFCnew,3,RORE28,
2IFCnew,48,0,48,0,-1,3,Yes,6.6,-1,Correct Rejection,0.465209500166,False,True,stimulusRORE28_2IFCnew_2019_Jun_12_1714_697,stimulusRORE28_2IFCnew_2019_Jun_12_1714_698,True,2019_Jun_12_1714,2IFCnew,3,RORE28,
2IFCnew,49,0,49,0,-1,1,Yes,3.7,-1,Hit,0.500669300091,True,False,stimulusRORE28_2IFCnew_2019_Jun_12_1714_699,stimulusRORE28_2IFCnew_2019_Jun_12_1714_700,True,2019_Jun_12_1714,2IFCnew,3,RORE28,
2IFCnew,50,0,50,0,-1,2,Yes,1.4,-1,False Alarm,0.59957630001,False,True,stimulusRORE28_2IFCnew_2019_Jun_12_1714_701,stimulusRORE28_2IFCnew_2019_Jun_12_1714_702,True,2019_Jun_12_1714,2IFCnew,3,RORE28,
2IFCnew,51,0,51,0,-1,4,Yes,5.7,-1,Miss,0.601095100166,True,False,stimulusRORE28_2IFCnew_2019_Jun_12_1714_703,stimulusRORE28_2IFCnew_2019_Jun_12_1714_704,True,2019_Jun_12_1714,2IFCnew,3,RORE28,
2IFCnew,52,0,52,0,-1,4,Yes,3,-1,Miss,0.769665800035,True,False,stimulusRORE28_2IFCnew_2019_Jun_12_1714_705,stimulusRORE28_2IFCnew_2019_Jun_12_1714_706,True,2019_Jun_12_1714,2IFCnew,3,RORE28,
2IFCnew,53,0,53,0,-1,3,Yes,3,-1,Correct Rejection,0.567811599933,False,True,stimulusRORE28_2IFCnew_2019_Jun_12_1714_707,stimulusRORE28_2IFCnew_2019_Jun_12_1714_708,True,2019_Jun_12_1714,2IFCnew,3,RORE28,
2IFCnew,54,0,54,0,-1,1,Yes,5.7,-1,Hit,0.500313499942,True,False,stimulusRORE28_2IFCnew_2019_Jun_12_1714_709,stimulusRORE28_2IFCnew_2019_Jun_12_1714_710,True,2019_Jun_12_1714,2IFCnew,3,RORE28,
2IFCnew,55,0,55,0,-1,4,Yes,5,-1,Miss,0.533820700133,True,False,stimulusRORE28_2IFCnew_2019_Jun_12_1714_711,stimulusRORE28_2IFCnew_2019_Jun_12_1714_712,True,2019_Jun_12_1714,2IFCnew,3,RORE28,
2IFCnew,56,0,56,0,-1,3,Yes,5,-1,Correct Rejection,0.533734499943,False,True,stimulusRORE28_2IFCnew_2019_Jun_12_1714_713,stimulusRORE28_2IFCnew_2019_Jun_12_1714_714,True,2019_Jun_12_1714,2IFCnew,3,RORE28,
2IFCnew,57,0,57,0,-1,3,Yes,3,-1,Correct Rejection,0.50070809992,False,True,stimulusRORE28_2IFCnew_2019_Jun_12_1714_715,stimulusRORE28_2IFCnew_2019_Jun_12_1714_716,True,2019_Jun_12_1714,2IFCnew,3,RORE28,
2IFCnew,58,0,58,0,0.53403780004,1,No,2.2,-1,Hit,0.567443499807,True,False,stimulusRORE28_2IFCnew_2019_Jun_12_1714_717,stimulusRORE28_2IFCnew_2019_Jun_12_1714_718,True,2019_Jun_12_1714,2IFCnew,3,RORE28,
2IFCnew,59,0,59,0,0.533484400017,2,Yes,3,-1,Correct Rejection,0.702340899967,False,True,stimulusRORE28_2IFCnew_2019_Jun_12_1714_719,stimulusRORE28_2IFCnew_2019_Jun_12_1714_720,True,2019_Jun_12_1714,2IFCnew,3,RORE28,
2IFCnew,60,0,60,0,-1,2,Yes,3,-1,False Alarm,0.600895399926,False,True,stimulusRORE28_2IFCnew_2019_Jun_12_1714_721,stimulusRORE28_2IFCnew_2019_Jun_12_1714_722,True,2019_Jun_12_1714,2IFCnew,3,RORE28,
2IFCnew,61,0,61,0,-1,3,Yes,1.4,-1,Correct Rejection,0.533120700158,False,True,stimulusRORE28_2IFCnew_2019_Jun_12_1714_723,stimulusRORE28_2IFCnew_2019_Jun_12_1714_724,True,2019_Jun_12_1714,2IFCnew,3,RORE28,
2IFCnew,62,0,62,0,0.601422999986,5,Yes,5,-1,False Alarm,0.534122799989,False,True,stimulusRORE28_2IFCnew_2019_Jun_12_1714_725,stimulusRORE28_2IFCnew_2019_Jun_12_1714_726,True,2019_Jun_12_1714,2IFCnew,3,RORE28,
2IFCnew,63,0,63,0,-1,1,Yes,1.4,-1,Hit,0.601872799918,True,False,stimulusRORE28_2IFCnew_2019_Jun_12_1714_727,stimulusRORE28_2IFCnew_2019_Jun_12_1714_728,True,2019_Jun_12_1714,2IFCnew,3,RORE28,
2IFCnew,64,0,64,0,0.633908600081,5,Yes,6.6,-1,False Alarm,0.500523200026,False,True,stimulusRORE28_2IFCnew_2019_Jun_12_1714_729,stimulusRORE28_2IFCnew_2019_Jun_12_1714_730,True,2019_Jun_12_1714,2IFCnew,3,RORE28,
2IFCnew,65,0,65,0,-1,2,Yes,3.7,-1,False Alarm,0.534138099989,False,True,stimulusRORE28_2IFCnew_2019_Jun_12_1714_731,stimulusRORE28_2IFCnew_2019_Jun_12_1714_732,True,2019_Jun_12_1714,2IFCnew,3,RORE28,
2IFCnew,66,0,66,0,-1,3,Yes,3,-1,Correct Rejection,0.434865699848,False,True,stimulusRORE28_2IFCnew_2019_Jun_12_1714_733,stimulusRORE28_2IFCnew_2019_Jun_12_1714_734,True,2019_Jun_12_1714,2IFCnew,3,RORE28,
2IFCnew,67,0,67,0,-1,1,Yes,3,-1,Hit,0.566755400039,True,False,stimulusRORE28_2IFCnew_2019_Jun_12_1714_735,stimulusRORE28_2IFCnew_2019_Jun_12_1714_736,True,2019_Jun_12_1714,2IFCnew,3,RORE28,
2IFCnew,68,0,68,0,-1,2,Yes,1.4,-1,False Alarm,0.50061280001,False,True,stimulusRORE28_2IFCnew_2019_Jun_12_1714_737,stimulusRORE28_2IFCnew_2019_Jun_12_1714_738,True,2019_Jun_12_1714,2IFCnew,3,RORE28,
2IFCnew,69,0,69,0,-1,3,Yes,2.2,-1,Correct Rejection,0.567062800052,False,True,stimulusRORE28_2IFCnew_2019_Jun_12_1714_739,stimulusRORE28_2IFCnew_2019_Jun_12_1714_740,True,2019_Jun_12_1714,2IFCnew,3,RORE28,
2IFCnew,70,0,70,0,0.73418969987,2,Yes,4.4,-1,Correct Rejection,0.533593899803,False,True,stimulusRORE28_2IFCnew_2019_Jun_12_1714_741,stimulusRORE28_2IFCnew_2019_Jun_12_1714_742,True,2019_Jun_12_1714,2IFCnew,3,RORE28,
2IFCnew,71,0,71,0,0.467248999979,5,Yes,2.2,-1,False Alarm,0.700679400004,False,True,stimulusRORE28_2IFCnew_2019_Jun_12_1714_743,stimulusRORE28_2IFCnew_2019_Jun_12_1714_744,True,2019_Jun_12_1714,2IFCnew,3,RORE28,
2IFCnew,72,0,72,0,-1,1,Yes,4.4,-1,Hit,0.501658299938,True,False,stimulusRORE28_2IFCnew_2019_Jun_12_1714_745,stimulusRORE28_2IFCnew_2019_Jun_12_1714_746,True,2019_Jun_12_1714,2IFCnew,3,RORE28,
2IFCnew,73,0,73,0,0.69931899989,5,Yes,2.2,-1,False Alarm,0.601709000068,False,True,stimulusRORE28_2IFCnew_2019_Jun_12_1714_747,stimulusRORE28_2IFCnew_2019_Jun_12_1714_748,True,2019_Jun_12_1714,2IFCnew,3,RORE28,
2IFCnew,74,0,74,0,-1,1,Yes,6.6,-1,Hit,0.633586700074,True,False,stimulusRORE28_2IFCnew_2019_Jun_12_1714_749,stimulusRORE28_2IFCnew_2019_Jun_12_1714_750,True,2019_Jun_12_1714,2IFCnew,3,RORE28,
2IFCnew,0,0,0,0,-1,2,Yes,5,-1,False Alarm,0.600779900094,False,True,stimulusRORE28_2IFCnew_2019_Jun_12_1714_751,stimulusRORE28_2IFCnew_2019_Jun_12_1714_752,True,2019_Jun_12_1714,2IFCnew,3,RORE28,
2IFCnew,1,0,1,0,0.534728399944,8,No,3,-1,Correct Rejection,0.235811399994,False,True,stimulusRORE28_2IFCnew_2019_Jun_12_1714_753,stimulusRORE28_2IFCnew_2019_Jun_12_1714_754,True,2019_Jun_12_1714,2IFCnew,3,RORE28,
2IFCnew,2,0,2,0,-1,3,No,3.7,-1,Correct Rejection,0.668133300031,False,True,stimulusRORE28_2IFCnew_2019_Jun_12_1714_755,stimulusRORE28_2IFCnew_2019_Jun_12_1714_756,True,2019_Jun_12_1714,2IFCnew,3,RORE28,
2IFCnew,3,0,3,0,-1,1,No,4.4,-1,Hit,0.500528000062,True,False,stimulusRORE28_2IFCnew_2019_Jun_12_1714_757,stimulusRORE28_2IFCnew_2019_Jun_12_1714_758,True,2019_Jun_12_1714,2IFCnew,3,RORE28,
2IFCnew,4,0,4,0,-1,1,No,4.4,-1,Hit,0.532573299948,True,False,stimulusRORE28_2IFCnew_2019_Jun_12_1714_759,stimulusRORE28_2IFCnew_2019_Jun_12_1714_760,True,2019_Jun_12_1714,2IFCnew,3,RORE28,
2IFCnew,5,0,5,0,0.600430799881,5,Yes,4.4,-1,False Alarm,0.469244800042,False,True,stimulusRORE28_2IFCnew_2019_Jun_12_1714_761,stimulusRORE28_2IFCnew_2019_Jun_12_1714_762,True,2019_Jun_12_1714,2IFCnew,3,RORE28,
2IFCnew,6,0,6,0,0.767332199961,8,No,2.2,-1,Correct Rejection,0.60077709984,False,True,stimulusRORE28_2IFCnew_2019_Jun_12_1714_763,stimulusRORE28_2IFCnew_2019_Jun_12_1714_764,True,2019_Jun_12_1714,2IFCnew,3,RORE28,
2IFCnew,7,0,7,0,-1,0,No,4.4,-1,No Answer,-1,False,True,stimulusRORE28_2IFCnew_2019_Jun_12_1714_765,stimulusRORE28_2IFCnew_2019_Jun_12_1714_766,True,2019_Jun_12_1714,2IFCnew,3,RORE28,
2IFCnew,8,0,8,0,0.600465599913,2,Yes,3.7,-1,Correct Rejection,0.0998113001697,False,True,stimulusRORE28_2IFCnew_2019_Jun_12_1714_767,stimulusRORE28_2IFCnew_2019_Jun_12_1714_768,True,2019_Jun_12_1714,2IFCnew,3,RORE28,
2IFCnew,9,0,9,0,-1,2,Yes,1.4,-1,False Alarm,0.700933600077,False,True,stimulusRORE28_2IFCnew_2019_Jun_12_1714_769,stimulusRORE28_2IFCnew_2019_Jun_12_1714_770,True,2019_Jun_12_1714,2IFCnew,3,RORE28,
2IFCnew,10,0,10,0,0.400332200108,5,Yes,5,-1,False Alarm,0.468318799976,False,True,stimulusRORE28_2IFCnew_2019_Jun_12_1714_771,stimulusRORE28_2IFCnew_2019_Jun_12_1714_772,True,2019_Jun_12_1714,2IFCnew,3,RORE28,
2IFCnew,11,0,11,0,-1,1,Yes,4.4,-1,Hit,0.566266500158,True,False,stimulusRORE28_2IFCnew_2019_Jun_12_1714_773,stimulusRORE28_2IFCnew_2019_Jun_12_1714_774,True,2019_Jun_12_1714,2IFCnew,3,RORE28,
2IFCnew,12,0,12,0,0.599840099923,3,No,2.2,-1,False Alarm,0.467449400108,False,True,stimulusRORE28_2IFCnew_2019_Jun_12_1714_775,stimulusRORE28_2IFCnew_2019_Jun_12_1714_776,True,2019_Jun_12_1714,2IFCnew,3,RORE28,
2IFCnew,13,0,13,0,0.634379100055,5,Yes,3,-1,False Alarm,0.801145900041,False,True,stimulusRORE28_2IFCnew_2019_Jun_12_1714_777,stimulusRORE28_2IFCnew_2019_Jun_12_1714_778,True,2019_Jun_12_1714,2IFCnew,3,RORE28,
2IFCnew,14,0,14,0,-1,2,Yes,4.4,-1,False Alarm,0.533997100079,False,True,stimulusRORE28_2IFCnew_2019_Jun_12_1714_779,stimulusRORE28_2IFCnew_2019_Jun_12_1714_780,True,2019_Jun_12_1714,2IFCnew,3,RORE28,
2IFCnew,15,0,15,0,-1,1,Yes,4.4,-1,Hit,0.500959400088,True,False,stimulusRORE28_2IFCnew_2019_Jun_12_1714_781,stimulusRORE28_2IFCnew_2019_Jun_12_1714_782,True,2019_Jun_12_1714,2IFCnew,3,RORE28,
2IFCnew,16,0,16,0,-1,1,Yes,6.6,-1,Hit,0.501537499949,True,False,stimulusRORE28_2IFCnew_2019_Jun_12_1714_783,stimulusRORE28_2IFCnew_2019_Jun_12_1714_784,True,2019_Jun_12_1714,2IFCnew,3,RORE28,
2IFCnew,17,0,17,0,-1,1,Yes,4.4,-1,Hit,0.533508199966,True,False,stimulusRORE28_2IFCnew_2019_Jun_12_1714_785,stimulusRORE28_2IFCnew_2019_Jun_12_1714_786,True,2019_Jun_12_1714,2IFCnew,3,RORE28,
2IFCnew,18,0,18,0,-1,0,Yes,2.2,-1,No Answer,-1,True,False,stimulusRORE28_2IFCnew_2019_Jun_12_1714_787,stimulusRORE28_2IFCnew_2019_Jun_12_1714_788,True,2019_Jun_12_1714,2IFCnew,3,RORE28,
2IFCnew,19,0,19,0,-1,2,Yes,3,-1,False Alarm,0.602204900002,False,True,stimulusRORE28_2IFCnew_2019_Jun_12_1714_789,stimulusRORE28_2IFCnew_2019_Jun_12_1714_790,True,2019_Jun_12_1714,2IFCnew,3,RORE28,
2IFCnew,20,0,20,0,-1,1,Yes,4.4,-1,Hit,0.467362999916,True,False,stimulusRORE28_2IFCnew_2019_Jun_12_1714_791,stimulusRORE28_2IFCnew_2019_Jun_12_1714_792,True,2019_Jun_12_1714,2IFCnew,3,RORE28,
2IFCnew,21,0,21,0,-1,3,Yes,6.6,-1,Correct Rejection,0.565736900084,False,True,stimulusRORE28_2IFCnew_2019_Jun_12_1714_793,stimulusRORE28_2IFCnew_2019_Jun_12_1714_794,True,2019_Jun_12_1714,2IFCnew,3,RORE28,
2IFCnew,22,0,22,0,-1,2,Yes,1.4,-1,False Alarm,0.500474800123,False,True,stimulusRORE28_2IFCnew_2019_Jun_12_1714_795,stimulusRORE28_2IFCnew_2019_Jun_12_1714_796,True,2019_Jun_12_1714,2IFCnew,3,RORE28,
2IFCnew,23,0,23,0,0.333242299967,8,No,1.4,-1,Correct Rejection,0.400365800131,False,True,stimulusRORE28_2IFCnew_2019_Jun_12_1714_797,stimulusRORE28_2IFCnew_2019_Jun_12_1714_798,True,2019_Jun_12_1714,2IFCnew,3,RORE28,
2IFCnew,24,0,24,0,-1,1,No,1.4,-1,Hit,0.534010800067,True,False,stimulusRORE28_2IFCnew_2019_Jun_12_1714_799,stimulusRORE28_2IFCnew_2019_Jun_12_1714_800,True,2019_Jun_12_1714,2IFCnew,3,RORE28,
2IFCnew,25,0,25,0,-1,1,No,2.2,-1,Hit,0.567428000038,True,False,stimulusRORE28_2IFCnew_2019_Jun_12_1714_801,stimulusRORE28_2IFCnew_2019_Jun_12_1714_802,True,2019_Jun_12_1714,2IFCnew,3,RORE28,
2IFCnew,26,0,26,0,-1,3,No,2.2,-1,Correct Rejection,0.667322299909,False,True,stimulusRORE28_2IFCnew_2019_Jun_12_1714_803,stimulusRORE28_2IFCnew_2019_Jun_12_1714_804,True,2019_Jun_12_1714,2IFCnew,3,RORE28,
2IFCnew,27,0,27,0,-1,1,No,3,-1,Hit,0.467955600005,True,False,stimulusRORE28_2IFCnew_2019_Jun_12_1714_805,stimulusRORE28_2IFCnew_2019_Jun_12_1714_806,True,2019_Jun_12_1714,2IFCnew,3,RORE28,
2IFCnew,28,0,28,0,-1,3,No,5.7,-1,Correct Rejection,0.600616199896,False,True,stimulusRORE28_2IFCnew_2019_Jun_12_1714_807,stimulusRORE28_2IFCnew_2019_Jun_12_1714_808,True,2019_Jun_12_1714,2IFCnew,3,RORE28,
2IFCnew,29,0,29,0,-1,3,No,3.7,-1,Correct Rejection,0.63416139991,False,True,stimulusRORE28_2IFCnew_2019_Jun_12_1714_809,stimulusRORE28_2IFCnew_2019_Jun_12_1714_810,True,2019_Jun_12_1714,2IFCnew,3,RORE28,
2IFCnew,30,0,30,0,0.568697399925,5,Yes,1.4,-1,False Alarm,0.633939800085,False,True,stimulusRORE28_2IFCnew_2019_Jun_12_1714_811,stimulusRORE28_2IFCnew_2019_Jun_12_1714_812,True,2019_Jun_12_1714,2IFCnew,3,RORE28,
2IFCnew,31,0,31,0,-1,2,Yes,1.4,-1,False Alarm,0.634294900112,False,True,stimulusRORE28_2IFCnew_2019_Jun_12_1714_813,stimulusRORE28_2IFCnew_2019_Jun_12_1714_814,True,2019_Jun_12_1714,2IFCnew,3,RORE28,
2IFCnew,32,0,32,0,-1,0,Yes,3.7,-1,No Answer,-1,False,True,stimulusRORE28_2IFCnew_2019_Jun_12_1714_815,stimulusRORE28_2IFCnew_2019_Jun_12_1714_816,True,2019_Jun_12_1714,2IFCnew,3,RORE28,
2IFCnew,33,0,33,0,-1,3,Yes,5.7,-1,Correct Rejection,0.46742339991,False,True,stimulusRORE28_2IFCnew_2019_Jun_12_1714_817,stimulusRORE28_2IFCnew_2019_Jun_12_1714_818,True,2019_Jun_12_1714,2IFCnew,3,RORE28,
2IFCnew,34,0,34,0,-1,1,Yes,5.7,-1,Hit,0.532208800083,True,False,stimulusRORE28_2IFCnew_2019_Jun_12_1714_819,stimulusRORE28_2IFCnew_2019_Jun_12_1714_820,True,2019_Jun_12_1714,2IFCnew,3,RORE28,
2IFCnew,35,0,35,0,-1,1,Yes,5.7,-1,Hit,0.599959400017,True,False,stimulusRORE28_2IFCnew_2019_Jun_12_1714_821,stimulusRORE28_2IFCnew_2019_Jun_12_1714_822,True,2019_Jun_12_1714,2IFCnew,3,RORE28,
2IFCnew,36,0,36,0,-1,1,Yes,6.6,-1,Hit,0.533939500106,True,False,stimulusRORE28_2IFCnew_2019_Jun_12_1714_823,stimulusRORE28_2IFCnew_2019_Jun_12_1714_824,True,2019_Jun_12_1714,2IFCnew,3,RORE28,
2IFCnew,37,0,37,0,-1,1,Yes,2.2,-1,Hit,0.434069099836,True,False,stimulusRORE28_2IFCnew_2019_Jun_12_1714_825,stimulusRORE28_2IFCnew_2019_Jun_12_1714_826,True,2019_Jun_12_1714,2IFCnew,3,RORE28,
2IFCnew,38,0,38,0,-1,2,Yes,4.4,-1,False Alarm,0.634145299904,False,True,stimulusRORE28_2IFCnew_2019_Jun_12_1714_827,stimulusRORE28_2IFCnew_2019_Jun_12_1714_828,True,2019_Jun_12_1714,2IFCnew,3,RORE28,
2IFCnew,39,0,39,0,-1,1,Yes,6.6,-1,Hit,0.49954400002,True,False,stimulusRORE28_2IFCnew_2019_Jun_12_1714_829,stimulusRORE28_2IFCnew_2019_Jun_12_1714_830,True,2019_Jun_12_1714,2IFCnew,3,RORE28,
2IFCnew,40,0,40,0,-1,1,Yes,1.4,-1,Hit,0.600635000039,True,False,stimulusRORE28_2IFCnew_2019_Jun_12_1714_831,stimulusRORE28_2IFCnew_2019_Jun_12_1714_832,True,2019_Jun_12_1714,2IFCnew,3,RORE28,
2IFCnew,41,0,41,0,-1,4,Yes,6.6,-1,Miss,0.567263399949,True,False,stimulusRORE28_2IFCnew_2019_Jun_12_1714_833,stimulusRORE28_2IFCnew_2019_Jun_12_1714_834,True,2019_Jun_12_1714,2IFCnew,3,RORE28,
2IFCnew,42,0,42,0,-1,1,Yes,5.7,-1,Hit,0.367289199959,True,False,stimulusRORE28_2IFCnew_2019_Jun_12_1714_835,stimulusRORE28_2IFCnew_2019_Jun_12_1714_836,True,2019_Jun_12_1714,2IFCnew,3,RORE28,
2IFCnew,43,0,43,0,-1,1,Yes,5.7,-1,Hit,0.533794499934,True,False,stimulusRORE28_2IFCnew_2019_Jun_12_1714_837,stimulusRORE28_2IFCnew_2019_Jun_12_1714_838,True,2019_Jun_12_1714,2IFCnew,3,RORE28,
2IFCnew,44,0,44,0,-1,1,Yes,4.4,-1,Hit,0.500902399886,True,False,stimulusRORE28_2IFCnew_2019_Jun_12_1714_839,stimulusRORE28_2IFCnew_2019_Jun_12_1714_840,True,2019_Jun_12_1714,2IFCnew,3,RORE28,
2IFCnew,45,0,45,0,0.400650700089,5,Yes,2.2,-1,False Alarm,0.568884199951,False,True,stimulusRORE28_2IFCnew_2019_Jun_12_1714_841,stimulusRORE28_2IFCnew_2019_Jun_12_1714_842,True,2019_Jun_12_1714,2IFCnew,3,RORE28,
2IFCnew,46,0,46,0,-1,1,Yes,4.4,-1,Hit,0.533919299953,True,False,stimulusRORE28_2IFCnew_2019_Jun_12_1714_843,stimulusRORE28_2IFCnew_2019_Jun_12_1714_844,True,2019_Jun_12_1714,2IFCnew,3,RORE28,
2IFCnew,47,0,47,0,-1,1,Yes,5,-1,Hit,0.533795900177,True,False,stimulusRORE28_2IFCnew_2019_Jun_12_1714_845,stimulusRORE28_2IFCnew_2019_Jun_12_1714_846,True,2019_Jun_12_1714,2IFCnew,3,RORE28,
2IFCnew,48,0,48,0,-1,0,Yes,3,-1,No Answer,-1,False,True,stimulusRORE28_2IFCnew_2019_Jun_12_1714_847,stimulusRORE28_2IFCnew_2019_Jun_12_1714_848,True,2019_Jun_12_1714,2IFCnew,3,RORE28,
2IFCnew,49,0,49,0,-1,4,Yes,3.7,-1,Miss,0.500942799961,True,False,stimulusRORE28_2IFCnew_2019_Jun_12_1714_849,stimulusRORE28_2IFCnew_2019_Jun_12_1714_850,True,2019_Jun_12_1714,2IFCnew,3,RORE28,
2IFCnew,50,0,50,0,-1,2,Yes,4.4,-1,False Alarm,0.50042850012,False,True,stimulusRORE28_2IFCnew_2019_Jun_12_1714_851,stimulusRORE28_2IFCnew_2019_Jun_12_1714_852,True,2019_Jun_12_1714,2IFCnew,3,RORE28,
2IFCnew,51,0,51,0,-1,3,Yes,3,-1,Correct Rejection,0.467501299921,False,True,stimulusRORE28_2IFCnew_2019_Jun_12_1714_853,stimulusRORE28_2IFCnew_2019_Jun_12_1714_854,True,2019_Jun_12_1714,2IFCnew,3,RORE28,
2IFCnew,52,0,52,0,0.400508499937,5,Yes,5.7,-1,False Alarm,0.49998990004,False,True,stimulusRORE28_2IFCnew_2019_Jun_12_1714_855,stimulusRORE28_2IFCnew_2019_Jun_12_1714_856,True,2019_Jun_12_1714,2IFCnew,3,RORE28,
2IFCnew,53,0,53,0,-1,1,Yes,3,-1,Hit,0.601399700157,True,False,stimulusRORE28_2IFCnew_2019_Jun_12_1714_857,stimulusRORE28_2IFCnew_2019_Jun_12_1714_858,True,2019_Jun_12_1714,2IFCnew,3,RORE28,
2IFCnew,54,0,54,0,-1,1,Yes,5,-1,Hit,0.467060600175,True,False,stimulusRORE28_2IFCnew_2019_Jun_12_1714_859,stimulusRORE28_2IFCnew_2019_Jun_12_1714_860,True,2019_Jun_12_1714,2IFCnew,3,RORE28,
2IFCnew,55,0,55,0,-1,2,Yes,2.2,-1,False Alarm,0.567201499827,False,True,stimulusRORE28_2IFCnew_2019_Jun_12_1714_861,stimulusRORE28_2IFCnew_2019_Jun_12_1714_862,True,2019_Jun_12_1714,2IFCnew,3,RORE28,
2IFCnew,56,0,56,0,-1,2,Yes,5.7,-1,False Alarm,0.599991400028,False,True,stimulusRORE28_2IFCnew_2019_Jun_12_1714_863,stimulusRORE28_2IFCnew_2019_Jun_12_1714_864,True,2019_Jun_12_1714,2IFCnew,3,RORE28,
2IFCnew,57,0,57,0,-1,1,Yes,4.4,-1,Hit,0.533855200047,True,False,stimulusRORE28_2IFCnew_2019_Jun_12_1714_865,stimulusRORE28_2IFCnew_2019_Jun_12_1714_866,True,2019_Jun_12_1714,2IFCnew,3,RORE28,
2IFCnew,58,0,58,0,-1,1,Yes,2.2,-1,Hit,0.567338400055,True,False,stimulusRORE28_2IFCnew_2019_Jun_12_1714_867,stimulusRORE28_2IFCnew_2019_Jun_12_1714_868,True,2019_Jun_12_1714,2IFCnew,3,RORE28,
2IFCnew,59,0,59,0,-1,2,Yes,3,-1,False Alarm,0.534008800052,False,True,stimulusRORE28_2IFCnew_2019_Jun_12_1714_869,stimulusRORE28_2IFCnew_2019_Jun_12_1714_870,True,2019_Jun_12_1714,2IFCnew,3,RORE28,
2IFCnew,60,0,60,0,0.267138499999,6,No,5.7,-1,Miss,0.500767699908,True,False,stimulusRORE28_2IFCnew_2019_Jun_12_1714_871,stimulusRORE28_2IFCnew_2019_Jun_12_1714_872,True,2019_Jun_12_1714,2IFCnew,3,RORE28,
2IFCnew,61,0,61,0,0.534219400026,5,Yes,5.7,-1,False Alarm,0.467140299967,False,True,stimulusRORE28_2IFCnew_2019_Jun_12_1714_873,stimulusRORE28_2IFCnew_2019_Jun_12_1714_874,True,2019_Jun_12_1714,2IFCnew,3,RORE28,
2IFCnew,62,0,62,0,-1,1,Yes,2.2,-1,Hit,0.533564000158,True,False,stimulusRORE28_2IFCnew_2019_Jun_12_1714_875,stimulusRORE28_2IFCnew_2019_Jun_12_1714_876,True,2019_Jun_12_1714,2IFCnew,3,RORE28,
2IFCnew,63,0,63,0,-1,1,Yes,4.4,-1,Hit,0.499937599991,True,False,stimulusRORE28_2IFCnew_2019_Jun_12_1714_877,stimulusRORE28_2IFCnew_2019_Jun_12_1714_878,True,2019_Jun_12_1714,2IFCnew,3,RORE28,
2IFCnew,64,0,64,0,-1,1,Yes,5,-1,Hit,0.534234100021,True,False,stimulusRORE28_2IFCnew_2019_Jun_12_1714_879,stimulusRORE28_2IFCnew_2019_Jun_12_1714_880,True,2019_Jun_12_1714,2IFCnew,3,RORE28,
2IFCnew,65,0,65,0,-1,1,Yes,3.7,-1,Hit,0.532003299799,True,False,stimulusRORE28_2IFCnew_2019_Jun_12_1714_881,stimulusRORE28_2IFCnew_2019_Jun_12_1714_882,True,2019_Jun_12_1714,2IFCnew,3,RORE28,
2IFCnew,66,0,66,0,-1,1,Yes,5,-1,Hit,0.567767800065,True,False,stimulusRORE28_2IFCnew_2019_Jun_12_1714_883,stimulusRORE28_2IFCnew_2019_Jun_12_1714_884,True,2019_Jun_12_1714,2IFCnew,3,RORE28,
2IFCnew,67,0,67,0,-1,2,Yes,5,-1,False Alarm,0.602374900132,False,True,stimulusRORE28_2IFCnew_2019_Jun_12_1714_885,stimulusRORE28_2IFCnew_2019_Jun_12_1714_886,True,2019_Jun_12_1714,2IFCnew,3,RORE28,
2IFCnew,68,0,68,0,-1,1,Yes,5,-1,Hit,0.506110999966,True,False,stimulusRORE28_2IFCnew_2019_Jun_12_1714_887,stimulusRORE28_2IFCnew_2019_Jun_12_1714_888,True,2019_Jun_12_1714,2IFCnew,3,RORE28,
2IFCnew,69,0,69,0,-1,1,Yes,3,-1,Hit,0.501121399924,True,False,stimulusRORE28_2IFCnew_2019_Jun_12_1714_889,stimulusRORE28_2IFCnew_2019_Jun_12_1714_890,True,2019_Jun_12_1714,2IFCnew,3,RORE28,
2IFCnew,70,0,70,0,0.567516999785,5,Yes,2.2,-1,False Alarm,0.53601739998,False,True,stimulusRORE28_2IFCnew_2019_Jun_12_1714_891,stimulusRORE28_2IFCnew_2019_Jun_12_1714_892,True,2019_Jun_12_1714,2IFCnew,3,RORE28,
2IFCnew,71,0,71,0,-1,4,Yes,5.7,-1,Miss,0.533794100164,True,False,stimulusRORE28_2IFCnew_2019_Jun_12_1714_893,stimulusRORE28_2IFCnew_2019_Jun_12_1714_894,True,2019_Jun_12_1714,2IFCnew,3,RORE28,
2IFCnew,72,0,72,0,-1,1,Yes,4.4,-1,Hit,0.533728200011,True,False,stimulusRORE28_2IFCnew_2019_Jun_12_1714_895,stimulusRORE28_2IFCnew_2019_Jun_12_1714_896,True,2019_Jun_12_1714,2IFCnew,3,RORE28,
2IFCnew,73,0,73,0,-1,1,Yes,5.7,-1,Hit,0.499674999854,True,False,stimulusRORE28_2IFCnew_2019_Jun_12_1714_897,stimulusRORE28_2IFCnew_2019_Jun_12_1714_898,True,2019_Jun_12_1714,2IFCnew,3,RORE28,
2IFCnew,74,0,74,0,-1,1,Yes,4.4,-1,Hit,0.601823700126,True,False,stimulusRORE28_2IFCnew_2019_Jun_12_1714_899,stimulusRORE28_2IFCnew_2019_Jun_12_1714_900,True,2019_Jun_12_1714,2IFCnew,3,RORE28,
2IFCnew,0,0,0,0,0.534655399853,2,Yes,3,-1,Correct Rejection,0.535089500016,False,True,stimulusRORE28_2IFCnew_2019_Jun_12_1714_901,stimulusRORE28_2IFCnew_2019_Jun_12_1714_902,True,2019_Jun_12_1714,2IFCnew,3,RORE28,
2IFCnew,1,0,1,0,-1,2,Yes,1.4,-1,False Alarm,0.668001800077,False,True,stimulusRORE28_2IFCnew_2019_Jun_12_1714_903,stimulusRORE28_2IFCnew_2019_Jun_12_1714_904,True,2019_Jun_12_1714,2IFCnew,3,RORE28,
2IFCnew,2,0,2,0,-1,3,Yes,3.7,-1,Correct Rejection,0.467583299847,False,True,stimulusRORE28_2IFCnew_2019_Jun_12_1714_905,stimulusRORE28_2IFCnew_2019_Jun_12_1714_906,True,2019_Jun_12_1714,2IFCnew,3,RORE28,
2IFCnew,3,0,3,0,0.500526000047,7,Yes,5.7,-1,Hit,0.500473999884,True,False,stimulusRORE28_2IFCnew_2019_Jun_12_1714_907,stimulusRORE28_2IFCnew_2019_Jun_12_1714_908,True,2019_Jun_12_1714,2IFCnew,3,RORE28,
2IFCnew,4,0,4,0,0.533990500029,2,Yes,6.6,-1,Correct Rejection,0.599657099927,False,True,stimulusRORE28_2IFCnew_2019_Jun_12_1714_909,stimulusRORE28_2IFCnew_2019_Jun_12_1714_910,True,2019_Jun_12_1714,2IFCnew,3,RORE28,
2IFCnew,5,0,5,0,-1,3,Yes,2.2,-1,Correct Rejection,0.667384299915,False,True,stimulusRORE28_2IFCnew_2019_Jun_12_1714_911,stimulusRORE28_2IFCnew_2019_Jun_12_1714_912,True,2019_Jun_12_1714,2IFCnew,3,RORE28,
2IFCnew,6,0,6,0,-1,3,Yes,3.7,-1,Correct Rejection,0.532647999935,False,True,stimulusRORE28_2IFCnew_2019_Jun_12_1714_913,stimulusRORE28_2IFCnew_2019_Jun_12_1714_914,True,2019_Jun_12_1714,2IFCnew,3,RORE28,
2IFCnew,7,0,7,0,-1,1,Yes,3.7,-1,Hit,0.498889700044,True,False,stimulusRORE28_2IFCnew_2019_Jun_12_1714_915,stimulusRORE28_2IFCnew_2019_Jun_12_1714_916,True,2019_Jun_12_1714,2IFCnew,3,RORE28,
2IFCnew,8,0,8,0,-1,2,Yes,1.4,-1,False Alarm,0.500388999935,False,True,stimulusRORE28_2IFCnew_2019_Jun_12_1714_917,stimulusRORE28_2IFCnew_2019_Jun_12_1714_918,True,2019_Jun_12_1714,2IFCnew,3,RORE28,
2IFCnew,9,0,9,0,-1,1,Yes,5.7,-1,Hit,0.56848869985,True,False,stimulusRORE28_2IFCnew_2019_Jun_12_1714_919,stimulusRORE28_2IFCnew_2019_Jun_12_1714_920,True,2019_Jun_12_1714,2IFCnew,3,RORE28,
2IFCnew,10,0,10,0,-1,2,Yes,3.7,-1,False Alarm,0.502186999889,False,True,stimulusRORE28_2IFCnew_2019_Jun_12_1714_921,stimulusRORE28_2IFCnew_2019_Jun_12_1714_922,True,2019_Jun_12_1714,2IFCnew,3,RORE28,
2IFCnew,11,0,11,0,-1,2,Yes,2.2,-1,False Alarm,0.500724400161,False,True,stimulusRORE28_2IFCnew_2019_Jun_12_1714_923,stimulusRORE28_2IFCnew_2019_Jun_12_1714_924,True,2019_Jun_12_1714,2IFCnew,3,RORE28,
2IFCnew,12,0,12,0,-1,1,Yes,1.4,-1,Hit,0.467448499985,True,False,stimulusRORE28_2IFCnew_2019_Jun_12_1714_925,stimulusRORE28_2IFCnew_2019_Jun_12_1714_926,True,2019_Jun_12_1714,2IFCnew,3,RORE28,
2IFCnew,13,0,13,0,0.367116699927,1,No,4.4,-1,Hit,0.500144199934,True,False,stimulusRORE28_2IFCnew_2019_Jun_12_1714_927,stimulusRORE28_2IFCnew_2019_Jun_12_1714_928,True,2019_Jun_12_1714,2IFCnew,3,RORE28,
2IFCnew,14,0,14,0,0.400057400111,1,No,6.6,-1,Hit,0.533664300106,True,False,stimulusRORE28_2IFCnew_2019_Jun_12_1714_929,stimulusRORE28_2IFCnew_2019_Jun_12_1714_930,True,2019_Jun_12_1714,2IFCnew,3,RORE28,
2IFCnew,15,0,15,0,0.36663799989,1,No,5.7,-1,Hit,0.501546700019,True,False,stimulusRORE28_2IFCnew_2019_Jun_12_1714_931,stimulusRORE28_2IFCnew_2019_Jun_12_1714_932,True,2019_Jun_12_1714,2IFCnew,3,RORE28,
2IFCnew,16,0,16,0,0.667538299924,1,No,1.4,-1,Hit,0.433561600046,True,False,stimulusRORE28_2IFCnew_2019_Jun_12_1714_933,stimulusRORE28_2IFCnew_2019_Jun_12_1714_934,True,2019_Jun_12_1714,2IFCnew,3,RORE28,
2IFCnew,17,0,17,0,0.401544400025,2,Yes,3,-1,Correct Rejection,0.667016700143,False,True,stimulusRORE28_2IFCnew_2019_Jun_12_1714_935,stimulusRORE28_2IFCnew_2019_Jun_12_1714_936,True,2019_Jun_12_1714,2IFCnew,3,RORE28,
2IFCnew,18,0,18,0,0.534375899937,2,Yes,2.2,-1,Correct Rejection,0.535323500168,False,True,stimulusRORE28_2IFCnew_2019_Jun_12_1714_937,stimulusRORE28_2IFCnew_2019_Jun_12_1714_938,True,2019_Jun_12_1714,2IFCnew,3,RORE28,
2IFCnew,19,0,19,0,0.366428700043,1,No,6.6,-1,Hit,0.598268799949,True,False,stimulusRORE28_2IFCnew_2019_Jun_12_1714_939,stimulusRORE28_2IFCnew_2019_Jun_12_1714_940,True,2019_Jun_12_1714,2IFCnew,3,RORE28,
2IFCnew,20,0,20,0,0.76855519996,5,Yes,5.7,-1,False Alarm,0.467935099965,False,True,stimulusRORE28_2IFCnew_2019_Jun_12_1714_941,stimulusRORE28_2IFCnew_2019_Jun_12_1714_942,True,2019_Jun_12_1714,2IFCnew,3,RORE28,
2IFCnew,21,0,21,0,0.366528999992,6,No,6.6,-1,Miss,0.534186699893,True,False,stimulusRORE28_2IFCnew_2019_Jun_12_1714_943,stimulusRORE28_2IFCnew_2019_Jun_12_1714_944,True,2019_Jun_12_1714,2IFCnew,3,RORE28,
2IFCnew,22,0,22,0,0.666780899977,5,Yes,2.2,-1,False Alarm,0.501325899968,False,True,stimulusRORE28_2IFCnew_2019_Jun_12_1714_945,stimulusRORE28_2IFCnew_2019_Jun_12_1714_946,True,2019_Jun_12_1714,2IFCnew,3,RORE28,
2IFCnew,23,0,23,0,0.500703900121,2,Yes,6.6,-1,Correct Rejection,0.500267699827,False,True,stimulusRORE28_2IFCnew_2019_Jun_12_1714_947,stimulusRORE28_2IFCnew_2019_Jun_12_1714_948,True,2019_Jun_12_1714,2IFCnew,3,RORE28,
2IFCnew,24,0,24,0,0.431038199924,5,Yes,5,-1,False Alarm,0.53350270004,False,True,stimulusRORE28_2IFCnew_2019_Jun_12_1714_949,stimulusRORE28_2IFCnew_2019_Jun_12_1714_950,True,2019_Jun_12_1714,2IFCnew,3,RORE28,
2IFCnew,25,0,25,0,0.499635900138,4,Yes,5,-1,Miss,0.533992099809,True,False,stimulusRORE28_2IFCnew_2019_Jun_12_1714_951,stimulusRORE28_2IFCnew_2019_Jun_12_1714_952,True,2019_Jun_12_1714,2IFCnew,3,RORE28,
2IFCnew,26,0,26,0,-1,3,Yes,3,-1,Correct Rejection,0.600524500012,False,True,stimulusRORE28_2IFCnew_2019_Jun_12_1714_953,stimulusRORE28_2IFCnew_2019_Jun_12_1714_954,True,2019_Jun_12_1714,2IFCnew,3,RORE28,
2IFCnew,27,0,27,0,0.600381900091,7,Yes,5.7,-1,Hit,0.467368399957,True,False,stimulusRORE28_2IFCnew_2019_Jun_12_1714_955,stimulusRORE28_2IFCnew_2019_Jun_12_1714_956,True,2019_Jun_12_1714,2IFCnew,3,RORE28,
2IFCnew,28,0,28,0,0.733928299975,5,Yes,4.4,-1,False Alarm,0.566957399948,False,True,stimulusRORE28_2IFCnew_2019_Jun_12_1714_957,stimulusRORE28_2IFCnew_2019_Jun_12_1714_958,True,2019_Jun_12_1714,2IFCnew,3,RORE28,
2IFCnew,29,0,29,0,-1,4,Yes,3.7,-1,Miss,0.633937099949,True,False,stimulusRORE28_2IFCnew_2019_Jun_12_1714_959,stimulusRORE28_2IFCnew_2019_Jun_12_1714_960,True,2019_Jun_12_1714,2IFCnew,3,RORE28,
2IFCnew,30,0,30,0,0.46747709997,5,Yes,3.7,-1,False Alarm,0.767053500051,False,True,stimulusRORE28_2IFCnew_2019_Jun_12_1714_961,stimulusRORE28_2IFCnew_2019_Jun_12_1714_962,True,2019_Jun_12_1714,2IFCnew,3,RORE28,
2IFCnew,31,0,31,0,0.301030699862,1,No,4.4,-1,Hit,0.533576200018,True,False,stimulusRORE28_2IFCnew_2019_Jun_12_1714_963,stimulusRORE28_2IFCnew_2019_Jun_12_1714_964,True,2019_Jun_12_1714,2IFCnew,3,RORE28,
2IFCnew,32,0,32,0,0.534114199923,5,Yes,5.7,-1,False Alarm,0.599897200009,False,True,stimulusRORE28_2IFCnew_2019_Jun_12_1714_965,stimulusRORE28_2IFCnew_2019_Jun_12_1714_966,True,2019_Jun_12_1714,2IFCnew,3,RORE28,
2IFCnew,33,0,33,0,0.467358499998,2,Yes,1.4,-1,Correct Rejection,0.600970299914,False,True,stimulusRORE28_2IFCnew_2019_Jun_12_1714_967,stimulusRORE28_2IFCnew_2019_Jun_12_1714_968,True,2019_Jun_12_1714,2IFCnew,3,RORE28,
2IFCnew,34,0,34,0,0.599880800117,3,No,3,-1,False Alarm,0.500405899948,False,True,stimulusRORE28_2IFCnew_2019_Jun_12_1714_969,stimulusRORE28_2IFCnew_2019_Jun_12_1714_970,True,2019_Jun_12_1714,2IFCnew,3,RORE28,
2IFCnew,35,0,35,0,0.634146400029,2,Yes,3.7,-1,Correct Rejection,0.70060890005,False,True,stimulusRORE28_2IFCnew_2019_Jun_12_1714_971,stimulusRORE28_2IFCnew_2019_Jun_12_1714_972,True,2019_Jun_12_1714,2IFCnew,3,RORE28,
2IFCnew,36,0,36,0,-1,0,Yes,5,-1,No Answer,-1,False,True,stimulusRORE28_2IFCnew_2019_Jun_12_1714_973,stimulusRORE28_2IFCnew_2019_Jun_12_1714_974,True,2019_Jun_12_1714,2IFCnew,3,RORE28,
2IFCnew,37,0,37,0,-1,3,Yes,1.4,-1,Correct Rejection,0.467288799817,False,True,stimulusRORE28_2IFCnew_2019_Jun_12_1714_975,stimulusRORE28_2IFCnew_2019_Jun_12_1714_976,True,2019_Jun_12_1714,2IFCnew,3,RORE28,
2IFCnew,38,0,38,0,-1,1,Yes,5.7,-1,Hit,0.666826899862,True,False,stimulusRORE28_2IFCnew_2019_Jun_12_1714_977,stimulusRORE28_2IFCnew_2019_Jun_12_1714_978,True,2019_Jun_12_1714,2IFCnew,3,RORE28,
2IFCnew,39,0,39,0,-1,1,Yes,3,-1,Hit,0.567299799994,True,False,stimulusRORE28_2IFCnew_2019_Jun_12_1714_979,stimulusRORE28_2IFCnew_2019_Jun_12_1714_980,True,2019_Jun_12_1714,2IFCnew,3,RORE28,
2IFCnew,40,0,40,0,-1,2,Yes,3.7,-1,False Alarm,0.466338400031,False,True,stimulusRORE28_2IFCnew_2019_Jun_12_1714_981,stimulusRORE28_2IFCnew_2019_Jun_12_1714_982,True,2019_Jun_12_1714,2IFCnew,3,RORE28,
2IFCnew,41,0,41,0,-1,1,Yes,3,-1,Hit,0.500069800066,True,False,stimulusRORE28_2IFCnew_2019_Jun_12_1714_983,stimulusRORE28_2IFCnew_2019_Jun_12_1714_984,True,2019_Jun_12_1714,2IFCnew,3,RORE28,
2IFCnew,42,0,42,0,-1,4,Yes,1.4,-1,Miss,0.801045299973,True,False,stimulusRORE28_2IFCnew_2019_Jun_12_1714_985,stimulusRORE28_2IFCnew_2019_Jun_12_1714_986,True,2019_Jun_12_1714,2IFCnew,3,RORE28,
2IFCnew,43,0,43,0,-1,1,Yes,2.2,-1,Hit,0.567663700087,True,False,stimulusRORE28_2IFCnew_2019_Jun_12_1714_987,stimulusRORE28_2IFCnew_2019_Jun_12_1714_988,True,2019_Jun_12_1714,2IFCnew,3,RORE28,
2IFCnew,44,0,44,0,0.667383599794,5,Yes,2.2,-1,False Alarm,0.499170799972,False,True,stimulusRORE28_2IFCnew_2019_Jun_12_1714_989,stimulusRORE28_2IFCnew_2019_Jun_12_1714_990,True,2019_Jun_12_1714,2IFCnew,3,RORE28,
