Task,trials.thisRepN,trials.thisTrialN,trials.thisN,trials.thisIndex,signal_intensity,constant Value,response,time_response,signal_on_stimuluspos1,signal_on_stimuluspos2,stimulus_name_pos1,stimulus_name_pos2,date,expName,session,participant,
Yes-No Task,0,0,0,0,6.6,-1,Correct Rejection,0.567876332905,False,-1,stimulus_RORE28_Yes-No Task_2019_Jun_11_1752_1,-1,2019_Jun_11_1752,Yes-No Task,2,RORE28,
Yes-No Task,1,0,1,0,6.6,-1,Correct Rejection,0.533871041611,False,-1,stimulus_RORE28_Yes-No Task_2019_Jun_11_1752_2,-1,2019_Jun_11_1752,Yes-No Task,2,RORE28,
Yes-No Task,2,0,2,0,6.6,-1,False Alarm,0.636007206049,False,-1,stimulus_RORE28_Yes-No Task_2019_Jun_11_1752_3,-1,2019_Jun_11_1752,Yes-No Task,2,RORE28,
Yes-No Task,3,0,3,0,6.6,-1,Hit,0.567774516996,True,-1,stimulus_RORE28_Yes-No Task_2019_Jun_11_1752_4,-1,2019_Jun_11_1752,Yes-No Task,2,RORE28,
Yes-No Task,4,0,4,0,6.6,-1,Hit,0.534832956269,True,-1,stimulus_RORE28_Yes-No Task_2019_Jun_11_1752_5,-1,2019_Jun_11_1752,Yes-No Task,2,RORE28,
Yes-No Task,5,0,5,0,6.6,-1,Correct Rejection,0.502324112691,False,-1,stimulus_RORE28_Yes-No Task_2019_Jun_11_1752_6,-1,2019_Jun_11_1752,Yes-No Task,2,RORE28,
Yes-No Task,6,0,6,0,6.6,-1,Hit,0.524714176077,True,-1,stimulus_RORE28_Yes-No Task_2019_Jun_11_1752_7,-1,2019_Jun_11_1752,Yes-No Task,2,RORE28,
Yes-No Task,7,0,7,0,6.6,-1,Hit,0.574376952369,True,-1,stimulus_RORE28_Yes-No Task_2019_Jun_11_1752_8,-1,2019_Jun_11_1752,Yes-No Task,2,RORE28,
Yes-No Task,8,0,8,0,6.6,-1,Hit,0.634995204862,True,-1,stimulus_RORE28_Yes-No Task_2019_Jun_11_1752_9,-1,2019_Jun_11_1752,Yes-No Task,2,RORE28,
Yes-No Task,9,0,9,0,6.6,-1,False Alarm,0.493271937128,False,-1,stimulus_RORE28_Yes-No Task_2019_Jun_11_1752_10,-1,2019_Jun_11_1752,Yes-No Task,2,RORE28,
Yes-No Task,10,0,10,0,6.6,-1,Correct Rejection,0.499816074502,False,-1,stimulus_RORE28_Yes-No Task_2019_Jun_11_1752_11,-1,2019_Jun_11_1752,Yes-No Task,2,RORE28,
Yes-No Task,11,0,11,0,6.6,-1,Correct Rejection,0.600181954913,False,-1,stimulus_RORE28_Yes-No Task_2019_Jun_11_1752_12,-1,2019_Jun_11_1752,Yes-No Task,2,RORE28,
Yes-No Task,12,0,12,0,6.6,-1,Correct Rejection,0.756560148671,False,-1,stimulus_RORE28_Yes-No Task_2019_Jun_11_1752_13,-1,2019_Jun_11_1752,Yes-No Task,2,RORE28,
Yes-No Task,13,0,13,0,6.6,-1,Miss,0.603962281719,True,-1,stimulus_RORE28_Yes-No Task_2019_Jun_11_1752_14,-1,2019_Jun_11_1752,Yes-No Task,2,RORE28,
Yes-No Task,14,0,14,0,6.6,-1,Hit,0.599832578562,True,-1,stimulus_RORE28_Yes-No Task_2019_Jun_11_1752_15,-1,2019_Jun_11_1752,Yes-No Task,2,RORE28,
Yes-No Task,15,0,15,0,6.6,-1,Miss,0.691618002951,True,-1,stimulus_RORE28_Yes-No Task_2019_Jun_11_1752_16,-1,2019_Jun_11_1752,Yes-No Task,2,RORE28,
Yes-No Task,16,0,16,0,6.6,-1,Hit,0.559209251311,True,-1,stimulus_RORE28_Yes-No Task_2019_Jun_11_1752_17,-1,2019_Jun_11_1752,Yes-No Task,2,RORE28,
Yes-No Task,17,0,17,0,6.6,-1,Hit,0.523397137877,True,-1,stimulus_RORE28_Yes-No Task_2019_Jun_11_1752_18,-1,2019_Jun_11_1752,Yes-No Task,2,RORE28,
Yes-No Task,18,0,18,0,6.6,-1,False Alarm,0.50263243448,False,-1,stimulus_RORE28_Yes-No Task_2019_Jun_11_1752_19,-1,2019_Jun_11_1752,Yes-No Task,2,RORE28,
Yes-No Task,19,0,19,0,6.6,-1,Hit,0.473071326967,True,-1,stimulus_RORE28_Yes-No Task_2019_Jun_11_1752_20,-1,2019_Jun_11_1752,Yes-No Task,2,RORE28,
Yes-No Task,20,0,20,0,6.6,-1,False Alarm,0.626397916581,False,-1,stimulus_RORE28_Yes-No Task_2019_Jun_11_1752_21,-1,2019_Jun_11_1752,Yes-No Task,2,RORE28,
Yes-No Task,21,0,21,0,6.6,-1,Hit,0.532613532618,True,-1,stimulus_RORE28_Yes-No Task_2019_Jun_11_1752_22,-1,2019_Jun_11_1752,Yes-No Task,2,RORE28,
Yes-No Task,22,0,22,0,6.6,-1,False Alarm,0.55877078604,False,-1,stimulus_RORE28_Yes-No Task_2019_Jun_11_1752_23,-1,2019_Jun_11_1752,Yes-No Task,2,RORE28,
Yes-No Task,23,0,23,0,6.6,-1,False Alarm,0.666845939122,False,-1,stimulus_RORE28_Yes-No Task_2019_Jun_11_1752_24,-1,2019_Jun_11_1752,Yes-No Task,2,RORE28,
Yes-No Task,24,0,24,0,6.6,-1,Hit,0.535132246092,True,-1,stimulus_RORE28_Yes-No Task_2019_Jun_11_1752_25,-1,2019_Jun_11_1752,Yes-No Task,2,RORE28,
Yes-No Task,25,0,25,0,6.6,-1,No Answer,-1,False,-1,stimulus_RORE28_Yes-No Task_2019_Jun_11_1752_26,-1,2019_Jun_11_1752,Yes-No Task,2,RORE28,
Yes-No Task,26,0,26,0,6.6,-1,Miss,0.566948083695,True,-1,stimulus_RORE28_Yes-No Task_2019_Jun_11_1752_27,-1,2019_Jun_11_1752,Yes-No Task,2,RORE28,
Yes-No Task,27,0,27,0,6.6,-1,False Alarm,0.501457445789,False,-1,stimulus_RORE28_Yes-No Task_2019_Jun_11_1752_28,-1,2019_Jun_11_1752,Yes-No Task,2,RORE28,
Yes-No Task,28,0,28,0,6.6,-1,Hit,0.533956435975,True,-1,stimulus_RORE28_Yes-No Task_2019_Jun_11_1752_29,-1,2019_Jun_11_1752,Yes-No Task,2,RORE28,
Yes-No Task,29,0,29,0,6.6,-1,Hit,0.701045419555,True,-1,stimulus_RORE28_Yes-No Task_2019_Jun_11_1752_30,-1,2019_Jun_11_1752,Yes-No Task,2,RORE28,
Yes-No Task,30,0,30,0,6.6,-1,Correct Rejection,0.566473900806,False,-1,stimulus_RORE28_Yes-No Task_2019_Jun_11_1752_31,-1,2019_Jun_11_1752,Yes-No Task,2,RORE28,
Yes-No Task,31,0,31,0,6.6,-1,False Alarm,0.472421429586,False,-1,stimulus_RORE28_Yes-No Task_2019_Jun_11_1752_32,-1,2019_Jun_11_1752,Yes-No Task,2,RORE28,
Yes-No Task,32,0,32,0,6.6,-1,False Alarm,0.523865983821,False,-1,stimulus_RORE28_Yes-No Task_2019_Jun_11_1752_33,-1,2019_Jun_11_1752,Yes-No Task,2,RORE28,
Yes-No Task,33,0,33,0,6.6,-1,Correct Rejection,0.734281343874,False,-1,stimulus_RORE28_Yes-No Task_2019_Jun_11_1752_34,-1,2019_Jun_11_1752,Yes-No Task,2,RORE28,
Yes-No Task,34,0,34,0,6.6,-1,Correct Rejection,0.569622394163,False,-1,stimulus_RORE28_Yes-No Task_2019_Jun_11_1752_35,-1,2019_Jun_11_1752,Yes-No Task,2,RORE28,
Yes-No Task,35,0,35,0,6.6,-1,Hit,0.589790571481,True,-1,stimulus_RORE28_Yes-No Task_2019_Jun_11_1752_36,-1,2019_Jun_11_1752,Yes-No Task,2,RORE28,
Yes-No Task,36,0,36,0,6.6,-1,Correct Rejection,0.567597981542,False,-1,stimulus_RORE28_Yes-No Task_2019_Jun_11_1752_37,-1,2019_Jun_11_1752,Yes-No Task,2,RORE28,
Yes-No Task,37,0,37,0,6.6,-1,Correct Rejection,0.503750767559,False,-1,stimulus_RORE28_Yes-No Task_2019_Jun_11_1752_38,-1,2019_Jun_11_1752,Yes-No Task,2,RORE28,
Yes-No Task,38,0,38,0,6.6,-1,False Alarm,0.566788790748,False,-1,stimulus_RORE28_Yes-No Task_2019_Jun_11_1752_39,-1,2019_Jun_11_1752,Yes-No Task,2,RORE28,
Yes-No Task,39,0,39,0,6.6,-1,Hit,0.561333427671,True,-1,stimulus_RORE28_Yes-No Task_2019_Jun_11_1752_40,-1,2019_Jun_11_1752,Yes-No Task,2,RORE28,
Yes-No Task,40,0,40,0,6.6,-1,Hit,0.402413940988,True,-1,stimulus_RORE28_Yes-No Task_2019_Jun_11_1752_41,-1,2019_Jun_11_1752,Yes-No Task,2,RORE28,
Yes-No Task,41,0,41,0,6.6,-1,Hit,0.464481428266,True,-1,stimulus_RORE28_Yes-No Task_2019_Jun_11_1752_42,-1,2019_Jun_11_1752,Yes-No Task,2,RORE28,
Yes-No Task,42,0,42,0,6.6,-1,False Alarm,0.540583914611,False,-1,stimulus_RORE28_Yes-No Task_2019_Jun_11_1752_43,-1,2019_Jun_11_1752,Yes-No Task,2,RORE28,
Yes-No Task,43,0,43,0,6.6,-1,Correct Rejection,0.66675931355,False,-1,stimulus_RORE28_Yes-No Task_2019_Jun_11_1752_44,-1,2019_Jun_11_1752,Yes-No Task,2,RORE28,
Yes-No Task,44,0,44,0,6.6,-1,No Answer,-1,False,-1,stimulus_RORE28_Yes-No Task_2019_Jun_11_1752_45,-1,2019_Jun_11_1752,Yes-No Task,2,RORE28,
Yes-No Task,45,0,45,0,6.6,-1,Miss,0.534465104807,True,-1,stimulus_RORE28_Yes-No Task_2019_Jun_11_1752_46,-1,2019_Jun_11_1752,Yes-No Task,2,RORE28,
Yes-No Task,46,0,46,0,6.6,-1,False Alarm,0.524804086424,False,-1,stimulus_RORE28_Yes-No Task_2019_Jun_11_1752_47,-1,2019_Jun_11_1752,Yes-No Task,2,RORE28,
Yes-No Task,47,0,47,0,6.6,-1,Correct Rejection,0.533489642665,False,-1,stimulus_RORE28_Yes-No Task_2019_Jun_11_1752_48,-1,2019_Jun_11_1752,Yes-No Task,2,RORE28,
Yes-No Task,48,0,48,0,6.6,-1,No Answer,-1,True,-1,stimulus_RORE28_Yes-No Task_2019_Jun_11_1752_49,-1,2019_Jun_11_1752,Yes-No Task,2,RORE28,
Yes-No Task,49,0,49,0,6.6,-1,Correct Rejection,0.535507897381,False,-1,stimulus_RORE28_Yes-No Task_2019_Jun_11_1752_50,-1,2019_Jun_11_1752,Yes-No Task,2,RORE28,
Yes-No Task,50,0,50,0,6.6,-1,False Alarm,0.599761143327,False,-1,stimulus_RORE28_Yes-No Task_2019_Jun_11_1752_51,-1,2019_Jun_11_1752,Yes-No Task,2,RORE28,
Yes-No Task,51,0,51,0,6.6,-1,Correct Rejection,0.567031014245,False,-1,stimulus_RORE28_Yes-No Task_2019_Jun_11_1752_52,-1,2019_Jun_11_1752,Yes-No Task,2,RORE28,
Yes-No Task,52,0,52,0,6.6,-1,Miss,0.767465127632,True,-1,stimulus_RORE28_Yes-No Task_2019_Jun_11_1752_53,-1,2019_Jun_11_1752,Yes-No Task,2,RORE28,
Yes-No Task,53,0,53,0,6.6,-1,Correct Rejection,0.658807407133,False,-1,stimulus_RORE28_Yes-No Task_2019_Jun_11_1752_54,-1,2019_Jun_11_1752,Yes-No Task,2,RORE28,
Yes-No Task,54,0,54,0,6.6,-1,Hit,0.557577733416,True,-1,stimulus_RORE28_Yes-No Task_2019_Jun_11_1752_55,-1,2019_Jun_11_1752,Yes-No Task,2,RORE28,
Yes-No Task,55,0,55,0,6.6,-1,Correct Rejection,0.597829924896,False,-1,stimulus_RORE28_Yes-No Task_2019_Jun_11_1752_56,-1,2019_Jun_11_1752,Yes-No Task,2,RORE28,
Yes-No Task,56,0,56,0,6.6,-1,Correct Rejection,0.636441976763,False,-1,stimulus_RORE28_Yes-No Task_2019_Jun_11_1752_57,-1,2019_Jun_11_1752,Yes-No Task,2,RORE28,
Yes-No Task,57,0,57,0,6.6,-1,Hit,0.536906634923,True,-1,stimulus_RORE28_Yes-No Task_2019_Jun_11_1752_58,-1,2019_Jun_11_1752,Yes-No Task,2,RORE28,
Yes-No Task,58,0,58,0,6.6,-1,Hit,0.53411613917,True,-1,stimulus_RORE28_Yes-No Task_2019_Jun_11_1752_59,-1,2019_Jun_11_1752,Yes-No Task,2,RORE28,
Yes-No Task,59,0,59,0,6.6,-1,Correct Rejection,0.507063069846,False,-1,stimulus_RORE28_Yes-No Task_2019_Jun_11_1752_60,-1,2019_Jun_11_1752,Yes-No Task,2,RORE28,
Yes-No Task,60,0,60,0,6.6,-1,False Alarm,0.53121274244,False,-1,stimulus_RORE28_Yes-No Task_2019_Jun_11_1752_61,-1,2019_Jun_11_1752,Yes-No Task,2,RORE28,
Yes-No Task,61,0,61,0,6.6,-1,False Alarm,0.467943170108,False,-1,stimulus_RORE28_Yes-No Task_2019_Jun_11_1752_62,-1,2019_Jun_11_1752,Yes-No Task,2,RORE28,
Yes-No Task,62,0,62,0,6.6,-1,Correct Rejection,0.52443869831,False,-1,stimulus_RORE28_Yes-No Task_2019_Jun_11_1752_63,-1,2019_Jun_11_1752,Yes-No Task,2,RORE28,
Yes-No Task,63,0,63,0,6.6,-1,Miss,0.469682252035,True,-1,stimulus_RORE28_Yes-No Task_2019_Jun_11_1752_64,-1,2019_Jun_11_1752,Yes-No Task,2,RORE28,
Yes-No Task,64,0,64,0,6.6,-1,Hit,0.568736020941,True,-1,stimulus_RORE28_Yes-No Task_2019_Jun_11_1752_65,-1,2019_Jun_11_1752,Yes-No Task,2,RORE28,
Yes-No Task,65,0,65,0,6.6,-1,Hit,0.533533571288,True,-1,stimulus_RORE28_Yes-No Task_2019_Jun_11_1752_66,-1,2019_Jun_11_1752,Yes-No Task,2,RORE28,
Yes-No Task,66,0,66,0,6.6,-1,Hit,0.506402087398,True,-1,stimulus_RORE28_Yes-No Task_2019_Jun_11_1752_67,-1,2019_Jun_11_1752,Yes-No Task,2,RORE28,
Yes-No Task,67,0,67,0,6.6,-1,Hit,0.533253577538,True,-1,stimulus_RORE28_Yes-No Task_2019_Jun_11_1752_68,-1,2019_Jun_11_1752,Yes-No Task,2,RORE28,
Yes-No Task,68,0,68,0,6.6,-1,False Alarm,0.534487274475,False,-1,stimulus_RORE28_Yes-No Task_2019_Jun_11_1752_69,-1,2019_Jun_11_1752,Yes-No Task,2,RORE28,
Yes-No Task,69,0,69,0,6.6,-1,Miss,0.46324116271,True,-1,stimulus_RORE28_Yes-No Task_2019_Jun_11_1752_70,-1,2019_Jun_11_1752,Yes-No Task,2,RORE28,
Yes-No Task,70,0,70,0,6.6,-1,Hit,0.501041150186,True,-1,stimulus_RORE28_Yes-No Task_2019_Jun_11_1752_71,-1,2019_Jun_11_1752,Yes-No Task,2,RORE28,
Yes-No Task,71,0,71,0,6.6,-1,False Alarm,0.502434139606,False,-1,stimulus_RORE28_Yes-No Task_2019_Jun_11_1752_72,-1,2019_Jun_11_1752,Yes-No Task,2,RORE28,
Yes-No Task,72,0,72,0,6.6,-1,Correct Rejection,0.400798844174,False,-1,stimulus_RORE28_Yes-No Task_2019_Jun_11_1752_73,-1,2019_Jun_11_1752,Yes-No Task,2,RORE28,
Yes-No Task,73,0,73,0,6.6,-1,Hit,0.55921458872,True,-1,stimulus_RORE28_Yes-No Task_2019_Jun_11_1752_74,-1,2019_Jun_11_1752,Yes-No Task,2,RORE28,
Yes-No Task,74,0,74,0,6.6,-1,Hit,0.567523672245,True,-1,stimulus_RORE28_Yes-No Task_2019_Jun_11_1752_75,-1,2019_Jun_11_1752,Yes-No Task,2,RORE28,
Yes-No Task,0,0,0,0,5.7,-1,Hit,0.509371992666,True,-1,stimulus_RORE28_Yes-No Task_2019_Jun_11_1752_76,-1,2019_Jun_11_1752,Yes-No Task,2,RORE28,
Yes-No Task,1,0,1,0,5.7,-1,Hit,0.604731238447,True,-1,stimulus_RORE28_Yes-No Task_2019_Jun_11_1752_77,-1,2019_Jun_11_1752,Yes-No Task,2,RORE28,
Yes-No Task,2,0,2,0,5.7,-1,Hit,0.500027096365,True,-1,stimulus_RORE28_Yes-No Task_2019_Jun_11_1752_78,-1,2019_Jun_11_1752,Yes-No Task,2,RORE28,
Yes-No Task,3,0,3,0,5.7,-1,Hit,0.500015190337,True,-1,stimulus_RORE28_Yes-No Task_2019_Jun_11_1752_79,-1,2019_Jun_11_1752,Yes-No Task,2,RORE28,
Yes-No Task,4,0,4,0,5.7,-1,Miss,0.590952011757,True,-1,stimulus_RORE28_Yes-No Task_2019_Jun_11_1752_80,-1,2019_Jun_11_1752,Yes-No Task,2,RORE28,
Yes-No Task,5,0,5,0,5.7,-1,Miss,0.434109077789,True,-1,stimulus_RORE28_Yes-No Task_2019_Jun_11_1752_81,-1,2019_Jun_11_1752,Yes-No Task,2,RORE28,
Yes-No Task,6,0,6,0,5.7,-1,False Alarm,0.533016690984,False,-1,stimulus_RORE28_Yes-No Task_2019_Jun_11_1752_82,-1,2019_Jun_11_1752,Yes-No Task,2,RORE28,
Yes-No Task,7,0,7,0,5.7,-1,Correct Rejection,0.733561653178,False,-1,stimulus_RORE28_Yes-No Task_2019_Jun_11_1752_83,-1,2019_Jun_11_1752,Yes-No Task,2,RORE28,
Yes-No Task,8,0,8,0,5.7,-1,Hit,0.770169408526,True,-1,stimulus_RORE28_Yes-No Task_2019_Jun_11_1752_84,-1,2019_Jun_11_1752,Yes-No Task,2,RORE28,
Yes-No Task,9,0,9,0,5.7,-1,False Alarm,0.467227995861,False,-1,stimulus_RORE28_Yes-No Task_2019_Jun_11_1752_85,-1,2019_Jun_11_1752,Yes-No Task,2,RORE28,
Yes-No Task,10,0,10,0,5.7,-1,Hit,0.4375638403,True,-1,stimulus_RORE28_Yes-No Task_2019_Jun_11_1752_86,-1,2019_Jun_11_1752,Yes-No Task,2,RORE28,
Yes-No Task,11,0,11,0,5.7,-1,Hit,0.499844812788,True,-1,stimulus_RORE28_Yes-No Task_2019_Jun_11_1752_87,-1,2019_Jun_11_1752,Yes-No Task,2,RORE28,
Yes-No Task,12,0,12,0,5.7,-1,Hit,0.500115364324,True,-1,stimulus_RORE28_Yes-No Task_2019_Jun_11_1752_88,-1,2019_Jun_11_1752,Yes-No Task,2,RORE28,
Yes-No Task,13,0,13,0,5.7,-1,False Alarm,0.436152786016,False,-1,stimulus_RORE28_Yes-No Task_2019_Jun_11_1752_89,-1,2019_Jun_11_1752,Yes-No Task,2,RORE28,
Yes-No Task,14,0,14,0,5.7,-1,Hit,0.465628089383,True,-1,stimulus_RORE28_Yes-No Task_2019_Jun_11_1752_90,-1,2019_Jun_11_1752,Yes-No Task,2,RORE28,
Yes-No Task,15,0,15,0,5.7,-1,Correct Rejection,0.56863256311,False,-1,stimulus_RORE28_Yes-No Task_2019_Jun_11_1752_91,-1,2019_Jun_11_1752,Yes-No Task,2,RORE28,
Yes-No Task,16,0,16,0,5.7,-1,Hit,0.593270377256,True,-1,stimulus_RORE28_Yes-No Task_2019_Jun_11_1752_92,-1,2019_Jun_11_1752,Yes-No Task,2,RORE28,
Yes-No Task,17,0,17,0,5.7,-1,False Alarm,0.498247780837,False,-1,stimulus_RORE28_Yes-No Task_2019_Jun_11_1752_93,-1,2019_Jun_11_1752,Yes-No Task,2,RORE28,
Yes-No Task,18,0,18,0,5.7,-1,Correct Rejection,0.462511618156,False,-1,stimulus_RORE28_Yes-No Task_2019_Jun_11_1752_94,-1,2019_Jun_11_1752,Yes-No Task,2,RORE28,
Yes-No Task,19,0,19,0,5.7,-1,Correct Rejection,0.500664677471,False,-1,stimulus_RORE28_Yes-No Task_2019_Jun_11_1752_95,-1,2019_Jun_11_1752,Yes-No Task,2,RORE28,
Yes-No Task,20,0,20,0,5.7,-1,Correct Rejection,0.472248177975,False,-1,stimulus_RORE28_Yes-No Task_2019_Jun_11_1752_96,-1,2019_Jun_11_1752,Yes-No Task,2,RORE28,
Yes-No Task,21,0,21,0,5.7,-1,Hit,0.533850104082,True,-1,stimulus_RORE28_Yes-No Task_2019_Jun_11_1752_97,-1,2019_Jun_11_1752,Yes-No Task,2,RORE28,
Yes-No Task,22,0,22,0,5.7,-1,Hit,0.466152769979,True,-1,stimulus_RORE28_Yes-No Task_2019_Jun_11_1752_98,-1,2019_Jun_11_1752,Yes-No Task,2,RORE28,
Yes-No Task,23,0,23,0,5.7,-1,Correct Rejection,0.440234045032,False,-1,stimulus_RORE28_Yes-No Task_2019_Jun_11_1752_99,-1,2019_Jun_11_1752,Yes-No Task,2,RORE28,
Yes-No Task,24,0,24,0,5.7,-1,Correct Rejection,0.365748297889,False,-1,stimulus_RORE28_Yes-No Task_2019_Jun_11_1752_100,-1,2019_Jun_11_1752,Yes-No Task,2,RORE28,
Yes-No Task,25,0,25,0,5.7,-1,Correct Rejection,0.372997756582,False,-1,stimulus_RORE28_Yes-No Task_2019_Jun_11_1752_101,-1,2019_Jun_11_1752,Yes-No Task,2,RORE28,
Yes-No Task,26,0,26,0,5.7,-1,Miss,0.359119998291,True,-1,stimulus_RORE28_Yes-No Task_2019_Jun_11_1752_102,-1,2019_Jun_11_1752,Yes-No Task,2,RORE28,
Yes-No Task,27,0,27,0,5.7,-1,Hit,0.502215317916,True,-1,stimulus_RORE28_Yes-No Task_2019_Jun_11_1752_103,-1,2019_Jun_11_1752,Yes-No Task,2,RORE28,
Yes-No Task,28,0,28,0,5.7,-1,Correct Rejection,0.466227079276,False,-1,stimulus_RORE28_Yes-No Task_2019_Jun_11_1752_104,-1,2019_Jun_11_1752,Yes-No Task,2,RORE28,
Yes-No Task,29,0,29,0,5.7,-1,Correct Rejection,0.536373743322,False,-1,stimulus_RORE28_Yes-No Task_2019_Jun_11_1752_105,-1,2019_Jun_11_1752,Yes-No Task,2,RORE28,
Yes-No Task,30,0,30,0,5.7,-1,False Alarm,0.57051082002,False,-1,stimulus_RORE28_Yes-No Task_2019_Jun_11_1752_106,-1,2019_Jun_11_1752,Yes-No Task,2,RORE28,
Yes-No Task,31,0,31,0,5.7,-1,Correct Rejection,0.37009395007,False,-1,stimulus_RORE28_Yes-No Task_2019_Jun_11_1752_107,-1,2019_Jun_11_1752,Yes-No Task,2,RORE28,
Yes-No Task,32,0,32,0,5.7,-1,False Alarm,0.401064469479,False,-1,stimulus_RORE28_Yes-No Task_2019_Jun_11_1752_108,-1,2019_Jun_11_1752,Yes-No Task,2,RORE28,
Yes-No Task,33,0,33,0,5.7,-1,Miss,0.369339362253,True,-1,stimulus_RORE28_Yes-No Task_2019_Jun_11_1752_109,-1,2019_Jun_11_1752,Yes-No Task,2,RORE28,
Yes-No Task,34,0,34,0,5.7,-1,Hit,0.532925138716,True,-1,stimulus_RORE28_Yes-No Task_2019_Jun_11_1752_110,-1,2019_Jun_11_1752,Yes-No Task,2,RORE28,
Yes-No Task,35,0,35,0,5.7,-1,Hit,0.533007659018,True,-1,stimulus_RORE28_Yes-No Task_2019_Jun_11_1752_111,-1,2019_Jun_11_1752,Yes-No Task,2,RORE28,
Yes-No Task,36,0,36,0,5.7,-1,Correct Rejection,0.593296652194,False,-1,stimulus_RORE28_Yes-No Task_2019_Jun_11_1752_112,-1,2019_Jun_11_1752,Yes-No Task,2,RORE28,
Yes-No Task,37,0,37,0,5.7,-1,Hit,0.531687336508,True,-1,stimulus_RORE28_Yes-No Task_2019_Jun_11_1752_113,-1,2019_Jun_11_1752,Yes-No Task,2,RORE28,
Yes-No Task,38,0,38,0,5.7,-1,Correct Rejection,0.435263128486,False,-1,stimulus_RORE28_Yes-No Task_2019_Jun_11_1752_114,-1,2019_Jun_11_1752,Yes-No Task,2,RORE28,
Yes-No Task,39,0,39,0,5.7,-1,Hit,0.568626404274,True,-1,stimulus_RORE28_Yes-No Task_2019_Jun_11_1752_115,-1,2019_Jun_11_1752,Yes-No Task,2,RORE28,
Yes-No Task,40,0,40,0,5.7,-1,Correct Rejection,0.735345484223,False,-1,stimulus_RORE28_Yes-No Task_2019_Jun_11_1752_116,-1,2019_Jun_11_1752,Yes-No Task,2,RORE28,
Yes-No Task,41,0,41,0,5.7,-1,False Alarm,0.401661816519,False,-1,stimulus_RORE28_Yes-No Task_2019_Jun_11_1752_117,-1,2019_Jun_11_1752,Yes-No Task,2,RORE28,
Yes-No Task,42,0,42,0,5.7,-1,Hit,0.499123068992,True,-1,stimulus_RORE28_Yes-No Task_2019_Jun_11_1752_118,-1,2019_Jun_11_1752,Yes-No Task,2,RORE28,
Yes-No Task,43,0,43,0,5.7,-1,Correct Rejection,0.532993290108,False,-1,stimulus_RORE28_Yes-No Task_2019_Jun_11_1752_119,-1,2019_Jun_11_1752,Yes-No Task,2,RORE28,
Yes-No Task,44,0,44,0,5.7,-1,Miss,0.63534006523,True,-1,stimulus_RORE28_Yes-No Task_2019_Jun_11_1752_120,-1,2019_Jun_11_1752,Yes-No Task,2,RORE28,
Yes-No Task,45,0,45,0,5.7,-1,Hit,0.533712980803,True,-1,stimulus_RORE28_Yes-No Task_2019_Jun_11_1752_121,-1,2019_Jun_11_1752,Yes-No Task,2,RORE28,
Yes-No Task,46,0,46,0,5.7,-1,Hit,0.533070883714,True,-1,stimulus_RORE28_Yes-No Task_2019_Jun_11_1752_122,-1,2019_Jun_11_1752,Yes-No Task,2,RORE28,
Yes-No Task,47,0,47,0,5.7,-1,Hit,0.535317402799,True,-1,stimulus_RORE28_Yes-No Task_2019_Jun_11_1752_123,-1,2019_Jun_11_1752,Yes-No Task,2,RORE28,
Yes-No Task,48,0,48,0,5.7,-1,Hit,0.500203221571,True,-1,stimulus_RORE28_Yes-No Task_2019_Jun_11_1752_124,-1,2019_Jun_11_1752,Yes-No Task,2,RORE28,
Yes-No Task,49,0,49,0,5.7,-1,Hit,0.634006194305,True,-1,stimulus_RORE28_Yes-No Task_2019_Jun_11_1752_125,-1,2019_Jun_11_1752,Yes-No Task,2,RORE28,
Yes-No Task,50,0,50,0,5.7,-1,Correct Rejection,0.470271388534,False,-1,stimulus_RORE28_Yes-No Task_2019_Jun_11_1752_126,-1,2019_Jun_11_1752,Yes-No Task,2,RORE28,
Yes-No Task,51,0,51,0,5.7,-1,Correct Rejection,0.624990967568,False,-1,stimulus_RORE28_Yes-No Task_2019_Jun_11_1752_127,-1,2019_Jun_11_1752,Yes-No Task,2,RORE28,
Yes-No Task,52,0,52,0,5.7,-1,Hit,0.499396494124,True,-1,stimulus_RORE28_Yes-No Task_2019_Jun_11_1752_128,-1,2019_Jun_11_1752,Yes-No Task,2,RORE28,
Yes-No Task,53,0,53,0,5.7,-1,Hit,0.569170380477,True,-1,stimulus_RORE28_Yes-No Task_2019_Jun_11_1752_129,-1,2019_Jun_11_1752,Yes-No Task,2,RORE28,
Yes-No Task,54,0,54,0,5.7,-1,Hit,0.459005127195,True,-1,stimulus_RORE28_Yes-No Task_2019_Jun_11_1752_130,-1,2019_Jun_11_1752,Yes-No Task,2,RORE28,
Yes-No Task,55,0,55,0,5.7,-1,Hit,0.540482919663,True,-1,stimulus_RORE28_Yes-No Task_2019_Jun_11_1752_131,-1,2019_Jun_11_1752,Yes-No Task,2,RORE28,
Yes-No Task,56,0,56,0,5.7,-1,Hit,0.398578189779,True,-1,stimulus_RORE28_Yes-No Task_2019_Jun_11_1752_132,-1,2019_Jun_11_1752,Yes-No Task,2,RORE28,
Yes-No Task,57,0,57,0,5.7,-1,False Alarm,0.468870598823,False,-1,stimulus_RORE28_Yes-No Task_2019_Jun_11_1752_133,-1,2019_Jun_11_1752,Yes-No Task,2,RORE28,
Yes-No Task,58,0,58,0,5.7,-1,Miss,0.467834374867,True,-1,stimulus_RORE28_Yes-No Task_2019_Jun_11_1752_134,-1,2019_Jun_11_1752,Yes-No Task,2,RORE28,
Yes-No Task,59,0,59,0,5.7,-1,Correct Rejection,0.660677453969,False,-1,stimulus_RORE28_Yes-No Task_2019_Jun_11_1752_135,-1,2019_Jun_11_1752,Yes-No Task,2,RORE28,
Yes-No Task,60,0,60,0,5.7,-1,Correct Rejection,0.698901948053,False,-1,stimulus_RORE28_Yes-No Task_2019_Jun_11_1752_136,-1,2019_Jun_11_1752,Yes-No Task,2,RORE28,
Yes-No Task,61,0,61,0,5.7,-1,Correct Rejection,0.534177310765,False,-1,stimulus_RORE28_Yes-No Task_2019_Jun_11_1752_137,-1,2019_Jun_11_1752,Yes-No Task,2,RORE28,
Yes-No Task,62,0,62,0,5.7,-1,False Alarm,0.666997021064,False,-1,stimulus_RORE28_Yes-No Task_2019_Jun_11_1752_138,-1,2019_Jun_11_1752,Yes-No Task,2,RORE28,
Yes-No Task,63,0,63,0,5.7,-1,Hit,0.568611624651,True,-1,stimulus_RORE28_Yes-No Task_2019_Jun_11_1752_139,-1,2019_Jun_11_1752,Yes-No Task,2,RORE28,
Yes-No Task,64,0,64,0,5.7,-1,Correct Rejection,0.399382864125,False,-1,stimulus_RORE28_Yes-No Task_2019_Jun_11_1752_140,-1,2019_Jun_11_1752,Yes-No Task,2,RORE28,
Yes-No Task,65,0,65,0,5.7,-1,Miss,0.634172466584,True,-1,stimulus_RORE28_Yes-No Task_2019_Jun_11_1752_141,-1,2019_Jun_11_1752,Yes-No Task,2,RORE28,
Yes-No Task,66,0,66,0,5.7,-1,Correct Rejection,0.569679870736,False,-1,stimulus_RORE28_Yes-No Task_2019_Jun_11_1752_142,-1,2019_Jun_11_1752,Yes-No Task,2,RORE28,
Yes-No Task,67,0,67,0,5.7,-1,False Alarm,0.593152550049,False,-1,stimulus_RORE28_Yes-No Task_2019_Jun_11_1752_143,-1,2019_Jun_11_1752,Yes-No Task,2,RORE28,
Yes-No Task,68,0,68,0,5.7,-1,Correct Rejection,0.435505762696,False,-1,stimulus_RORE28_Yes-No Task_2019_Jun_11_1752_144,-1,2019_Jun_11_1752,Yes-No Task,2,RORE28,
Yes-No Task,69,0,69,0,5.7,-1,False Alarm,0.60329226777,False,-1,stimulus_RORE28_Yes-No Task_2019_Jun_11_1752_145,-1,2019_Jun_11_1752,Yes-No Task,2,RORE28,
Yes-No Task,70,0,70,0,5.7,-1,Correct Rejection,0.433454253245,False,-1,stimulus_RORE28_Yes-No Task_2019_Jun_11_1752_146,-1,2019_Jun_11_1752,Yes-No Task,2,RORE28,
Yes-No Task,71,0,71,0,5.7,-1,Correct Rejection,0.535661442205,False,-1,stimulus_RORE28_Yes-No Task_2019_Jun_11_1752_147,-1,2019_Jun_11_1752,Yes-No Task,2,RORE28,
Yes-No Task,72,0,72,0,5.7,-1,Miss,0.868786354084,True,-1,stimulus_RORE28_Yes-No Task_2019_Jun_11_1752_148,-1,2019_Jun_11_1752,Yes-No Task,2,RORE28,
Yes-No Task,73,0,73,0,5.7,-1,Hit,0.568024541251,True,-1,stimulus_RORE28_Yes-No Task_2019_Jun_11_1752_149,-1,2019_Jun_11_1752,Yes-No Task,2,RORE28,
Yes-No Task,74,0,74,0,5.7,-1,Hit,0.557561311405,True,-1,stimulus_RORE28_Yes-No Task_2019_Jun_11_1752_150,-1,2019_Jun_11_1752,Yes-No Task,2,RORE28,
Yes-No Task,0,0,0,0,1.4,-1,Correct Rejection,0.601481750607,False,-1,stimulus_RORE28_Yes-No Task_2019_Jun_11_1752_151,-1,2019_Jun_11_1752,Yes-No Task,2,RORE28,
Yes-No Task,1,0,1,0,1.4,-1,Correct Rejection,0.433122941293,False,-1,stimulus_RORE28_Yes-No Task_2019_Jun_11_1752_152,-1,2019_Jun_11_1752,Yes-No Task,2,RORE28,
Yes-No Task,2,0,2,0,1.4,-1,Miss,0.400141967461,True,-1,stimulus_RORE28_Yes-No Task_2019_Jun_11_1752_153,-1,2019_Jun_11_1752,Yes-No Task,2,RORE28,
Yes-No Task,3,0,3,0,1.4,-1,Correct Rejection,0.467227584682,False,-1,stimulus_RORE28_Yes-No Task_2019_Jun_11_1752_154,-1,2019_Jun_11_1752,Yes-No Task,2,RORE28,
Yes-No Task,4,0,4,0,1.4,-1,Correct Rejection,0.591951696202,False,-1,stimulus_RORE28_Yes-No Task_2019_Jun_11_1752_155,-1,2019_Jun_11_1752,Yes-No Task,2,RORE28,
Yes-No Task,5,0,5,0,1.4,-1,Correct Rejection,0.570980898105,False,-1,stimulus_RORE28_Yes-No Task_2019_Jun_11_1752_156,-1,2019_Jun_11_1752,Yes-No Task,2,RORE28,
Yes-No Task,6,0,6,0,1.4,-1,Correct Rejection,0.531927507371,False,-1,stimulus_RORE28_Yes-No Task_2019_Jun_11_1752_157,-1,2019_Jun_11_1752,Yes-No Task,2,RORE28,
Yes-No Task,7,0,7,0,1.4,-1,Correct Rejection,0.526490207762,False,-1,stimulus_RORE28_Yes-No Task_2019_Jun_11_1752_158,-1,2019_Jun_11_1752,Yes-No Task,2,RORE28,
Yes-No Task,8,0,8,0,1.4,-1,Miss,0.466301388107,True,-1,stimulus_RORE28_Yes-No Task_2019_Jun_11_1752_159,-1,2019_Jun_11_1752,Yes-No Task,2,RORE28,
Yes-No Task,9,0,9,0,1.4,-1,False Alarm,0.532476820052,False,-1,stimulus_RORE28_Yes-No Task_2019_Jun_11_1752_160,-1,2019_Jun_11_1752,Yes-No Task,2,RORE28,
Yes-No Task,10,0,10,0,1.4,-1,Miss,0.334002252668,True,-1,stimulus_RORE28_Yes-No Task_2019_Jun_11_1752_161,-1,2019_Jun_11_1752,Yes-No Task,2,RORE28,
Yes-No Task,11,0,11,0,1.4,-1,Miss,0.437455045059,True,-1,stimulus_RORE28_Yes-No Task_2019_Jun_11_1752_162,-1,2019_Jun_11_1752,Yes-No Task,2,RORE28,
Yes-No Task,12,0,12,0,1.4,-1,Correct Rejection,0.332524279598,False,-1,stimulus_RORE28_Yes-No Task_2019_Jun_11_1752_163,-1,2019_Jun_11_1752,Yes-No Task,2,RORE28,
Yes-No Task,13,0,13,0,1.4,-1,Correct Rejection,0.402983781882,False,-1,stimulus_RORE28_Yes-No Task_2019_Jun_11_1752_164,-1,2019_Jun_11_1752,Yes-No Task,2,RORE28,
Yes-No Task,14,0,14,0,1.4,-1,Correct Rejection,0.400162495207,False,-1,stimulus_RORE28_Yes-No Task_2019_Jun_11_1752_165,-1,2019_Jun_11_1752,Yes-No Task,2,RORE28,
Yes-No Task,15,0,15,0,1.4,-1,Miss,0.468304452486,True,-1,stimulus_RORE28_Yes-No Task_2019_Jun_11_1752_166,-1,2019_Jun_11_1752,Yes-No Task,2,RORE28,
Yes-No Task,16,0,16,0,1.4,-1,Hit,0.566259594634,True,-1,stimulus_RORE28_Yes-No Task_2019_Jun_11_1752_167,-1,2019_Jun_11_1752,Yes-No Task,2,RORE28,
Yes-No Task,17,0,17,0,1.4,-1,Hit,0.629413802642,True,-1,stimulus_RORE28_Yes-No Task_2019_Jun_11_1752_168,-1,2019_Jun_11_1752,Yes-No Task,2,RORE28,
Yes-No Task,18,0,18,0,1.4,-1,Miss,0.5268814601,True,-1,stimulus_RORE28_Yes-No Task_2019_Jun_11_1752_169,-1,2019_Jun_11_1752,Yes-No Task,2,RORE28,
Yes-No Task,19,0,19,0,1.4,-1,Correct Rejection,0.76978185121,False,-1,stimulus_RORE28_Yes-No Task_2019_Jun_11_1752_170,-1,2019_Jun_11_1752,Yes-No Task,2,RORE28,
Yes-No Task,20,0,20,0,1.4,-1,Correct Rejection,0.432162258308,False,-1,stimulus_RORE28_Yes-No Task_2019_Jun_11_1752_171,-1,2019_Jun_11_1752,Yes-No Task,2,RORE28,
Yes-No Task,21,0,21,0,1.4,-1,Correct Rejection,0.501817907207,False,-1,stimulus_RORE28_Yes-No Task_2019_Jun_11_1752_172,-1,2019_Jun_11_1752,Yes-No Task,2,RORE28,
Yes-No Task,22,0,22,0,1.4,-1,Correct Rejection,0.332876530476,False,-1,stimulus_RORE28_Yes-No Task_2019_Jun_11_1752_173,-1,2019_Jun_11_1752,Yes-No Task,2,RORE28,
Yes-No Task,23,0,23,0,1.4,-1,Correct Rejection,0.601461633574,False,-1,stimulus_RORE28_Yes-No Task_2019_Jun_11_1752_174,-1,2019_Jun_11_1752,Yes-No Task,2,RORE28,
Yes-No Task,24,0,24,0,1.4,-1,Correct Rejection,0.468040470034,False,-1,stimulus_RORE28_Yes-No Task_2019_Jun_11_1752_175,-1,2019_Jun_11_1752,Yes-No Task,2,RORE28,
Yes-No Task,25,0,25,0,1.4,-1,Hit,0.53517617425,True,-1,stimulus_RORE28_Yes-No Task_2019_Jun_11_1752_176,-1,2019_Jun_11_1752,Yes-No Task,2,RORE28,
Yes-No Task,26,0,26,0,1.4,-1,Miss,0.568536494393,True,-1,stimulus_RORE28_Yes-No Task_2019_Jun_11_1752_177,-1,2019_Jun_11_1752,Yes-No Task,2,RORE28,
Yes-No Task,27,0,27,0,1.4,-1,Hit,0.434247432277,True,-1,stimulus_RORE28_Yes-No Task_2019_Jun_11_1752_178,-1,2019_Jun_11_1752,Yes-No Task,2,RORE28,
Yes-No Task,28,0,28,0,1.4,-1,Correct Rejection,0.424439026974,False,-1,stimulus_RORE28_Yes-No Task_2019_Jun_11_1752_179,-1,2019_Jun_11_1752,Yes-No Task,2,RORE28,
Yes-No Task,29,0,29,0,1.4,-1,Hit,0.437822075095,True,-1,stimulus_RORE28_Yes-No Task_2019_Jun_11_1752_180,-1,2019_Jun_11_1752,Yes-No Task,2,RORE28,
Yes-No Task,30,0,30,0,1.4,-1,Miss,0.531903284602,True,-1,stimulus_RORE28_Yes-No Task_2019_Jun_11_1752_181,-1,2019_Jun_11_1752,Yes-No Task,2,RORE28,
Yes-No Task,31,0,31,0,1.4,-1,Correct Rejection,0.499909268692,False,-1,stimulus_RORE28_Yes-No Task_2019_Jun_11_1752_182,-1,2019_Jun_11_1752,Yes-No Task,2,RORE28,
Yes-No Task,32,0,32,0,1.4,-1,False Alarm,0.599761553574,False,-1,stimulus_RORE28_Yes-No Task_2019_Jun_11_1752_183,-1,2019_Jun_11_1752,Yes-No Task,2,RORE28,
Yes-No Task,33,0,33,0,1.4,-1,Miss,0.524928071536,True,-1,stimulus_RORE28_Yes-No Task_2019_Jun_11_1752_184,-1,2019_Jun_11_1752,Yes-No Task,2,RORE28,
Yes-No Task,34,0,34,0,1.4,-1,Hit,0.568289344665,True,-1,stimulus_RORE28_Yes-No Task_2019_Jun_11_1752_185,-1,2019_Jun_11_1752,Yes-No Task,2,RORE28,
Yes-No Task,35,0,35,0,1.4,-1,False Alarm,0.524065920617,False,-1,stimulus_RORE28_Yes-No Task_2019_Jun_11_1752_186,-1,2019_Jun_11_1752,Yes-No Task,2,RORE28,
Yes-No Task,36,0,36,0,1.4,-1,Correct Rejection,0.724799735006,False,-1,stimulus_RORE28_Yes-No Task_2019_Jun_11_1752_187,-1,2019_Jun_11_1752,Yes-No Task,2,RORE28,
Yes-No Task,37,0,37,0,1.4,-1,Hit,0.604298520833,True,-1,stimulus_RORE28_Yes-No Task_2019_Jun_11_1752_188,-1,2019_Jun_11_1752,Yes-No Task,2,RORE28,
Yes-No Task,38,0,38,0,1.4,-1,Hit,0.504778780509,True,-1,stimulus_RORE28_Yes-No Task_2019_Jun_11_1752_189,-1,2019_Jun_11_1752,Yes-No Task,2,RORE28,
Yes-No Task,39,0,39,0,1.4,-1,Hit,0.496854790486,True,-1,stimulus_RORE28_Yes-No Task_2019_Jun_11_1752_190,-1,2019_Jun_11_1752,Yes-No Task,2,RORE28,
Yes-No Task,40,0,40,0,1.4,-1,False Alarm,0.602276982274,False,-1,stimulus_RORE28_Yes-No Task_2019_Jun_11_1752_191,-1,2019_Jun_11_1752,Yes-No Task,2,RORE28,
Yes-No Task,41,0,41,0,1.4,-1,Miss,0.567577453796,True,-1,stimulus_RORE28_Yes-No Task_2019_Jun_11_1752_192,-1,2019_Jun_11_1752,Yes-No Task,2,RORE28,
Yes-No Task,42,0,42,0,1.4,-1,Miss,0.635362645146,True,-1,stimulus_RORE28_Yes-No Task_2019_Jun_11_1752_193,-1,2019_Jun_11_1752,Yes-No Task,2,RORE28,
Yes-No Task,43,0,43,0,1.4,-1,Miss,0.568673206959,True,-1,stimulus_RORE28_Yes-No Task_2019_Jun_11_1752_194,-1,2019_Jun_11_1752,Yes-No Task,2,RORE28,
Yes-No Task,44,0,44,0,1.4,-1,Correct Rejection,0.664508278482,False,-1,stimulus_RORE28_Yes-No Task_2019_Jun_11_1752_195,-1,2019_Jun_11_1752,Yes-No Task,2,RORE28,
Yes-No Task,45,0,45,0,1.4,-1,Hit,0.497486213688,True,-1,stimulus_RORE28_Yes-No Task_2019_Jun_11_1752_196,-1,2019_Jun_11_1752,Yes-No Task,2,RORE28,
Yes-No Task,46,0,46,0,1.4,-1,False Alarm,0.637908454519,False,-1,stimulus_RORE28_Yes-No Task_2019_Jun_11_1752_197,-1,2019_Jun_11_1752,Yes-No Task,2,RORE28,
Yes-No Task,47,0,47,0,1.4,-1,Correct Rejection,0.533532750327,False,-1,stimulus_RORE28_Yes-No Task_2019_Jun_11_1752_198,-1,2019_Jun_11_1752,Yes-No Task,2,RORE28,
Yes-No Task,48,0,48,0,1.4,-1,Correct Rejection,0.529583277181,False,-1,stimulus_RORE28_Yes-No Task_2019_Jun_11_1752_199,-1,2019_Jun_11_1752,Yes-No Task,2,RORE28,
Yes-No Task,49,0,49,0,1.4,-1,False Alarm,0.693972496781,False,-1,stimulus_RORE28_Yes-No Task_2019_Jun_11_1752_200,-1,2019_Jun_11_1752,Yes-No Task,2,RORE28,
Yes-No Task,50,0,50,0,1.4,-1,False Alarm,0.499882993754,False,-1,stimulus_RORE28_Yes-No Task_2019_Jun_11_1752_201,-1,2019_Jun_11_1752,Yes-No Task,2,RORE28,
Yes-No Task,51,0,51,0,1.4,-1,False Alarm,0.668098521885,False,-1,stimulus_RORE28_Yes-No Task_2019_Jun_11_1752_202,-1,2019_Jun_11_1752,Yes-No Task,2,RORE28,
Yes-No Task,52,0,52,0,1.4,-1,Hit,0.626262845937,True,-1,stimulus_RORE28_Yes-No Task_2019_Jun_11_1752_203,-1,2019_Jun_11_1752,Yes-No Task,2,RORE28,
Yes-No Task,53,0,53,0,1.4,-1,Correct Rejection,0.569491429254,False,-1,stimulus_RORE28_Yes-No Task_2019_Jun_11_1752_204,-1,2019_Jun_11_1752,Yes-No Task,2,RORE28,
Yes-No Task,54,0,54,0,1.4,-1,Miss,0.529625563882,True,-1,stimulus_RORE28_Yes-No Task_2019_Jun_11_1752_205,-1,2019_Jun_11_1752,Yes-No Task,2,RORE28,
Yes-No Task,55,0,55,0,1.4,-1,Miss,0.569463922642,True,-1,stimulus_RORE28_Yes-No Task_2019_Jun_11_1752_206,-1,2019_Jun_11_1752,Yes-No Task,2,RORE28,
Yes-No Task,56,0,56,0,1.4,-1,False Alarm,0.500341986772,False,-1,stimulus_RORE28_Yes-No Task_2019_Jun_11_1752_207,-1,2019_Jun_11_1752,Yes-No Task,2,RORE28,
Yes-No Task,57,0,57,0,1.4,-1,Correct Rejection,0.470945509151,False,-1,stimulus_RORE28_Yes-No Task_2019_Jun_11_1752_208,-1,2019_Jun_11_1752,Yes-No Task,2,RORE28,
Yes-No Task,58,0,58,0,1.4,-1,Miss,0.467154917773,True,-1,stimulus_RORE28_Yes-No Task_2019_Jun_11_1752_209,-1,2019_Jun_11_1752,Yes-No Task,2,RORE28,
Yes-No Task,59,0,59,0,1.4,-1,False Alarm,0.429198101163,False,-1,stimulus_RORE28_Yes-No Task_2019_Jun_11_1752_210,-1,2019_Jun_11_1752,Yes-No Task,2,RORE28,
Yes-No Task,60,0,60,0,1.4,-1,Miss,0.602125900332,True,-1,stimulus_RORE28_Yes-No Task_2019_Jun_11_1752_211,-1,2019_Jun_11_1752,Yes-No Task,2,RORE28,
Yes-No Task,61,0,61,0,1.4,-1,Miss,0.39974784106,True,-1,stimulus_RORE28_Yes-No Task_2019_Jun_11_1752_212,-1,2019_Jun_11_1752,Yes-No Task,2,RORE28,
Yes-No Task,62,0,62,0,1.4,-1,Correct Rejection,0.702077537775,False,-1,stimulus_RORE28_Yes-No Task_2019_Jun_11_1752_213,-1,2019_Jun_11_1752,Yes-No Task,2,RORE28,
Yes-No Task,63,0,63,0,1.4,-1,Miss,0.568466701079,True,-1,stimulus_RORE28_Yes-No Task_2019_Jun_11_1752_214,-1,2019_Jun_11_1752,Yes-No Task,2,RORE28,
Yes-No Task,64,0,64,0,1.4,-1,Miss,0.566216897685,True,-1,stimulus_RORE28_Yes-No Task_2019_Jun_11_1752_215,-1,2019_Jun_11_1752,Yes-No Task,2,RORE28,
Yes-No Task,65,0,65,0,1.4,-1,Miss,0.707639233209,True,-1,stimulus_RORE28_Yes-No Task_2019_Jun_11_1752_216,-1,2019_Jun_11_1752,Yes-No Task,2,RORE28,
Yes-No Task,66,0,66,0,1.4,-1,Correct Rejection,0.537024461664,False,-1,stimulus_RORE28_Yes-No Task_2019_Jun_11_1752_217,-1,2019_Jun_11_1752,Yes-No Task,2,RORE28,
Yes-No Task,67,0,67,0,1.4,-1,Correct Rejection,0.633482745383,False,-1,stimulus_RORE28_Yes-No Task_2019_Jun_11_1752_218,-1,2019_Jun_11_1752,Yes-No Task,2,RORE28,
Yes-No Task,68,0,68,0,1.4,-1,Miss,0.524074542336,True,-1,stimulus_RORE28_Yes-No Task_2019_Jun_11_1752_219,-1,2019_Jun_11_1752,Yes-No Task,2,RORE28,
Yes-No Task,69,0,69,0,1.4,-1,Miss,0.610015403479,True,-1,stimulus_RORE28_Yes-No Task_2019_Jun_11_1752_220,-1,2019_Jun_11_1752,Yes-No Task,2,RORE28,
Yes-No Task,70,0,70,0,1.4,-1,Hit,0.502164409962,True,-1,stimulus_RORE28_Yes-No Task_2019_Jun_11_1752_221,-1,2019_Jun_11_1752,Yes-No Task,2,RORE28,
Yes-No Task,71,0,71,0,1.4,-1,False Alarm,0.500406031962,False,-1,stimulus_RORE28_Yes-No Task_2019_Jun_11_1752_222,-1,2019_Jun_11_1752,Yes-No Task,2,RORE28,
Yes-No Task,72,0,72,0,1.4,-1,Miss,0.46851629531,True,-1,stimulus_RORE28_Yes-No Task_2019_Jun_11_1752_223,-1,2019_Jun_11_1752,Yes-No Task,2,RORE28,
Yes-No Task,73,0,73,0,1.4,-1,Correct Rejection,0.566381116398,False,-1,stimulus_RORE28_Yes-No Task_2019_Jun_11_1752_224,-1,2019_Jun_11_1752,Yes-No Task,2,RORE28,
Yes-No Task,74,0,74,0,1.4,-1,Correct Rejection,0.601803620346,False,-1,stimulus_RORE28_Yes-No Task_2019_Jun_11_1752_225,-1,2019_Jun_11_1752,Yes-No Task,2,RORE28,
Yes-No Task,0,0,0,0,3.7,-1,No Answer,-1,False,-1,stimulus_RORE28_Yes-No Task_2019_Jun_11_1752_226,-1,2019_Jun_11_1752,Yes-No Task,2,RORE28,
Yes-No Task,1,0,1,0,3.7,-1,Miss,0.43387547601,True,-1,stimulus_RORE28_Yes-No Task_2019_Jun_11_1752_227,-1,2019_Jun_11_1752,Yes-No Task,2,RORE28,
Yes-No Task,2,0,2,0,3.7,-1,Correct Rejection,0.566244404297,False,-1,stimulus_RORE28_Yes-No Task_2019_Jun_11_1752_228,-1,2019_Jun_11_1752,Yes-No Task,2,RORE28,
Yes-No Task,3,0,3,0,3.7,-1,Miss,0.501174988691,True,-1,stimulus_RORE28_Yes-No Task_2019_Jun_11_1752_229,-1,2019_Jun_11_1752,Yes-No Task,2,RORE28,
Yes-No Task,4,0,4,0,3.7,-1,Hit,0.53378318483,True,-1,stimulus_RORE28_Yes-No Task_2019_Jun_11_1752_230,-1,2019_Jun_11_1752,Yes-No Task,2,RORE28,
Yes-No Task,5,0,5,0,3.7,-1,Hit,0.569704914466,True,-1,stimulus_RORE28_Yes-No Task_2019_Jun_11_1752_231,-1,2019_Jun_11_1752,Yes-No Task,2,RORE28,
Yes-No Task,6,0,6,0,3.7,-1,Hit,0.432893855032,True,-1,stimulus_RORE28_Yes-No Task_2019_Jun_11_1752_232,-1,2019_Jun_11_1752,Yes-No Task,2,RORE28,
Yes-No Task,7,0,7,0,3.7,-1,Miss,0.500681099482,True,-1,stimulus_RORE28_Yes-No Task_2019_Jun_11_1752_233,-1,2019_Jun_11_1752,Yes-No Task,2,RORE28,
Yes-No Task,8,0,8,0,3.7,-1,False Alarm,0.467313389294,False,-1,stimulus_RORE28_Yes-No Task_2019_Jun_11_1752_234,-1,2019_Jun_11_1752,Yes-No Task,2,RORE28,
Yes-No Task,9,0,9,0,3.7,-1,Hit,0.501645477023,True,-1,stimulus_RORE28_Yes-No Task_2019_Jun_11_1752_235,-1,2019_Jun_11_1752,Yes-No Task,2,RORE28,
Yes-No Task,10,0,10,0,3.7,-1,Hit,0.568439194467,True,-1,stimulus_RORE28_Yes-No Task_2019_Jun_11_1752_236,-1,2019_Jun_11_1752,Yes-No Task,2,RORE28,
Yes-No Task,11,0,11,0,3.7,-1,False Alarm,0.566849141847,False,-1,stimulus_RORE28_Yes-No Task_2019_Jun_11_1752_237,-1,2019_Jun_11_1752,Yes-No Task,2,RORE28,
Yes-No Task,12,0,12,0,3.7,-1,Miss,0.666997431777,True,-1,stimulus_RORE28_Yes-No Task_2019_Jun_11_1752_238,-1,2019_Jun_11_1752,Yes-No Task,2,RORE28,
Yes-No Task,13,0,13,0,3.7,-1,False Alarm,0.502048224676,False,-1,stimulus_RORE28_Yes-No Task_2019_Jun_11_1752_239,-1,2019_Jun_11_1752,Yes-No Task,2,RORE28,
Yes-No Task,14,0,14,0,3.7,-1,Correct Rejection,0.559664959554,False,-1,stimulus_RORE28_Yes-No Task_2019_Jun_11_1752_240,-1,2019_Jun_11_1752,Yes-No Task,2,RORE28,
Yes-No Task,15,0,15,0,3.7,-1,Miss,0.501680783927,True,-1,stimulus_RORE28_Yes-No Task_2019_Jun_11_1752_241,-1,2019_Jun_11_1752,Yes-No Task,2,RORE28,
Yes-No Task,16,0,16,0,3.7,-1,Hit,0.634151117876,True,-1,stimulus_RORE28_Yes-No Task_2019_Jun_11_1752_242,-1,2019_Jun_11_1752,Yes-No Task,2,RORE28,
Yes-No Task,17,0,17,0,3.7,-1,Correct Rejection,0.532340929378,False,-1,stimulus_RORE28_Yes-No Task_2019_Jun_11_1752_243,-1,2019_Jun_11_1752,Yes-No Task,2,RORE28,
Yes-No Task,18,0,18,0,3.7,-1,Miss,0.442954747472,True,-1,stimulus_RORE28_Yes-No Task_2019_Jun_11_1752_244,-1,2019_Jun_11_1752,Yes-No Task,2,RORE28,
Yes-No Task,19,0,19,0,3.7,-1,Hit,0.502186168451,True,-1,stimulus_RORE28_Yes-No Task_2019_Jun_11_1752_245,-1,2019_Jun_11_1752,Yes-No Task,2,RORE28,
Yes-No Task,20,0,20,0,3.7,-1,Hit,0.435157206841,True,-1,stimulus_RORE28_Yes-No Task_2019_Jun_11_1752_246,-1,2019_Jun_11_1752,Yes-No Task,2,RORE28,
Yes-No Task,21,0,21,0,3.7,-1,False Alarm,0.434225673322,False,-1,stimulus_RORE28_Yes-No Task_2019_Jun_11_1752_247,-1,2019_Jun_11_1752,Yes-No Task,2,RORE28,
Yes-No Task,22,0,22,0,3.7,-1,Correct Rejection,0.392392461188,False,-1,stimulus_RORE28_Yes-No Task_2019_Jun_11_1752_248,-1,2019_Jun_11_1752,Yes-No Task,2,RORE28,
Yes-No Task,23,0,23,0,3.7,-1,Miss,0.535096528009,True,-1,stimulus_RORE28_Yes-No Task_2019_Jun_11_1752_249,-1,2019_Jun_11_1752,Yes-No Task,2,RORE28,
Yes-No Task,24,0,24,0,3.7,-1,Hit,0.500885552727,True,-1,stimulus_RORE28_Yes-No Task_2019_Jun_11_1752_250,-1,2019_Jun_11_1752,Yes-No Task,2,RORE28,
Yes-No Task,25,0,25,0,3.7,-1,Hit,0.602570934687,True,-1,stimulus_RORE28_Yes-No Task_2019_Jun_11_1752_251,-1,2019_Jun_11_1752,Yes-No Task,2,RORE28,
Yes-No Task,26,0,26,0,3.7,-1,Hit,0.701000259724,True,-1,stimulus_RORE28_Yes-No Task_2019_Jun_11_1752_252,-1,2019_Jun_11_1752,Yes-No Task,2,RORE28,
Yes-No Task,27,0,27,0,3.7,-1,Hit,0.466116230935,True,-1,stimulus_RORE28_Yes-No Task_2019_Jun_11_1752_253,-1,2019_Jun_11_1752,Yes-No Task,2,RORE28,
Yes-No Task,28,0,28,0,3.7,-1,Hit,0.493670990225,True,-1,stimulus_RORE28_Yes-No Task_2019_Jun_11_1752_254,-1,2019_Jun_11_1752,Yes-No Task,2,RORE28,
Yes-No Task,29,0,29,0,3.7,-1,Correct Rejection,0.566295722965,False,-1,stimulus_RORE28_Yes-No Task_2019_Jun_11_1752_255,-1,2019_Jun_11_1752,Yes-No Task,2,RORE28,
Yes-No Task,30,0,30,0,3.7,-1,Correct Rejection,0.688224001788,False,-1,stimulus_RORE28_Yes-No Task_2019_Jun_11_1752_256,-1,2019_Jun_11_1752,Yes-No Task,2,RORE28,
Yes-No Task,31,0,31,0,3.7,-1,Hit,0.472069589421,True,-1,stimulus_RORE28_Yes-No Task_2019_Jun_11_1752_257,-1,2019_Jun_11_1752,Yes-No Task,2,RORE28,
Yes-No Task,32,0,32,0,3.7,-1,False Alarm,0.525801307522,False,-1,stimulus_RORE28_Yes-No Task_2019_Jun_11_1752_258,-1,2019_Jun_11_1752,Yes-No Task,2,RORE28,
Yes-No Task,33,0,33,0,3.7,-1,Miss,0.532540865708,True,-1,stimulus_RORE28_Yes-No Task_2019_Jun_11_1752_259,-1,2019_Jun_11_1752,Yes-No Task,2,RORE28,
Yes-No Task,34,0,34,0,3.7,-1,Correct Rejection,0.536180375144,False,-1,stimulus_RORE28_Yes-No Task_2019_Jun_11_1752_260,-1,2019_Jun_11_1752,Yes-No Task,2,RORE28,
Yes-No Task,35,0,35,0,3.7,-1,Miss,0.533110707067,True,-1,stimulus_RORE28_Yes-No Task_2019_Jun_11_1752_261,-1,2019_Jun_11_1752,Yes-No Task,2,RORE28,
Yes-No Task,36,0,36,0,3.7,-1,Hit,0.700966594275,True,-1,stimulus_RORE28_Yes-No Task_2019_Jun_11_1752_262,-1,2019_Jun_11_1752,Yes-No Task,2,RORE28,
Yes-No Task,37,0,37,0,3.7,-1,Correct Rejection,0.592932085507,False,-1,stimulus_RORE28_Yes-No Task_2019_Jun_11_1752_263,-1,2019_Jun_11_1752,Yes-No Task,2,RORE28,
Yes-No Task,38,0,38,0,3.7,-1,Hit,0.559152184986,True,-1,stimulus_RORE28_Yes-No Task_2019_Jun_11_1752_264,-1,2019_Jun_11_1752,Yes-No Task,2,RORE28,
Yes-No Task,39,0,39,0,3.7,-1,Hit,0.492907781154,True,-1,stimulus_RORE28_Yes-No Task_2019_Jun_11_1752_265,-1,2019_Jun_11_1752,Yes-No Task,2,RORE28,
Yes-No Task,40,0,40,0,3.7,-1,Hit,0.599959027488,True,-1,stimulus_RORE28_Yes-No Task_2019_Jun_11_1752_266,-1,2019_Jun_11_1752,Yes-No Task,2,RORE28,
Yes-No Task,41,0,41,0,3.7,-1,Miss,0.565286184661,True,-1,stimulus_RORE28_Yes-No Task_2019_Jun_11_1752_267,-1,2019_Jun_11_1752,Yes-No Task,2,RORE28,
Yes-No Task,42,0,42,0,3.7,-1,Correct Rejection,0.597601249348,False,-1,stimulus_RORE28_Yes-No Task_2019_Jun_11_1752_268,-1,2019_Jun_11_1752,Yes-No Task,2,RORE28,
Yes-No Task,43,0,43,0,3.7,-1,Hit,0.558195197489,True,-1,stimulus_RORE28_Yes-No Task_2019_Jun_11_1752_269,-1,2019_Jun_11_1752,Yes-No Task,2,RORE28,
Yes-No Task,44,0,44,0,3.7,-1,False Alarm,0.465278302319,False,-1,stimulus_RORE28_Yes-No Task_2019_Jun_11_1752_270,-1,2019_Jun_11_1752,Yes-No Task,2,RORE28,
Yes-No Task,45,0,45,0,3.7,-1,Hit,0.535610123537,True,-1,stimulus_RORE28_Yes-No Task_2019_Jun_11_1752_271,-1,2019_Jun_11_1752,Yes-No Task,2,RORE28,
Yes-No Task,46,0,46,0,3.7,-1,Hit,0.589414509013,True,-1,stimulus_RORE28_Yes-No Task_2019_Jun_11_1752_272,-1,2019_Jun_11_1752,Yes-No Task,2,RORE28,
Yes-No Task,47,0,47,0,3.7,-1,Correct Rejection,0.636026501656,False,-1,stimulus_RORE28_Yes-No Task_2019_Jun_11_1752_273,-1,2019_Jun_11_1752,Yes-No Task,2,RORE28,
Yes-No Task,48,0,48,0,3.7,-1,Hit,0.672625225503,True,-1,stimulus_RORE28_Yes-No Task_2019_Jun_11_1752_274,-1,2019_Jun_11_1752,Yes-No Task,2,RORE28,
Yes-No Task,49,0,49,0,3.7,-1,Hit,0.572355824057,True,-1,stimulus_RORE28_Yes-No Task_2019_Jun_11_1752_275,-1,2019_Jun_11_1752,Yes-No Task,2,RORE28,
Yes-No Task,50,0,50,0,3.7,-1,Hit,0.800974066835,True,-1,stimulus_RORE28_Yes-No Task_2019_Jun_11_1752_276,-1,2019_Jun_11_1752,Yes-No Task,2,RORE28,
Yes-No Task,51,0,51,0,3.7,-1,Miss,0.697342275642,True,-1,stimulus_RORE28_Yes-No Task_2019_Jun_11_1752_277,-1,2019_Jun_11_1752,Yes-No Task,2,RORE28,
Yes-No Task,52,0,52,0,3.7,-1,Hit,0.634072292596,True,-1,stimulus_RORE28_Yes-No Task_2019_Jun_11_1752_278,-1,2019_Jun_11_1752,Yes-No Task,2,RORE28,
Yes-No Task,53,0,53,0,3.7,-1,False Alarm,0.495317287743,False,-1,stimulus_RORE28_Yes-No Task_2019_Jun_11_1752_279,-1,2019_Jun_11_1752,Yes-No Task,2,RORE28,
Yes-No Task,54,0,54,0,3.7,-1,Hit,0.799900072627,True,-1,stimulus_RORE28_Yes-No Task_2019_Jun_11_1752_280,-1,2019_Jun_11_1752,Yes-No Task,2,RORE28,
Yes-No Task,55,0,55,0,3.7,-1,Hit,0.532650072128,True,-1,stimulus_RORE28_Yes-No Task_2019_Jun_11_1752_281,-1,2019_Jun_11_1752,Yes-No Task,2,RORE28,
Yes-No Task,56,0,56,0,3.7,-1,Correct Rejection,0.592405352276,False,-1,stimulus_RORE28_Yes-No Task_2019_Jun_11_1752_282,-1,2019_Jun_11_1752,Yes-No Task,2,RORE28,
Yes-No Task,57,0,57,0,3.7,-1,Hit,0.491249987856,True,-1,stimulus_RORE28_Yes-No Task_2019_Jun_11_1752_283,-1,2019_Jun_11_1752,Yes-No Task,2,RORE28,
Yes-No Task,58,0,58,0,3.7,-1,Hit,0.568528283387,True,-1,stimulus_RORE28_Yes-No Task_2019_Jun_11_1752_284,-1,2019_Jun_11_1752,Yes-No Task,2,RORE28,
Yes-No Task,59,0,59,0,3.7,-1,False Alarm,0.399680100847,False,-1,stimulus_RORE28_Yes-No Task_2019_Jun_11_1752_285,-1,2019_Jun_11_1752,Yes-No Task,2,RORE28,
Yes-No Task,60,0,60,0,3.7,-1,False Alarm,0.471676284447,False,-1,stimulus_RORE28_Yes-No Task_2019_Jun_11_1752_286,-1,2019_Jun_11_1752,Yes-No Task,2,RORE28,
Yes-No Task,61,0,61,0,3.7,-1,Miss,0.602150122635,True,-1,stimulus_RORE28_Yes-No Task_2019_Jun_11_1752_287,-1,2019_Jun_11_1752,Yes-No Task,2,RORE28,
Yes-No Task,62,0,62,0,3.7,-1,False Alarm,0.424412341323,False,-1,stimulus_RORE28_Yes-No Task_2019_Jun_11_1752_288,-1,2019_Jun_11_1752,Yes-No Task,2,RORE28,
Yes-No Task,63,0,63,0,3.7,-1,Hit,0.468682977837,True,-1,stimulus_RORE28_Yes-No Task_2019_Jun_11_1752_289,-1,2019_Jun_11_1752,Yes-No Task,2,RORE28,
Yes-No Task,64,0,64,0,3.7,-1,False Alarm,0.467031753156,False,-1,stimulus_RORE28_Yes-No Task_2019_Jun_11_1752_290,-1,2019_Jun_11_1752,Yes-No Task,2,RORE28,
Yes-No Task,65,0,65,0,3.7,-1,Hit,0.534628092777,True,-1,stimulus_RORE28_Yes-No Task_2019_Jun_11_1752_291,-1,2019_Jun_11_1752,Yes-No Task,2,RORE28,
Yes-No Task,66,0,66,0,3.7,-1,Hit,0.566821634769,True,-1,stimulus_RORE28_Yes-No Task_2019_Jun_11_1752_292,-1,2019_Jun_11_1752,Yes-No Task,2,RORE28,
Yes-No Task,67,0,67,0,3.7,-1,False Alarm,0.58965057414,False,-1,stimulus_RORE28_Yes-No Task_2019_Jun_11_1752_293,-1,2019_Jun_11_1752,Yes-No Task,2,RORE28,
Yes-No Task,68,0,68,0,3.7,-1,Correct Rejection,0.626003379468,False,-1,stimulus_RORE28_Yes-No Task_2019_Jun_11_1752_294,-1,2019_Jun_11_1752,Yes-No Task,2,RORE28,
Yes-No Task,69,0,69,0,3.7,-1,Correct Rejection,0.63467210345,False,-1,stimulus_RORE28_Yes-No Task_2019_Jun_11_1752_295,-1,2019_Jun_11_1752,Yes-No Task,2,RORE28,
Yes-No Task,70,0,70,0,3.7,-1,Correct Rejection,0.530088251457,False,-1,stimulus_RORE28_Yes-No Task_2019_Jun_11_1752_296,-1,2019_Jun_11_1752,Yes-No Task,2,RORE28,
Yes-No Task,71,0,71,0,3.7,-1,Hit,0.628813992254,True,-1,stimulus_RORE28_Yes-No Task_2019_Jun_11_1752_297,-1,2019_Jun_11_1752,Yes-No Task,2,RORE28,
Yes-No Task,72,0,72,0,3.7,-1,Hit,0.535872053821,True,-1,stimulus_RORE28_Yes-No Task_2019_Jun_11_1752_298,-1,2019_Jun_11_1752,Yes-No Task,2,RORE28,
Yes-No Task,73,0,73,0,3.7,-1,Hit,0.499319721479,True,-1,stimulus_RORE28_Yes-No Task_2019_Jun_11_1752_299,-1,2019_Jun_11_1752,Yes-No Task,2,RORE28,
Yes-No Task,74,0,74,0,3.7,-1,Hit,0.504602244589,True,-1,stimulus_RORE28_Yes-No Task_2019_Jun_11_1752_300,-1,2019_Jun_11_1752,Yes-No Task,2,RORE28,
Yes-No Task,0,0,0,0,5,-1,Hit,0.399560221005,True,-1,stimulus_RORE28_Yes-No Task_2019_Jun_11_1752_301,-1,2019_Jun_11_1752,Yes-No Task,2,RORE28,
Yes-No Task,1,0,1,0,5,-1,False Alarm,0.40175706381,False,-1,stimulus_RORE28_Yes-No Task_2019_Jun_11_1752_302,-1,2019_Jun_11_1752,Yes-No Task,2,RORE28,
Yes-No Task,2,0,2,0,5,-1,Correct Rejection,0.35937741166,False,-1,stimulus_RORE28_Yes-No Task_2019_Jun_11_1752_303,-1,2019_Jun_11_1752,Yes-No Task,2,RORE28,
Yes-No Task,3,0,3,0,5,-1,Correct Rejection,0.468760571443,False,-1,stimulus_RORE28_Yes-No Task_2019_Jun_11_1752_304,-1,2019_Jun_11_1752,Yes-No Task,2,RORE28,
Yes-No Task,4,0,4,0,5,-1,False Alarm,0.434134121053,False,-1,stimulus_RORE28_Yes-No Task_2019_Jun_11_1752_305,-1,2019_Jun_11_1752,Yes-No Task,2,RORE28,
Yes-No Task,5,0,5,0,5,-1,Miss,0.373214115389,True,-1,stimulus_RORE28_Yes-No Task_2019_Jun_11_1752_306,-1,2019_Jun_11_1752,Yes-No Task,2,RORE28,
Yes-No Task,6,0,6,0,5,-1,Miss,0.526161768939,True,-1,stimulus_RORE28_Yes-No Task_2019_Jun_11_1752_307,-1,2019_Jun_11_1752,Yes-No Task,2,RORE28,
Yes-No Task,7,0,7,0,5,-1,Miss,0.400865353178,True,-1,stimulus_RORE28_Yes-No Task_2019_Jun_11_1752_308,-1,2019_Jun_11_1752,Yes-No Task,2,RORE28,
Yes-No Task,8,0,8,0,5,-1,Correct Rejection,0.701603765134,False,-1,stimulus_RORE28_Yes-No Task_2019_Jun_11_1752_309,-1,2019_Jun_11_1752,Yes-No Task,2,RORE28,
Yes-No Task,9,0,9,0,5,-1,Miss,0.568363242783,True,-1,stimulus_RORE28_Yes-No Task_2019_Jun_11_1752_310,-1,2019_Jun_11_1752,Yes-No Task,2,RORE28,
Yes-No Task,10,0,10,0,5,-1,Correct Rejection,0.733939767815,False,-1,stimulus_RORE28_Yes-No Task_2019_Jun_11_1752_311,-1,2019_Jun_11_1752,Yes-No Task,2,RORE28,
Yes-No Task,11,0,11,0,5,-1,Hit,0.563835307956,True,-1,stimulus_RORE28_Yes-No Task_2019_Jun_11_1752_312,-1,2019_Jun_11_1752,Yes-No Task,2,RORE28,
Yes-No Task,12,0,12,0,5,-1,Hit,0.601521573495,True,-1,stimulus_RORE28_Yes-No Task_2019_Jun_11_1752_313,-1,2019_Jun_11_1752,Yes-No Task,2,RORE28,
Yes-No Task,13,0,13,0,5,-1,False Alarm,0.469780783635,False,-1,stimulus_RORE28_Yes-No Task_2019_Jun_11_1752_314,-1,2019_Jun_11_1752,Yes-No Task,2,RORE28,
Yes-No Task,14,0,14,0,5,-1,Correct Rejection,0.690302606672,False,-1,stimulus_RORE28_Yes-No Task_2019_Jun_11_1752_315,-1,2019_Jun_11_1752,Yes-No Task,2,RORE28,
Yes-No Task,15,0,15,0,5,-1,Correct Rejection,0.525619024411,False,-1,stimulus_RORE28_Yes-No Task_2019_Jun_11_1752_316,-1,2019_Jun_11_1752,Yes-No Task,2,RORE28,
Yes-No Task,16,0,16,0,5,-1,Hit,0.566052267794,True,-1,stimulus_RORE28_Yes-No Task_2019_Jun_11_1752_317,-1,2019_Jun_11_1752,Yes-No Task,2,RORE28,
Yes-No Task,17,0,17,0,5,-1,Correct Rejection,0.433991250582,False,-1,stimulus_RORE28_Yes-No Task_2019_Jun_11_1752_318,-1,2019_Jun_11_1752,Yes-No Task,2,RORE28,
Yes-No Task,18,0,18,0,5,-1,Hit,0.455451011658,True,-1,stimulus_RORE28_Yes-No Task_2019_Jun_11_1752_319,-1,2019_Jun_11_1752,Yes-No Task,2,RORE28,
Yes-No Task,19,0,19,0,5,-1,Miss,0.401800171472,True,-1,stimulus_RORE28_Yes-No Task_2019_Jun_11_1752_320,-1,2019_Jun_11_1752,Yes-No Task,2,RORE28,
Yes-No Task,20,0,20,0,5,-1,Hit,0.364124169573,True,-1,stimulus_RORE28_Yes-No Task_2019_Jun_11_1752_321,-1,2019_Jun_11_1752,Yes-No Task,2,RORE28,
Yes-No Task,21,0,21,0,5,-1,False Alarm,0.327813650947,False,-1,stimulus_RORE28_Yes-No Task_2019_Jun_11_1752_322,-1,2019_Jun_11_1752,Yes-No Task,2,RORE28,
Yes-No Task,22,0,22,0,5,-1,Hit,0.36562759662,True,-1,stimulus_RORE28_Yes-No Task_2019_Jun_11_1752_323,-1,2019_Jun_11_1752,Yes-No Task,2,RORE28,
Yes-No Task,23,0,23,0,5,-1,Hit,0.433974828571,True,-1,stimulus_RORE28_Yes-No Task_2019_Jun_11_1752_324,-1,2019_Jun_11_1752,Yes-No Task,2,RORE28,
Yes-No Task,24,0,24,0,5,-1,Hit,0.366207290906,True,-1,stimulus_RORE28_Yes-No Task_2019_Jun_11_1752_325,-1,2019_Jun_11_1752,Yes-No Task,2,RORE28,
Yes-No Task,25,0,25,0,5,-1,Miss,0.506069543771,True,-1,stimulus_RORE28_Yes-No Task_2019_Jun_11_1752_326,-1,2019_Jun_11_1752,Yes-No Task,2,RORE28,
Yes-No Task,26,0,26,0,5,-1,Hit,0.556921266951,True,-1,stimulus_RORE28_Yes-No Task_2019_Jun_11_1752_327,-1,2019_Jun_11_1752,Yes-No Task,2,RORE28,
Yes-No Task,27,0,27,0,5,-1,Hit,0.600720593706,True,-1,stimulus_RORE28_Yes-No Task_2019_Jun_11_1752_328,-1,2019_Jun_11_1752,Yes-No Task,2,RORE28,
Yes-No Task,28,0,28,0,5,-1,Hit,0.527288313489,True,-1,stimulus_RORE28_Yes-No Task_2019_Jun_11_1752_329,-1,2019_Jun_11_1752,Yes-No Task,2,RORE28,
Yes-No Task,29,0,29,0,5,-1,Hit,0.499389925506,True,-1,stimulus_RORE28_Yes-No Task_2019_Jun_11_1752_330,-1,2019_Jun_11_1752,Yes-No Task,2,RORE28,
Yes-No Task,30,0,30,0,5,-1,Correct Rejection,0.636336876079,False,-1,stimulus_RORE28_Yes-No Task_2019_Jun_11_1752_331,-1,2019_Jun_11_1752,Yes-No Task,2,RORE28,
Yes-No Task,31,0,31,0,5,-1,No Answer,-1,False,-1,stimulus_RORE28_Yes-No Task_2019_Jun_11_1752_332,-1,2019_Jun_11_1752,Yes-No Task,2,RORE28,
Yes-No Task,32,0,32,0,5,-1,Miss,0.400834972505,True,-1,stimulus_RORE28_Yes-No Task_2019_Jun_11_1752_333,-1,2019_Jun_11_1752,Yes-No Task,2,RORE28,
Yes-No Task,33,0,33,0,5,-1,Hit,0.66617633542,True,-1,stimulus_RORE28_Yes-No Task_2019_Jun_11_1752_334,-1,2019_Jun_11_1752,Yes-No Task,2,RORE28,
Yes-No Task,34,0,34,0,5,-1,False Alarm,0.437065845355,False,-1,stimulus_RORE28_Yes-No Task_2019_Jun_11_1752_335,-1,2019_Jun_11_1752,Yes-No Task,2,RORE28,
Yes-No Task,35,0,35,0,5,-1,Hit,0.625055013224,True,-1,stimulus_RORE28_Yes-No Task_2019_Jun_11_1752_336,-1,2019_Jun_11_1752,Yes-No Task,2,RORE28,
Yes-No Task,36,0,36,0,5,-1,Correct Rejection,0.529718758073,False,-1,stimulus_RORE28_Yes-No Task_2019_Jun_11_1752_337,-1,2019_Jun_11_1752,Yes-No Task,2,RORE28,
Yes-No Task,37,0,37,0,5,-1,Hit,0.533873094711,True,-1,stimulus_RORE28_Yes-No Task_2019_Jun_11_1752_338,-1,2019_Jun_11_1752,Yes-No Task,2,RORE28,
Yes-No Task,38,0,38,0,5,-1,False Alarm,0.532427965198,False,-1,stimulus_RORE28_Yes-No Task_2019_Jun_11_1752_339,-1,2019_Jun_11_1752,Yes-No Task,2,RORE28,
Yes-No Task,39,0,39,0,5,-1,Miss,0.432766585145,True,-1,stimulus_RORE28_Yes-No Task_2019_Jun_11_1752_340,-1,2019_Jun_11_1752,Yes-No Task,2,RORE28,
Yes-No Task,40,0,40,0,5,-1,Miss,0.604170019738,True,-1,stimulus_RORE28_Yes-No Task_2019_Jun_11_1752_341,-1,2019_Jun_11_1752,Yes-No Task,2,RORE28,
Yes-No Task,41,0,41,0,5,-1,Correct Rejection,0.469216690399,False,-1,stimulus_RORE28_Yes-No Task_2019_Jun_11_1752_342,-1,2019_Jun_11_1752,Yes-No Task,2,RORE28,
Yes-No Task,42,0,42,0,5,-1,Correct Rejection,0.56886698585,False,-1,stimulus_RORE28_Yes-No Task_2019_Jun_11_1752_343,-1,2019_Jun_11_1752,Yes-No Task,2,RORE28,
Yes-No Task,43,0,43,0,5,-1,False Alarm,0.536914024968,False,-1,stimulus_RORE28_Yes-No Task_2019_Jun_11_1752_344,-1,2019_Jun_11_1752,Yes-No Task,2,RORE28,
Yes-No Task,44,0,44,0,5,-1,False Alarm,0.335524975788,False,-1,stimulus_RORE28_Yes-No Task_2019_Jun_11_1752_345,-1,2019_Jun_11_1752,Yes-No Task,2,RORE28,
Yes-No Task,45,0,45,0,5,-1,Correct Rejection,0.333501794841,False,-1,stimulus_RORE28_Yes-No Task_2019_Jun_11_1752_346,-1,2019_Jun_11_1752,Yes-No Task,2,RORE28,
Yes-No Task,46,0,46,0,5,-1,Miss,0.466916799545,True,-1,stimulus_RORE28_Yes-No Task_2019_Jun_11_1752_347,-1,2019_Jun_11_1752,Yes-No Task,2,RORE28,
Yes-No Task,47,0,47,0,5,-1,Hit,0.73604423739,True,-1,stimulus_RORE28_Yes-No Task_2019_Jun_11_1752_348,-1,2019_Jun_11_1752,Yes-No Task,2,RORE28,
Yes-No Task,48,0,48,0,5,-1,Hit,0.695995267015,True,-1,stimulus_RORE28_Yes-No Task_2019_Jun_11_1752_349,-1,2019_Jun_11_1752,Yes-No Task,2,RORE28,
Yes-No Task,49,0,49,0,5,-1,False Alarm,0.593578699045,False,-1,stimulus_RORE28_Yes-No Task_2019_Jun_11_1752_350,-1,2019_Jun_11_1752,Yes-No Task,2,RORE28,
Yes-No Task,50,0,50,0,5,-1,Hit,0.524942440912,True,-1,stimulus_RORE28_Yes-No Task_2019_Jun_11_1752_351,-1,2019_Jun_11_1752,Yes-No Task,2,RORE28,
Yes-No Task,51,0,51,0,5,-1,False Alarm,0.526200360619,False,-1,stimulus_RORE28_Yes-No Task_2019_Jun_11_1752_352,-1,2019_Jun_11_1752,Yes-No Task,2,RORE28,
Yes-No Task,52,0,52,0,5,-1,Correct Rejection,0.432272695936,False,-1,stimulus_RORE28_Yes-No Task_2019_Jun_11_1752_353,-1,2019_Jun_11_1752,Yes-No Task,2,RORE28,
Yes-No Task,53,0,53,0,5,-1,Hit,0.502152914181,True,-1,stimulus_RORE28_Yes-No Task_2019_Jun_11_1752_354,-1,2019_Jun_11_1752,Yes-No Task,2,RORE28,
Yes-No Task,54,0,54,0,5,-1,Correct Rejection,0.625257413834,False,-1,stimulus_RORE28_Yes-No Task_2019_Jun_11_1752_355,-1,2019_Jun_11_1752,Yes-No Task,2,RORE28,
Yes-No Task,55,0,55,0,5,-1,Correct Rejection,0.568663764279,False,-1,stimulus_RORE28_Yes-No Task_2019_Jun_11_1752_356,-1,2019_Jun_11_1752,Yes-No Task,2,RORE28,
Yes-No Task,56,0,56,0,5,-1,Hit,0.702427735552,True,-1,stimulus_RORE28_Yes-No Task_2019_Jun_11_1752_357,-1,2019_Jun_11_1752,Yes-No Task,2,RORE28,
Yes-No Task,57,0,57,0,5,-1,Miss,0.532788015902,True,-1,stimulus_RORE28_Yes-No Task_2019_Jun_11_1752_358,-1,2019_Jun_11_1752,Yes-No Task,2,RORE28,
Yes-No Task,58,0,58,0,5,-1,Hit,0.624101310503,True,-1,stimulus_RORE28_Yes-No Task_2019_Jun_11_1752_359,-1,2019_Jun_11_1752,Yes-No Task,2,RORE28,
Yes-No Task,59,0,59,0,5,-1,Hit,0.605837665964,True,-1,stimulus_RORE28_Yes-No Task_2019_Jun_11_1752_360,-1,2019_Jun_11_1752,Yes-No Task,2,RORE28,
Yes-No Task,60,0,60,0,5,-1,Miss,0.566686153878,True,-1,stimulus_RORE28_Yes-No Task_2019_Jun_11_1752_361,-1,2019_Jun_11_1752,Yes-No Task,2,RORE28,
Yes-No Task,61,0,61,0,5,-1,Hit,0.337797360029,True,-1,stimulus_RORE28_Yes-No Task_2019_Jun_11_1752_362,-1,2019_Jun_11_1752,Yes-No Task,2,RORE28,
Yes-No Task,62,0,62,0,5,-1,Hit,0.467249344103,True,-1,stimulus_RORE28_Yes-No Task_2019_Jun_11_1752_363,-1,2019_Jun_11_1752,Yes-No Task,2,RORE28,
Yes-No Task,63,0,63,0,5,-1,Hit,0.505837994628,True,-1,stimulus_RORE28_Yes-No Task_2019_Jun_11_1752_364,-1,2019_Jun_11_1752,Yes-No Task,2,RORE28,
Yes-No Task,64,0,64,0,5,-1,Correct Rejection,0.535773932468,False,-1,stimulus_RORE28_Yes-No Task_2019_Jun_11_1752_365,-1,2019_Jun_11_1752,Yes-No Task,2,RORE28,
Yes-No Task,65,0,65,0,5,-1,Hit,0.55669300165,True,-1,stimulus_RORE28_Yes-No Task_2019_Jun_11_1752_366,-1,2019_Jun_11_1752,Yes-No Task,2,RORE28,
Yes-No Task,66,0,66,0,5,-1,Hit,0.436496825423,True,-1,stimulus_RORE28_Yes-No Task_2019_Jun_11_1752_367,-1,2019_Jun_11_1752,Yes-No Task,2,RORE28,
Yes-No Task,67,0,67,0,5,-1,Hit,0.467897599097,True,-1,stimulus_RORE28_Yes-No Task_2019_Jun_11_1752_368,-1,2019_Jun_11_1752,Yes-No Task,2,RORE28,
Yes-No Task,68,0,68,0,5,-1,Hit,0.497623747215,True,-1,stimulus_RORE28_Yes-No Task_2019_Jun_11_1752_369,-1,2019_Jun_11_1752,Yes-No Task,2,RORE28,
Yes-No Task,69,0,69,0,5,-1,False Alarm,0.467752675992,False,-1,stimulus_RORE28_Yes-No Task_2019_Jun_11_1752_370,-1,2019_Jun_11_1752,Yes-No Task,2,RORE28,
Yes-No Task,70,0,70,0,5,-1,Correct Rejection,0.433673486114,False,-1,stimulus_RORE28_Yes-No Task_2019_Jun_11_1752_371,-1,2019_Jun_11_1752,Yes-No Task,2,RORE28,
Yes-No Task,71,0,71,0,5,-1,Hit,0.503746251576,True,-1,stimulus_RORE28_Yes-No Task_2019_Jun_11_1752_372,-1,2019_Jun_11_1752,Yes-No Task,2,RORE28,
Yes-No Task,72,0,72,0,5,-1,Miss,0.49124054471,True,-1,stimulus_RORE28_Yes-No Task_2019_Jun_11_1752_373,-1,2019_Jun_11_1752,Yes-No Task,2,RORE28,
Yes-No Task,73,0,73,0,5,-1,Miss,0.535543614998,True,-1,stimulus_RORE28_Yes-No Task_2019_Jun_11_1752_374,-1,2019_Jun_11_1752,Yes-No Task,2,RORE28,
Yes-No Task,74,0,74,0,5,-1,Miss,0.265814314131,True,-1,stimulus_RORE28_Yes-No Task_2019_Jun_11_1752_375,-1,2019_Jun_11_1752,Yes-No Task,2,RORE28,
Yes-No Task,0,0,0,0,2.2,-1,Miss,0.467816721648,True,-1,stimulus_RORE28_Yes-No Task_2019_Jun_11_1752_376,-1,2019_Jun_11_1752,Yes-No Task,2,RORE28,
Yes-No Task,1,0,1,0,2.2,-1,False Alarm,0.467708336655,False,-1,stimulus_RORE28_Yes-No Task_2019_Jun_11_1752_377,-1,2019_Jun_11_1752,Yes-No Task,2,RORE28,
Yes-No Task,2,0,2,0,2.2,-1,Miss,0.5674760486,True,-1,stimulus_RORE28_Yes-No Task_2019_Jun_11_1752_378,-1,2019_Jun_11_1752,Yes-No Task,2,RORE28,
Yes-No Task,3,0,3,0,2.2,-1,Miss,0.433074085973,True,-1,stimulus_RORE28_Yes-No Task_2019_Jun_11_1752_379,-1,2019_Jun_11_1752,Yes-No Task,2,RORE28,
Yes-No Task,4,0,4,0,2.2,-1,Correct Rejection,0.592067881487,False,-1,stimulus_RORE28_Yes-No Task_2019_Jun_11_1752_380,-1,2019_Jun_11_1752,Yes-No Task,2,RORE28,
Yes-No Task,5,0,5,0,2.2,-1,Hit,0.732867005747,True,-1,stimulus_RORE28_Yes-No Task_2019_Jun_11_1752_381,-1,2019_Jun_11_1752,Yes-No Task,2,RORE28,
Yes-No Task,6,0,6,0,2.2,-1,Hit,0.467351980973,True,-1,stimulus_RORE28_Yes-No Task_2019_Jun_11_1752_382,-1,2019_Jun_11_1752,Yes-No Task,2,RORE28,
Yes-No Task,7,0,7,0,2.2,-1,Hit,0.467473503202,True,-1,stimulus_RORE28_Yes-No Task_2019_Jun_11_1752_383,-1,2019_Jun_11_1752,Yes-No Task,2,RORE28,
Yes-No Task,8,0,8,0,2.2,-1,Correct Rejection,0.559606251772,False,-1,stimulus_RORE28_Yes-No Task_2019_Jun_11_1752_384,-1,2019_Jun_11_1752,Yes-No Task,2,RORE28,
Yes-No Task,9,0,9,0,2.2,-1,Miss,0.532328201924,True,-1,stimulus_RORE28_Yes-No Task_2019_Jun_11_1752_385,-1,2019_Jun_11_1752,Yes-No Task,2,RORE28,
Yes-No Task,10,0,10,0,2.2,-1,False Alarm,0.369123824406,False,-1,stimulus_RORE28_Yes-No Task_2019_Jun_11_1752_386,-1,2019_Jun_11_1752,Yes-No Task,2,RORE28,
Yes-No Task,11,0,11,0,2.2,-1,Miss,0.532896811143,True,-1,stimulus_RORE28_Yes-No Task_2019_Jun_11_1752_387,-1,2019_Jun_11_1752,Yes-No Task,2,RORE28,
Yes-No Task,12,0,12,0,2.2,-1,Correct Rejection,0.537042115815,False,-1,stimulus_RORE28_Yes-No Task_2019_Jun_11_1752_388,-1,2019_Jun_11_1752,Yes-No Task,2,RORE28,
Yes-No Task,13,0,13,0,2.2,-1,False Alarm,0.566471847706,False,-1,stimulus_RORE28_Yes-No Task_2019_Jun_11_1752_389,-1,2019_Jun_11_1752,Yes-No Task,2,RORE28,
Yes-No Task,14,0,14,0,2.2,-1,Hit,0.566230445635,True,-1,stimulus_RORE28_Yes-No Task_2019_Jun_11_1752_390,-1,2019_Jun_11_1752,Yes-No Task,2,RORE28,
Yes-No Task,15,0,15,0,2.2,-1,Hit,0.447570540011,True,-1,stimulus_RORE28_Yes-No Task_2019_Jun_11_1752_391,-1,2019_Jun_11_1752,Yes-No Task,2,RORE28,
Yes-No Task,16,0,16,0,2.2,-1,Hit,0.402873344254,True,-1,stimulus_RORE28_Yes-No Task_2019_Jun_11_1752_392,-1,2019_Jun_11_1752,Yes-No Task,2,RORE28,
Yes-No Task,17,0,17,0,2.2,-1,False Alarm,0.539271391928,False,-1,stimulus_RORE28_Yes-No Task_2019_Jun_11_1752_393,-1,2019_Jun_11_1752,Yes-No Task,2,RORE28,
Yes-No Task,18,0,18,0,2.2,-1,Hit,0.538733984344,True,-1,stimulus_RORE28_Yes-No Task_2019_Jun_11_1752_394,-1,2019_Jun_11_1752,Yes-No Task,2,RORE28,
Yes-No Task,19,0,19,0,2.2,-1,Correct Rejection,0.533470347058,False,-1,stimulus_RORE28_Yes-No Task_2019_Jun_11_1752_395,-1,2019_Jun_11_1752,Yes-No Task,2,RORE28,
Yes-No Task,20,0,20,0,2.2,-1,Miss,0.505539115518,True,-1,stimulus_RORE28_Yes-No Task_2019_Jun_11_1752_396,-1,2019_Jun_11_1752,Yes-No Task,2,RORE28,
Yes-No Task,21,0,21,0,2.2,-1,Hit,0.466948822606,True,-1,stimulus_RORE28_Yes-No Task_2019_Jun_11_1752_397,-1,2019_Jun_11_1752,Yes-No Task,2,RORE28,
Yes-No Task,22,0,22,0,2.2,-1,False Alarm,0.605049413629,False,-1,stimulus_RORE28_Yes-No Task_2019_Jun_11_1752_398,-1,2019_Jun_11_1752,Yes-No Task,2,RORE28,
Yes-No Task,23,0,23,0,2.2,-1,Miss,0.391043810174,True,-1,stimulus_RORE28_Yes-No Task_2019_Jun_11_1752_399,-1,2019_Jun_11_1752,Yes-No Task,2,RORE28,
Yes-No Task,24,0,24,0,2.2,-1,False Alarm,0.339623478241,False,-1,stimulus_RORE28_Yes-No Task_2019_Jun_11_1752_400,-1,2019_Jun_11_1752,Yes-No Task,2,RORE28,
Yes-No Task,25,0,25,0,2.2,-1,Correct Rejection,0.432625356596,False,-1,stimulus_RORE28_Yes-No Task_2019_Jun_11_1752_401,-1,2019_Jun_11_1752,Yes-No Task,2,RORE28,
Yes-No Task,26,0,26,0,2.2,-1,Correct Rejection,0.536511276849,False,-1,stimulus_RORE28_Yes-No Task_2019_Jun_11_1752_402,-1,2019_Jun_11_1752,Yes-No Task,2,RORE28,
Yes-No Task,27,0,27,0,2.2,-1,False Alarm,0.540200462099,False,-1,stimulus_RORE28_Yes-No Task_2019_Jun_11_1752_403,-1,2019_Jun_11_1752,Yes-No Task,2,RORE28,
Yes-No Task,28,0,28,0,2.2,-1,False Alarm,0.43364844285,False,-1,stimulus_RORE28_Yes-No Task_2019_Jun_11_1752_404,-1,2019_Jun_11_1752,Yes-No Task,2,RORE28,
Yes-No Task,29,0,29,0,2.2,-1,No Answer,-1,True,-1,stimulus_RORE28_Yes-No Task_2019_Jun_11_1752_405,-1,2019_Jun_11_1752,Yes-No Task,2,RORE28,
Yes-No Task,30,0,30,0,2.2,-1,Correct Rejection,0.669049761724,False,-1,stimulus_RORE28_Yes-No Task_2019_Jun_11_1752_406,-1,2019_Jun_11_1752,Yes-No Task,2,RORE28,
Yes-No Task,31,0,31,0,2.2,-1,Correct Rejection,0.500859277323,False,-1,stimulus_RORE28_Yes-No Task_2019_Jun_11_1752_407,-1,2019_Jun_11_1752,Yes-No Task,2,RORE28,
Yes-No Task,32,0,32,0,2.2,-1,Hit,0.524792180397,True,-1,stimulus_RORE28_Yes-No Task_2019_Jun_11_1752_408,-1,2019_Jun_11_1752,Yes-No Task,2,RORE28,
Yes-No Task,33,0,33,0,2.2,-1,Correct Rejection,0.645627580117,False,-1,stimulus_RORE28_Yes-No Task_2019_Jun_11_1752_409,-1,2019_Jun_11_1752,Yes-No Task,2,RORE28,
Yes-No Task,34,0,34,0,2.2,-1,Hit,0.434388661291,True,-1,stimulus_RORE28_Yes-No Task_2019_Jun_11_1752_410,-1,2019_Jun_11_1752,Yes-No Task,2,RORE28,
Yes-No Task,35,0,35,0,2.2,-1,False Alarm,0.473504455294,False,-1,stimulus_RORE28_Yes-No Task_2019_Jun_11_1752_411,-1,2019_Jun_11_1752,Yes-No Task,2,RORE28,
Yes-No Task,36,0,36,0,2.2,-1,Correct Rejection,0.633740980178,False,-1,stimulus_RORE28_Yes-No Task_2019_Jun_11_1752_412,-1,2019_Jun_11_1752,Yes-No Task,2,RORE28,
Yes-No Task,37,0,37,0,2.2,-1,Miss,0.600724699907,True,-1,stimulus_RORE28_Yes-No Task_2019_Jun_11_1752_413,-1,2019_Jun_11_1752,Yes-No Task,2,RORE28,
Yes-No Task,38,0,38,0,2.2,-1,False Alarm,0.501247656066,False,-1,stimulus_RORE28_Yes-No Task_2019_Jun_11_1752_414,-1,2019_Jun_11_1752,Yes-No Task,2,RORE28,
Yes-No Task,39,0,39,0,2.2,-1,Hit,0.626330175903,True,-1,stimulus_RORE28_Yes-No Task_2019_Jun_11_1752_415,-1,2019_Jun_11_1752,Yes-No Task,2,RORE28,
Yes-No Task,40,0,40,0,2.2,-1,Correct Rejection,0.557870864403,False,-1,stimulus_RORE28_Yes-No Task_2019_Jun_11_1752_416,-1,2019_Jun_11_1752,Yes-No Task,2,RORE28,
Yes-No Task,41,0,41,0,2.2,-1,Miss,0.402157348115,True,-1,stimulus_RORE28_Yes-No Task_2019_Jun_11_1752_417,-1,2019_Jun_11_1752,Yes-No Task,2,RORE28,
Yes-No Task,42,0,42,0,2.2,-1,False Alarm,0.423761211801,False,-1,stimulus_RORE28_Yes-No Task_2019_Jun_11_1752_418,-1,2019_Jun_11_1752,Yes-No Task,2,RORE28,
Yes-No Task,43,0,43,0,2.2,-1,Miss,0.370538162533,True,-1,stimulus_RORE28_Yes-No Task_2019_Jun_11_1752_419,-1,2019_Jun_11_1752,Yes-No Task,2,RORE28,
Yes-No Task,44,0,44,0,2.2,-1,Correct Rejection,0.423536641989,False,-1,stimulus_RORE28_Yes-No Task_2019_Jun_11_1752_420,-1,2019_Jun_11_1752,Yes-No Task,2,RORE28,
Yes-No Task,45,0,45,0,2.2,-1,Miss,0.33522897074,True,-1,stimulus_RORE28_Yes-No Task_2019_Jun_11_1752_421,-1,2019_Jun_11_1752,Yes-No Task,2,RORE28,
Yes-No Task,46,0,46,0,2.2,-1,Hit,0.570220563095,True,-1,stimulus_RORE28_Yes-No Task_2019_Jun_11_1752_422,-1,2019_Jun_11_1752,Yes-No Task,2,RORE28,
Yes-No Task,47,0,47,0,2.2,-1,Hit,0.609885259997,True,-1,stimulus_RORE28_Yes-No Task_2019_Jun_11_1752_423,-1,2019_Jun_11_1752,Yes-No Task,2,RORE28,
Yes-No Task,48,0,48,0,2.2,-1,Hit,0.562214463484,True,-1,stimulus_RORE28_Yes-No Task_2019_Jun_11_1752_424,-1,2019_Jun_11_1752,Yes-No Task,2,RORE28,
Yes-No Task,49,0,49,0,2.2,-1,False Alarm,0.499173566699,False,-1,stimulus_RORE28_Yes-No Task_2019_Jun_11_1752_425,-1,2019_Jun_11_1752,Yes-No Task,2,RORE28,
Yes-No Task,50,0,50,0,2.2,-1,Correct Rejection,0.434140690137,False,-1,stimulus_RORE28_Yes-No Task_2019_Jun_11_1752_426,-1,2019_Jun_11_1752,Yes-No Task,2,RORE28,
Yes-No Task,51,0,51,0,2.2,-1,Correct Rejection,0.43525491748,False,-1,stimulus_RORE28_Yes-No Task_2019_Jun_11_1752_427,-1,2019_Jun_11_1752,Yes-No Task,2,RORE28,
Yes-No Task,52,0,52,0,2.2,-1,Correct Rejection,0.467787161935,False,-1,stimulus_RORE28_Yes-No Task_2019_Jun_11_1752_428,-1,2019_Jun_11_1752,Yes-No Task,2,RORE28,
Yes-No Task,53,0,53,0,2.2,-1,Miss,0.701901001856,True,-1,stimulus_RORE28_Yes-No Task_2019_Jun_11_1752_429,-1,2019_Jun_11_1752,Yes-No Task,2,RORE28,
Yes-No Task,54,0,54,0,2.2,-1,Hit,0.566391380504,True,-1,stimulus_RORE28_Yes-No Task_2019_Jun_11_1752_430,-1,2019_Jun_11_1752,Yes-No Task,2,RORE28,
Yes-No Task,55,0,55,0,2.2,-1,Hit,0.605680836365,True,-1,stimulus_RORE28_Yes-No Task_2019_Jun_11_1752_431,-1,2019_Jun_11_1752,Yes-No Task,2,RORE28,
Yes-No Task,56,0,56,0,2.2,-1,Hit,0.535728772171,True,-1,stimulus_RORE28_Yes-No Task_2019_Jun_11_1752_432,-1,2019_Jun_11_1752,Yes-No Task,2,RORE28,
Yes-No Task,57,0,57,0,2.2,-1,Hit,0.501094521023,True,-1,stimulus_RORE28_Yes-No Task_2019_Jun_11_1752_433,-1,2019_Jun_11_1752,Yes-No Task,2,RORE28,
Yes-No Task,58,0,58,0,2.2,-1,Hit,0.470127697103,True,-1,stimulus_RORE28_Yes-No Task_2019_Jun_11_1752_434,-1,2019_Jun_11_1752,Yes-No Task,2,RORE28,
Yes-No Task,59,0,59,0,2.2,-1,False Alarm,0.506423436105,False,-1,stimulus_RORE28_Yes-No Task_2019_Jun_11_1752_435,-1,2019_Jun_11_1752,Yes-No Task,2,RORE28,
Yes-No Task,60,0,60,0,2.2,-1,Miss,0.269031369127,True,-1,stimulus_RORE28_Yes-No Task_2019_Jun_11_1752_436,-1,2019_Jun_11_1752,Yes-No Task,2,RORE28,
Yes-No Task,61,0,61,0,2.2,-1,Correct Rejection,0.535129782744,False,-1,stimulus_RORE28_Yes-No Task_2019_Jun_11_1752_437,-1,2019_Jun_11_1752,Yes-No Task,2,RORE28,
Yes-No Task,62,0,62,0,2.2,-1,Hit,0.533562720288,True,-1,stimulus_RORE28_Yes-No Task_2019_Jun_11_1752_438,-1,2019_Jun_11_1752,Yes-No Task,2,RORE28,
Yes-No Task,63,0,63,0,2.2,-1,Correct Rejection,0.50308362674,False,-1,stimulus_RORE28_Yes-No Task_2019_Jun_11_1752_439,-1,2019_Jun_11_1752,Yes-No Task,2,RORE28,
Yes-No Task,64,0,64,0,2.2,-1,Correct Rejection,0.434425199404,False,-1,stimulus_RORE28_Yes-No Task_2019_Jun_11_1752_440,-1,2019_Jun_11_1752,Yes-No Task,2,RORE28,
Yes-No Task,65,0,65,0,2.2,-1,Miss,0.345903632697,True,-1,stimulus_RORE28_Yes-No Task_2019_Jun_11_1752_441,-1,2019_Jun_11_1752,Yes-No Task,2,RORE28,
Yes-No Task,66,0,66,0,2.2,-1,Hit,0.433867264539,True,-1,stimulus_RORE28_Yes-No Task_2019_Jun_11_1752_442,-1,2019_Jun_11_1752,Yes-No Task,2,RORE28,
Yes-No Task,67,0,67,0,2.2,-1,Hit,0.395359903108,True,-1,stimulus_RORE28_Yes-No Task_2019_Jun_11_1752_443,-1,2019_Jun_11_1752,Yes-No Task,2,RORE28,
Yes-No Task,68,0,68,0,2.2,-1,False Alarm,0.635455018375,False,-1,stimulus_RORE28_Yes-No Task_2019_Jun_11_1752_444,-1,2019_Jun_11_1752,Yes-No Task,2,RORE28,
Yes-No Task,69,0,69,0,2.2,-1,Miss,0.532875052188,True,-1,stimulus_RORE28_Yes-No Task_2019_Jun_11_1752_445,-1,2019_Jun_11_1752,Yes-No Task,2,RORE28,
Yes-No Task,70,0,70,0,2.2,-1,Hit,0.535647072829,True,-1,stimulus_RORE28_Yes-No Task_2019_Jun_11_1752_446,-1,2019_Jun_11_1752,Yes-No Task,2,RORE28,
Yes-No Task,71,0,71,0,2.2,-1,False Alarm,0.558307687752,False,-1,stimulus_RORE28_Yes-No Task_2019_Jun_11_1752_447,-1,2019_Jun_11_1752,Yes-No Task,2,RORE28,
Yes-No Task,72,0,72,0,2.2,-1,Correct Rejection,0.402030488942,False,-1,stimulus_RORE28_Yes-No Task_2019_Jun_11_1752_448,-1,2019_Jun_11_1752,Yes-No Task,2,RORE28,
Yes-No Task,73,0,73,0,2.2,-1,Hit,0.49028848391,True,-1,stimulus_RORE28_Yes-No Task_2019_Jun_11_1752_449,-1,2019_Jun_11_1752,Yes-No Task,2,RORE28,
Yes-No Task,74,0,74,0,2.2,-1,Miss,0.369002302177,True,-1,stimulus_RORE28_Yes-No Task_2019_Jun_11_1752_450,-1,2019_Jun_11_1752,Yes-No Task,2,RORE28,
Yes-No Task,0,0,0,0,3,-1,Correct Rejection,0.401288217865,False,-1,stimulus_RORE28_Yes-No Task_2019_Jun_11_1752_451,-1,2019_Jun_11_1752,Yes-No Task,2,RORE28,
Yes-No Task,1,0,1,0,3,-1,Miss,0.367880274076,True,-1,stimulus_RORE28_Yes-No Task_2019_Jun_11_1752_452,-1,2019_Jun_11_1752,Yes-No Task,2,RORE28,
Yes-No Task,2,0,2,0,3,-1,False Alarm,0.333851992153,False,-1,stimulus_RORE28_Yes-No Task_2019_Jun_11_1752_453,-1,2019_Jun_11_1752,Yes-No Task,2,RORE28,
Yes-No Task,3,0,3,0,3,-1,Miss,0.325505138375,True,-1,stimulus_RORE28_Yes-No Task_2019_Jun_11_1752_454,-1,2019_Jun_11_1752,Yes-No Task,2,RORE28,
Yes-No Task,4,0,4,0,3,-1,Correct Rejection,0.567250657827,False,-1,stimulus_RORE28_Yes-No Task_2019_Jun_11_1752_455,-1,2019_Jun_11_1752,Yes-No Task,2,RORE28,
Yes-No Task,5,0,5,0,3,-1,Miss,0.534713897388,True,-1,stimulus_RORE28_Yes-No Task_2019_Jun_11_1752_456,-1,2019_Jun_11_1752,Yes-No Task,2,RORE28,
Yes-No Task,6,0,6,0,3,-1,Miss,0.433654190507,True,-1,stimulus_RORE28_Yes-No Task_2019_Jun_11_1752_457,-1,2019_Jun_11_1752,Yes-No Task,2,RORE28,
Yes-No Task,7,0,7,0,3,-1,Correct Rejection,0.434772523586,False,-1,stimulus_RORE28_Yes-No Task_2019_Jun_11_1752_458,-1,2019_Jun_11_1752,Yes-No Task,2,RORE28,
Yes-No Task,8,0,8,0,3,-1,Correct Rejection,0.475045242347,False,-1,stimulus_RORE28_Yes-No Task_2019_Jun_11_1752_459,-1,2019_Jun_11_1752,Yes-No Task,2,RORE28,
Yes-No Task,9,0,9,0,3,-1,Miss,0.368720255792,True,-1,stimulus_RORE28_Yes-No Task_2019_Jun_11_1752_460,-1,2019_Jun_11_1752,Yes-No Task,2,RORE28,
Yes-No Task,10,0,10,0,3,-1,False Alarm,0.298051374499,False,-1,stimulus_RORE28_Yes-No Task_2019_Jun_11_1752_461,-1,2019_Jun_11_1752,Yes-No Task,2,RORE28,
Yes-No Task,11,0,11,0,3,-1,Correct Rejection,0.435568576213,False,-1,stimulus_RORE28_Yes-No Task_2019_Jun_11_1752_462,-1,2019_Jun_11_1752,Yes-No Task,2,RORE28,
Yes-No Task,12,0,12,0,3,-1,Miss,0.33135298593,True,-1,stimulus_RORE28_Yes-No Task_2019_Jun_11_1752_463,-1,2019_Jun_11_1752,Yes-No Task,2,RORE28,
Yes-No Task,13,0,13,0,3,-1,Miss,0.436247212347,True,-1,stimulus_RORE28_Yes-No Task_2019_Jun_11_1752_464,-1,2019_Jun_11_1752,Yes-No Task,2,RORE28,
Yes-No Task,14,0,14,0,3,-1,Correct Rejection,0.532769130543,False,-1,stimulus_RORE28_Yes-No Task_2019_Jun_11_1752_465,-1,2019_Jun_11_1752,Yes-No Task,2,RORE28,
Yes-No Task,15,0,15,0,3,-1,Miss,0.501819549128,True,-1,stimulus_RORE28_Yes-No Task_2019_Jun_11_1752_466,-1,2019_Jun_11_1752,Yes-No Task,2,RORE28,
Yes-No Task,16,0,16,0,3,-1,Correct Rejection,0.804814334027,False,-1,stimulus_RORE28_Yes-No Task_2019_Jun_11_1752_467,-1,2019_Jun_11_1752,Yes-No Task,2,RORE28,
Yes-No Task,17,0,17,0,3,-1,Miss,0.692926830612,True,-1,stimulus_RORE28_Yes-No Task_2019_Jun_11_1752_468,-1,2019_Jun_11_1752,Yes-No Task,2,RORE28,
Yes-No Task,18,0,18,0,3,-1,Miss,0.635021890048,True,-1,stimulus_RORE28_Yes-No Task_2019_Jun_11_1752_469,-1,2019_Jun_11_1752,Yes-No Task,2,RORE28,
Yes-No Task,19,0,19,0,3,-1,Miss,0.668326376006,True,-1,stimulus_RORE28_Yes-No Task_2019_Jun_11_1752_470,-1,2019_Jun_11_1752,Yes-No Task,2,RORE28,
Yes-No Task,20,0,20,0,3,-1,Correct Rejection,0.566409034189,False,-1,stimulus_RORE28_Yes-No Task_2019_Jun_11_1752_471,-1,2019_Jun_11_1752,Yes-No Task,2,RORE28,
Yes-No Task,21,0,21,0,3,-1,Miss,0.499548397027,True,-1,stimulus_RORE28_Yes-No Task_2019_Jun_11_1752_472,-1,2019_Jun_11_1752,Yes-No Task,2,RORE28,
Yes-No Task,22,0,22,0,3,-1,Miss,0.623828706332,True,-1,stimulus_RORE28_Yes-No Task_2019_Jun_11_1752_473,-1,2019_Jun_11_1752,Yes-No Task,2,RORE28,
Yes-No Task,23,0,23,0,3,-1,Miss,0.667438360397,True,-1,stimulus_RORE28_Yes-No Task_2019_Jun_11_1752_474,-1,2019_Jun_11_1752,Yes-No Task,2,RORE28,
Yes-No Task,24,0,24,0,3,-1,Hit,0.458423380274,True,-1,stimulus_RORE28_Yes-No Task_2019_Jun_11_1752_475,-1,2019_Jun_11_1752,Yes-No Task,2,RORE28,
Yes-No Task,25,0,25,0,3,-1,Hit,0.401851079427,True,-1,stimulus_RORE28_Yes-No Task_2019_Jun_11_1752_476,-1,2019_Jun_11_1752,Yes-No Task,2,RORE28,
Yes-No Task,26,0,26,0,3,-1,Hit,0.468340991531,True,-1,stimulus_RORE28_Yes-No Task_2019_Jun_11_1752_477,-1,2019_Jun_11_1752,Yes-No Task,2,RORE28,
Yes-No Task,27,0,27,0,3,-1,False Alarm,0.468094662298,False,-1,stimulus_RORE28_Yes-No Task_2019_Jun_11_1752_478,-1,2019_Jun_11_1752,Yes-No Task,2,RORE28,
Yes-No Task,28,0,28,0,3,-1,Miss,0.333745660726,True,-1,stimulus_RORE28_Yes-No Task_2019_Jun_11_1752_479,-1,2019_Jun_11_1752,Yes-No Task,2,RORE28,
Yes-No Task,29,0,29,0,3,-1,Hit,0.301968824584,True,-1,stimulus_RORE28_Yes-No Task_2019_Jun_11_1752_480,-1,2019_Jun_11_1752,Yes-No Task,2,RORE28,
Yes-No Task,30,0,30,0,3,-1,False Alarm,0.405839965213,False,-1,stimulus_RORE28_Yes-No Task_2019_Jun_11_1752_481,-1,2019_Jun_11_1752,Yes-No Task,2,RORE28,
Yes-No Task,31,0,31,0,3,-1,False Alarm,0.56795310555,False,-1,stimulus_RORE28_Yes-No Task_2019_Jun_11_1752_482,-1,2019_Jun_11_1752,Yes-No Task,2,RORE28,
Yes-No Task,32,0,32,0,3,-1,Miss,0.532982615754,True,-1,stimulus_RORE28_Yes-No Task_2019_Jun_11_1752_483,-1,2019_Jun_11_1752,Yes-No Task,2,RORE28,
Yes-No Task,33,0,33,0,3,-1,Correct Rejection,0.667607095558,False,-1,stimulus_RORE28_Yes-No Task_2019_Jun_11_1752_484,-1,2019_Jun_11_1752,Yes-No Task,2,RORE28,
Yes-No Task,34,0,34,0,3,-1,Correct Rejection,0.600234505255,False,-1,stimulus_RORE28_Yes-No Task_2019_Jun_11_1752_485,-1,2019_Jun_11_1752,Yes-No Task,2,RORE28,
Yes-No Task,35,0,35,0,3,-1,Miss,0.701545056421,True,-1,stimulus_RORE28_Yes-No Task_2019_Jun_11_1752_486,-1,2019_Jun_11_1752,Yes-No Task,2,RORE28,
Yes-No Task,36,0,36,0,3,-1,Hit,0.600081370678,True,-1,stimulus_RORE28_Yes-No Task_2019_Jun_11_1752_487,-1,2019_Jun_11_1752,Yes-No Task,2,RORE28,
Yes-No Task,37,0,37,0,3,-1,Hit,0.532538402826,True,-1,stimulus_RORE28_Yes-No Task_2019_Jun_11_1752_488,-1,2019_Jun_11_1752,Yes-No Task,2,RORE28,
Yes-No Task,38,0,38,0,3,-1,Hit,0.601246505976,True,-1,stimulus_RORE28_Yes-No Task_2019_Jun_11_1752_489,-1,2019_Jun_11_1752,Yes-No Task,2,RORE28,
Yes-No Task,39,0,39,0,3,-1,False Alarm,0.503881732933,False,-1,stimulus_RORE28_Yes-No Task_2019_Jun_11_1752_490,-1,2019_Jun_11_1752,Yes-No Task,2,RORE28,
Yes-No Task,40,0,40,0,3,-1,Hit,0.500179820228,True,-1,stimulus_RORE28_Yes-No Task_2019_Jun_11_1752_491,-1,2019_Jun_11_1752,Yes-No Task,2,RORE28,
Yes-No Task,41,0,41,0,3,-1,False Alarm,0.561536238529,False,-1,stimulus_RORE28_Yes-No Task_2019_Jun_11_1752_492,-1,2019_Jun_11_1752,Yes-No Task,2,RORE28,
Yes-No Task,42,0,42,0,3,-1,Hit,0.567872637883,True,-1,stimulus_RORE28_Yes-No Task_2019_Jun_11_1752_493,-1,2019_Jun_11_1752,Yes-No Task,2,RORE28,
Yes-No Task,43,0,43,0,3,-1,False Alarm,0.53304050304,False,-1,stimulus_RORE28_Yes-No Task_2019_Jun_11_1752_494,-1,2019_Jun_11_1752,Yes-No Task,2,RORE28,
Yes-No Task,44,0,44,0,3,-1,Hit,0.670540461782,True,-1,stimulus_RORE28_Yes-No Task_2019_Jun_11_1752_495,-1,2019_Jun_11_1752,Yes-No Task,2,RORE28,
Yes-No Task,45,0,45,0,3,-1,Correct Rejection,0.535341625568,False,-1,stimulus_RORE28_Yes-No Task_2019_Jun_11_1752_496,-1,2019_Jun_11_1752,Yes-No Task,2,RORE28,
Yes-No Task,46,0,46,0,3,-1,False Alarm,0.502930492628,False,-1,stimulus_RORE28_Yes-No Task_2019_Jun_11_1752_497,-1,2019_Jun_11_1752,Yes-No Task,2,RORE28,
Yes-No Task,47,0,47,0,3,-1,Miss,0.403275270946,True,-1,stimulus_RORE28_Yes-No Task_2019_Jun_11_1752_498,-1,2019_Jun_11_1752,Yes-No Task,2,RORE28,
Yes-No Task,48,0,48,0,3,-1,Hit,0.571879177354,True,-1,stimulus_RORE28_Yes-No Task_2019_Jun_11_1752_499,-1,2019_Jun_11_1752,Yes-No Task,2,RORE28,
Yes-No Task,49,0,49,0,3,-1,False Alarm,0.435313625727,False,-1,stimulus_RORE28_Yes-No Task_2019_Jun_11_1752_500,-1,2019_Jun_11_1752,Yes-No Task,2,RORE28,
Yes-No Task,50,0,50,0,3,-1,Correct Rejection,0.497700109147,False,-1,stimulus_RORE28_Yes-No Task_2019_Jun_11_1752_501,-1,2019_Jun_11_1752,Yes-No Task,2,RORE28,
Yes-No Task,51,0,51,0,3,-1,Miss,0.533484305255,True,-1,stimulus_RORE28_Yes-No Task_2019_Jun_11_1752_502,-1,2019_Jun_11_1752,Yes-No Task,2,RORE28,
Yes-No Task,52,0,52,0,3,-1,Miss,0.659610849805,True,-1,stimulus_RORE28_Yes-No Task_2019_Jun_11_1752_503,-1,2019_Jun_11_1752,Yes-No Task,2,RORE28,
Yes-No Task,53,0,53,0,3,-1,Miss,0.866425701883,True,-1,stimulus_RORE28_Yes-No Task_2019_Jun_11_1752_504,-1,2019_Jun_11_1752,Yes-No Task,2,RORE28,
Yes-No Task,54,0,54,0,3,-1,Hit,0.600070696324,True,-1,stimulus_RORE28_Yes-No Task_2019_Jun_11_1752_505,-1,2019_Jun_11_1752,Yes-No Task,2,RORE28,
Yes-No Task,55,0,55,0,3,-1,Hit,0.435985693242,True,-1,stimulus_RORE28_Yes-No Task_2019_Jun_11_1752_506,-1,2019_Jun_11_1752,Yes-No Task,2,RORE28,
Yes-No Task,56,0,56,0,3,-1,Hit,0.668549714144,True,-1,stimulus_RORE28_Yes-No Task_2019_Jun_11_1752_507,-1,2019_Jun_11_1752,Yes-No Task,2,RORE28,
Yes-No Task,57,0,57,0,3,-1,False Alarm,0.465069333557,False,-1,stimulus_RORE28_Yes-No Task_2019_Jun_11_1752_508,-1,2019_Jun_11_1752,Yes-No Task,2,RORE28,
Yes-No Task,58,0,58,0,3,-1,Hit,0.50187209947,True,-1,stimulus_RORE28_Yes-No Task_2019_Jun_11_1752_509,-1,2019_Jun_11_1752,Yes-No Task,2,RORE28,
Yes-No Task,59,0,59,0,3,-1,False Alarm,0.540848307312,False,-1,stimulus_RORE28_Yes-No Task_2019_Jun_11_1752_510,-1,2019_Jun_11_1752,Yes-No Task,2,RORE28,
Yes-No Task,60,0,60,0,3,-1,Miss,0.464392339345,True,-1,stimulus_RORE28_Yes-No Task_2019_Jun_11_1752_511,-1,2019_Jun_11_1752,Yes-No Task,2,RORE28,
Yes-No Task,61,0,61,0,3,-1,Correct Rejection,0.625911827665,False,-1,stimulus_RORE28_Yes-No Task_2019_Jun_11_1752_512,-1,2019_Jun_11_1752,Yes-No Task,2,RORE28,
Yes-No Task,62,0,62,0,3,-1,Correct Rejection,0.499629274942,False,-1,stimulus_RORE28_Yes-No Task_2019_Jun_11_1752_513,-1,2019_Jun_11_1752,Yes-No Task,2,RORE28,
Yes-No Task,63,0,63,0,3,-1,Correct Rejection,0.468365213834,False,-1,stimulus_RORE28_Yes-No Task_2019_Jun_11_1752_514,-1,2019_Jun_11_1752,Yes-No Task,2,RORE28,
Yes-No Task,64,0,64,0,3,-1,Miss,0.466036584694,True,-1,stimulus_RORE28_Yes-No Task_2019_Jun_11_1752_515,-1,2019_Jun_11_1752,Yes-No Task,2,RORE28,
Yes-No Task,65,0,65,0,3,-1,Miss,0.635776477866,True,-1,stimulus_RORE28_Yes-No Task_2019_Jun_11_1752_516,-1,2019_Jun_11_1752,Yes-No Task,2,RORE28,
Yes-No Task,66,0,66,0,3,-1,Miss,0.435694614891,True,-1,stimulus_RORE28_Yes-No Task_2019_Jun_11_1752_517,-1,2019_Jun_11_1752,Yes-No Task,2,RORE28,
Yes-No Task,67,0,67,0,3,-1,Correct Rejection,0.599709003232,False,-1,stimulus_RORE28_Yes-No Task_2019_Jun_11_1752_518,-1,2019_Jun_11_1752,Yes-No Task,2,RORE28,
Yes-No Task,68,0,68,0,3,-1,Miss,0.724587891717,True,-1,stimulus_RORE28_Yes-No Task_2019_Jun_11_1752_519,-1,2019_Jun_11_1752,Yes-No Task,2,RORE28,
Yes-No Task,69,0,69,0,3,-1,Correct Rejection,0.568894492462,False,-1,stimulus_RORE28_Yes-No Task_2019_Jun_11_1752_520,-1,2019_Jun_11_1752,Yes-No Task,2,RORE28,
Yes-No Task,70,0,70,0,3,-1,Correct Rejection,0.5954081011,False,-1,stimulus_RORE28_Yes-No Task_2019_Jun_11_1752_521,-1,2019_Jun_11_1752,Yes-No Task,2,RORE28,
Yes-No Task,71,0,71,0,3,-1,Correct Rejection,0.405002857558,False,-1,stimulus_RORE28_Yes-No Task_2019_Jun_11_1752_522,-1,2019_Jun_11_1752,Yes-No Task,2,RORE28,
Yes-No Task,72,0,72,0,3,-1,Miss,0.502036729362,True,-1,stimulus_RORE28_Yes-No Task_2019_Jun_11_1752_523,-1,2019_Jun_11_1752,Yes-No Task,2,RORE28,
Yes-No Task,73,0,73,0,3,-1,Hit,0.301610416267,True,-1,stimulus_RORE28_Yes-No Task_2019_Jun_11_1752_524,-1,2019_Jun_11_1752,Yes-No Task,2,RORE28,
Yes-No Task,74,0,74,0,3,-1,False Alarm,0.438150513452,False,-1,stimulus_RORE28_Yes-No Task_2019_Jun_11_1752_525,-1,2019_Jun_11_1752,Yes-No Task,2,RORE28,
Yes-No Task,0,0,0,0,4.4,-1,Correct Rejection,0.467572855763,False,-1,stimulus_RORE28_Yes-No Task_2019_Jun_11_1752_526,-1,2019_Jun_11_1752,Yes-No Task,2,RORE28,
Yes-No Task,1,0,1,0,4.4,-1,Correct Rejection,0.467058439273,False,-1,stimulus_RORE28_Yes-No Task_2019_Jun_11_1752_527,-1,2019_Jun_11_1752,Yes-No Task,2,RORE28,
Yes-No Task,2,0,2,0,4.4,-1,Miss,0.501434865873,True,-1,stimulus_RORE28_Yes-No Task_2019_Jun_11_1752_528,-1,2019_Jun_11_1752,Yes-No Task,2,RORE28,
Yes-No Task,3,0,3,0,4.4,-1,Correct Rejection,0.533780721482,False,-1,stimulus_RORE28_Yes-No Task_2019_Jun_11_1752_529,-1,2019_Jun_11_1752,Yes-No Task,2,RORE28,
Yes-No Task,4,0,4,0,4.4,-1,Hit,0.5601087627,True,-1,stimulus_RORE28_Yes-No Task_2019_Jun_11_1752_530,-1,2019_Jun_11_1752,Yes-No Task,2,RORE28,
Yes-No Task,5,0,5,0,4.4,-1,Correct Rejection,0.46858485695,False,-1,stimulus_RORE28_Yes-No Task_2019_Jun_11_1752_531,-1,2019_Jun_11_1752,Yes-No Task,2,RORE28,
Yes-No Task,6,0,6,0,4.4,-1,False Alarm,0.533791806083,False,-1,stimulus_RORE28_Yes-No Task_2019_Jun_11_1752_532,-1,2019_Jun_11_1752,Yes-No Task,2,RORE28,
Yes-No Task,7,0,7,0,4.4,-1,Miss,0.434756101575,True,-1,stimulus_RORE28_Yes-No Task_2019_Jun_11_1752_533,-1,2019_Jun_11_1752,Yes-No Task,2,RORE28,
Yes-No Task,8,0,8,0,4.4,-1,False Alarm,0.500321459025,False,-1,stimulus_RORE28_Yes-No Task_2019_Jun_11_1752_534,-1,2019_Jun_11_1752,Yes-No Task,2,RORE28,
Yes-No Task,9,0,9,0,4.4,-1,Miss,0.56669395417,True,-1,stimulus_RORE28_Yes-No Task_2019_Jun_11_1752_535,-1,2019_Jun_11_1752,Yes-No Task,2,RORE28,
Yes-No Task,10,0,10,0,4.4,-1,False Alarm,0.60106217023,False,-1,stimulus_RORE28_Yes-No Task_2019_Jun_11_1752_536,-1,2019_Jun_11_1752,Yes-No Task,2,RORE28,
Yes-No Task,11,0,11,0,4.4,-1,Hit,0.600122014992,True,-1,stimulus_RORE28_Yes-No Task_2019_Jun_11_1752_537,-1,2019_Jun_11_1752,Yes-No Task,2,RORE28,
Yes-No Task,12,0,12,0,4.4,-1,Hit,0.53690622421,True,-1,stimulus_RORE28_Yes-No Task_2019_Jun_11_1752_538,-1,2019_Jun_11_1752,Yes-No Task,2,RORE28,
Yes-No Task,13,0,13,0,4.4,-1,False Alarm,0.533472399693,False,-1,stimulus_RORE28_Yes-No Task_2019_Jun_11_1752_539,-1,2019_Jun_11_1752,Yes-No Task,2,RORE28,
Yes-No Task,14,0,14,0,4.4,-1,Hit,0.435743469745,True,-1,stimulus_RORE28_Yes-No Task_2019_Jun_11_1752_540,-1,2019_Jun_11_1752,Yes-No Task,2,RORE28,
Yes-No Task,15,0,15,0,4.4,-1,Hit,0.536417671945,True,-1,stimulus_RORE28_Yes-No Task_2019_Jun_11_1752_541,-1,2019_Jun_11_1752,Yes-No Task,2,RORE28,
Yes-No Task,16,0,16,0,4.4,-1,Correct Rejection,0.735121325124,False,-1,stimulus_RORE28_Yes-No Task_2019_Jun_11_1752_542,-1,2019_Jun_11_1752,Yes-No Task,2,RORE28,
Yes-No Task,17,0,17,0,4.4,-1,Miss,0.568135389127,True,-1,stimulus_RORE28_Yes-No Task_2019_Jun_11_1752_543,-1,2019_Jun_11_1752,Yes-No Task,2,RORE28,
Yes-No Task,18,0,18,0,4.4,-1,Hit,0.739082703833,True,-1,stimulus_RORE28_Yes-No Task_2019_Jun_11_1752_544,-1,2019_Jun_11_1752,Yes-No Task,2,RORE28,
Yes-No Task,19,0,19,0,4.4,-1,Hit,0.603717185091,True,-1,stimulus_RORE28_Yes-No Task_2019_Jun_11_1752_545,-1,2019_Jun_11_1752,Yes-No Task,2,RORE28,
Yes-No Task,20,0,20,0,4.4,-1,Hit,0.524074131623,True,-1,stimulus_RORE28_Yes-No Task_2019_Jun_11_1752_546,-1,2019_Jun_11_1752,Yes-No Task,2,RORE28,
Yes-No Task,21,0,21,0,4.4,-1,False Alarm,0.492871652823,False,-1,stimulus_RORE28_Yes-No Task_2019_Jun_11_1752_547,-1,2019_Jun_11_1752,Yes-No Task,2,RORE28,
Yes-No Task,22,0,22,0,4.4,-1,Miss,0.599282443989,True,-1,stimulus_RORE28_Yes-No Task_2019_Jun_11_1752_548,-1,2019_Jun_11_1752,Yes-No Task,2,RORE28,
Yes-No Task,23,0,23,0,4.4,-1,Miss,0.535105149727,True,-1,stimulus_RORE28_Yes-No Task_2019_Jun_11_1752_549,-1,2019_Jun_11_1752,Yes-No Task,2,RORE28,
Yes-No Task,24,0,24,0,4.4,-1,Correct Rejection,0.598398122936,False,-1,stimulus_RORE28_Yes-No Task_2019_Jun_11_1752_550,-1,2019_Jun_11_1752,Yes-No Task,2,RORE28,
Yes-No Task,25,0,25,0,4.4,-1,Hit,0.63346468145,True,-1,stimulus_RORE28_Yes-No Task_2019_Jun_11_1752_551,-1,2019_Jun_11_1752,Yes-No Task,2,RORE28,
Yes-No Task,26,0,26,0,4.4,-1,Hit,0.56634539878,True,-1,stimulus_RORE28_Yes-No Task_2019_Jun_11_1752_552,-1,2019_Jun_11_1752,Yes-No Task,2,RORE28,
Yes-No Task,27,0,27,0,4.4,-1,Correct Rejection,0.6690349821,False,-1,stimulus_RORE28_Yes-No Task_2019_Jun_11_1752_553,-1,2019_Jun_11_1752,Yes-No Task,2,RORE28,
Yes-No Task,28,0,28,0,4.4,-1,Hit,0.567449773196,True,-1,stimulus_RORE28_Yes-No Task_2019_Jun_11_1752_554,-1,2019_Jun_11_1752,Yes-No Task,2,RORE28,
Yes-No Task,29,0,29,0,4.4,-1,Correct Rejection,0.667402642313,False,-1,stimulus_RORE28_Yes-No Task_2019_Jun_11_1752_555,-1,2019_Jun_11_1752,Yes-No Task,2,RORE28,
Yes-No Task,30,0,30,0,4.4,-1,Hit,0.568995897658,True,-1,stimulus_RORE28_Yes-No Task_2019_Jun_11_1752_556,-1,2019_Jun_11_1752,Yes-No Task,2,RORE28,
Yes-No Task,31,0,31,0,4.4,-1,Hit,0.532682915684,True,-1,stimulus_RORE28_Yes-No Task_2019_Jun_11_1752_557,-1,2019_Jun_11_1752,Yes-No Task,2,RORE28,
Yes-No Task,32,0,32,0,4.4,-1,Hit,0.469142791815,True,-1,stimulus_RORE28_Yes-No Task_2019_Jun_11_1752_558,-1,2019_Jun_11_1752,Yes-No Task,2,RORE28,
Yes-No Task,33,0,33,0,4.4,-1,Correct Rejection,0.534562815446,False,-1,stimulus_RORE28_Yes-No Task_2019_Jun_11_1752_559,-1,2019_Jun_11_1752,Yes-No Task,2,RORE28,
Yes-No Task,34,0,34,0,4.4,-1,False Alarm,0.399173894897,False,-1,stimulus_RORE28_Yes-No Task_2019_Jun_11_1752_560,-1,2019_Jun_11_1752,Yes-No Task,2,RORE28,
Yes-No Task,35,0,35,0,4.4,-1,Miss,0.435403125826,True,-1,stimulus_RORE28_Yes-No Task_2019_Jun_11_1752_561,-1,2019_Jun_11_1752,Yes-No Task,2,RORE28,
Yes-No Task,36,0,36,0,4.4,-1,Correct Rejection,0.632979413494,False,-1,stimulus_RORE28_Yes-No Task_2019_Jun_11_1752_562,-1,2019_Jun_11_1752,Yes-No Task,2,RORE28,
Yes-No Task,37,0,37,0,4.4,-1,Miss,0.501466888469,True,-1,stimulus_RORE28_Yes-No Task_2019_Jun_11_1752_563,-1,2019_Jun_11_1752,Yes-No Task,2,RORE28,
Yes-No Task,38,0,38,0,4.4,-1,Hit,0.574089157861,True,-1,stimulus_RORE28_Yes-No Task_2019_Jun_11_1752_564,-1,2019_Jun_11_1752,Yes-No Task,2,RORE28,
Yes-No Task,39,0,39,0,4.4,-1,False Alarm,0.56691688206,False,-1,stimulus_RORE28_Yes-No Task_2019_Jun_11_1752_565,-1,2019_Jun_11_1752,Yes-No Task,2,RORE28,
Yes-No Task,40,0,40,0,4.4,-1,Hit,0.760700526182,True,-1,stimulus_RORE28_Yes-No Task_2019_Jun_11_1752_566,-1,2019_Jun_11_1752,Yes-No Task,2,RORE28,
Yes-No Task,41,0,41,0,4.4,-1,Correct Rejection,0.559322973248,False,-1,stimulus_RORE28_Yes-No Task_2019_Jun_11_1752_567,-1,2019_Jun_11_1752,Yes-No Task,2,RORE28,
Yes-No Task,42,0,42,0,4.4,-1,Correct Rejection,0.491956130601,False,-1,stimulus_RORE28_Yes-No Task_2019_Jun_11_1752_568,-1,2019_Jun_11_1752,Yes-No Task,2,RORE28,
Yes-No Task,43,0,43,0,4.4,-1,Miss,0.493556036614,True,-1,stimulus_RORE28_Yes-No Task_2019_Jun_11_1752_569,-1,2019_Jun_11_1752,Yes-No Task,2,RORE28,
Yes-No Task,44,0,44,0,4.4,-1,Hit,0.598529498558,True,-1,stimulus_RORE28_Yes-No Task_2019_Jun_11_1752_570,-1,2019_Jun_11_1752,Yes-No Task,2,RORE28,
Yes-No Task,45,0,45,0,4.4,-1,Hit,0.869651379064,True,-1,stimulus_RORE28_Yes-No Task_2019_Jun_11_1752_571,-1,2019_Jun_11_1752,Yes-No Task,2,RORE28,
Yes-No Task,46,0,46,0,4.4,-1,Correct Rejection,0.465882218909,False,-1,stimulus_RORE28_Yes-No Task_2019_Jun_11_1752_572,-1,2019_Jun_11_1752,Yes-No Task,2,RORE28,
Yes-No Task,47,0,47,0,4.4,-1,Hit,0.436794062145,True,-1,stimulus_RORE28_Yes-No Task_2019_Jun_11_1752_573,-1,2019_Jun_11_1752,Yes-No Task,2,RORE28,
Yes-No Task,48,0,48,0,4.4,-1,Correct Rejection,0.433363933116,False,-1,stimulus_RORE28_Yes-No Task_2019_Jun_11_1752_574,-1,2019_Jun_11_1752,Yes-No Task,2,RORE28,
Yes-No Task,49,0,49,0,4.4,-1,Hit,0.441010391805,True,-1,stimulus_RORE28_Yes-No Task_2019_Jun_11_1752_575,-1,2019_Jun_11_1752,Yes-No Task,2,RORE28,
Yes-No Task,50,0,50,0,4.4,-1,Miss,0.466131011024,True,-1,stimulus_RORE28_Yes-No Task_2019_Jun_11_1752_576,-1,2019_Jun_11_1752,Yes-No Task,2,RORE28,
Yes-No Task,51,0,51,0,4.4,-1,False Alarm,0.405052533839,False,-1,stimulus_RORE28_Yes-No Task_2019_Jun_11_1752_577,-1,2019_Jun_11_1752,Yes-No Task,2,RORE28,
Yes-No Task,52,0,52,0,4.4,-1,False Alarm,0.600936542265,False,-1,stimulus_RORE28_Yes-No Task_2019_Jun_11_1752_578,-1,2019_Jun_11_1752,Yes-No Task,2,RORE28,
Yes-No Task,53,0,53,0,4.4,-1,False Alarm,0.56828195462,False,-1,stimulus_RORE28_Yes-No Task_2019_Jun_11_1752_579,-1,2019_Jun_11_1752,Yes-No Task,2,RORE28,
Yes-No Task,54,0,54,0,4.4,-1,Correct Rejection,0.533848872408,False,-1,stimulus_RORE28_Yes-No Task_2019_Jun_11_1752_580,-1,2019_Jun_11_1752,Yes-No Task,2,RORE28,
Yes-No Task,55,0,55,0,4.4,-1,Hit,0.630855647847,True,-1,stimulus_RORE28_Yes-No Task_2019_Jun_11_1752_581,-1,2019_Jun_11_1752,Yes-No Task,2,RORE28,
Yes-No Task,56,0,56,0,4.4,-1,False Alarm,0.53433290869,False,-1,stimulus_RORE28_Yes-No Task_2019_Jun_11_1752_582,-1,2019_Jun_11_1752,Yes-No Task,2,RORE28,
Yes-No Task,57,0,57,0,4.4,-1,Hit,0.602050359361,True,-1,stimulus_RORE28_Yes-No Task_2019_Jun_11_1752_583,-1,2019_Jun_11_1752,Yes-No Task,2,RORE28,
Yes-No Task,58,0,58,0,4.4,-1,Correct Rejection,0.633035248145,False,-1,stimulus_RORE28_Yes-No Task_2019_Jun_11_1752_584,-1,2019_Jun_11_1752,Yes-No Task,2,RORE28,
Yes-No Task,59,0,59,0,4.4,-1,Hit,0.436314131599,True,-1,stimulus_RORE28_Yes-No Task_2019_Jun_11_1752_585,-1,2019_Jun_11_1752,Yes-No Task,2,RORE28,
Yes-No Task,60,0,60,0,4.4,-1,False Alarm,0.45732270088,False,-1,stimulus_RORE28_Yes-No Task_2019_Jun_11_1752_586,-1,2019_Jun_11_1752,Yes-No Task,2,RORE28,
Yes-No Task,61,0,61,0,4.4,-1,Miss,0.532955930103,True,-1,stimulus_RORE28_Yes-No Task_2019_Jun_11_1752_587,-1,2019_Jun_11_1752,Yes-No Task,2,RORE28,
Yes-No Task,62,0,62,0,4.4,-1,Hit,0.536454210524,True,-1,stimulus_RORE28_Yes-No Task_2019_Jun_11_1752_588,-1,2019_Jun_11_1752,Yes-No Task,2,RORE28,
Yes-No Task,63,0,63,0,4.4,-1,Hit,0.76495873183,True,-1,stimulus_RORE28_Yes-No Task_2019_Jun_11_1752_589,-1,2019_Jun_11_1752,Yes-No Task,2,RORE28,
Yes-No Task,64,0,64,0,4.4,-1,Hit,0.500834644306,True,-1,stimulus_RORE28_Yes-No Task_2019_Jun_11_1752_590,-1,2019_Jun_11_1752,Yes-No Task,2,RORE28,
Yes-No Task,65,0,65,0,4.4,-1,False Alarm,0.501448824536,False,-1,stimulus_RORE28_Yes-No Task_2019_Jun_11_1752_591,-1,2019_Jun_11_1752,Yes-No Task,2,RORE28,
Yes-No Task,66,0,66,0,4.4,-1,Miss,0.399364389479,True,-1,stimulus_RORE28_Yes-No Task_2019_Jun_11_1752_592,-1,2019_Jun_11_1752,Yes-No Task,2,RORE28,
Yes-No Task,67,0,67,0,4.4,-1,Correct Rejection,0.701957657468,False,-1,stimulus_RORE28_Yes-No Task_2019_Jun_11_1752_593,-1,2019_Jun_11_1752,Yes-No Task,2,RORE28,
Yes-No Task,68,0,68,0,4.4,-1,Correct Rejection,0.602925648447,False,-1,stimulus_RORE28_Yes-No Task_2019_Jun_11_1752_594,-1,2019_Jun_11_1752,Yes-No Task,2,RORE28,
Yes-No Task,69,0,69,0,4.4,-1,Correct Rejection,0.598725740332,False,-1,stimulus_RORE28_Yes-No Task_2019_Jun_11_1752_595,-1,2019_Jun_11_1752,Yes-No Task,2,RORE28,
Yes-No Task,70,0,70,0,4.4,-1,Correct Rejection,0.726431252901,False,-1,stimulus_RORE28_Yes-No Task_2019_Jun_11_1752_596,-1,2019_Jun_11_1752,Yes-No Task,2,RORE28,
Yes-No Task,71,0,71,0,4.4,-1,Correct Rejection,0.535748889204,False,-1,stimulus_RORE28_Yes-No Task_2019_Jun_11_1752_597,-1,2019_Jun_11_1752,Yes-No Task,2,RORE28,
Yes-No Task,72,0,72,0,4.4,-1,False Alarm,0.73635953851,False,-1,stimulus_RORE28_Yes-No Task_2019_Jun_11_1752_598,-1,2019_Jun_11_1752,Yes-No Task,2,RORE28,
Yes-No Task,73,0,73,0,4.4,-1,Miss,0.400169474073,True,-1,stimulus_RORE28_Yes-No Task_2019_Jun_11_1752_599,-1,2019_Jun_11_1752,Yes-No Task,2,RORE28,
Yes-No Task,74,0,74,0,4.4,-1,Correct Rejection,0.704074854497,False,-1,stimulus_RORE28_Yes-No Task_2019_Jun_11_1752_600,-1,2019_Jun_11_1752,Yes-No Task,2,RORE28,
