Task,trials.thisRepN,trials.thisTrialN,trials.thisN,trials.thisIndex,time_response_second,response_2IFCnew,response_key2Interval_2IFCnew,signal_intensity,constant Value,response,time_response,signal_on_stimuluspos1,signal_on_stimuluspos2,stimulus_name_pos1,stimulus_name_pos2,date,expName,session,participant,
2IFCnew,0,0,0,0,0.533565594349,2,Yes,6.6,-1,Correct Rejection,0.600311277434,False,True,stimulusRORE28_2IFCnew_2019_Jun_11_1716_1,stimulusRORE28_2IFCnew_2019_Jun_11_1716_2,2019_Jun_11_1716,2IFCnew,2,RORE28,
2IFCnew,1,0,1,0,-1,3,Yes,6.6,-1,Correct Rejection,0.597322076559,False,True,stimulusRORE28_2IFCnew_2019_Jun_11_1716_3,stimulusRORE28_2IFCnew_2019_Jun_11_1716_4,2019_Jun_11_1716,2IFCnew,2,RORE28,
2IFCnew,2,0,2,0,-1,3,Yes,6.6,-1,Correct Rejection,0.83866854338,False,True,stimulusRORE28_2IFCnew_2019_Jun_11_1716_5,stimulusRORE28_2IFCnew_2019_Jun_11_1716_6,2019_Jun_11_1716,2IFCnew,2,RORE28,
2IFCnew,3,0,3,0,0.667320122477,2,Yes,6.6,-1,Correct Rejection,0.600970207248,False,True,stimulusRORE28_2IFCnew_2019_Jun_11_1716_7,stimulusRORE28_2IFCnew_2019_Jun_11_1716_8,2019_Jun_11_1716,2IFCnew,2,RORE28,
2IFCnew,4,0,4,0,-1,1,Yes,6.6,-1,Hit,0.635578182992,True,False,stimulusRORE28_2IFCnew_2019_Jun_11_1716_9,stimulusRORE28_2IFCnew_2019_Jun_11_1716_10,2019_Jun_11_1716,2IFCnew,2,RORE28,
2IFCnew,5,0,5,0,0.833959556185,1,No,6.6,-1,Hit,0.635281356983,True,False,stimulusRORE28_2IFCnew_2019_Jun_11_1716_11,stimulusRORE28_2IFCnew_2019_Jun_11_1716_12,2019_Jun_11_1716,2IFCnew,2,RORE28,
2IFCnew,6,0,6,0,0.734152020887,1,No,6.6,-1,Hit,0.700603259727,True,False,stimulusRORE28_2IFCnew_2019_Jun_11_1716_13,stimulusRORE28_2IFCnew_2019_Jun_11_1716_14,2019_Jun_11_1716,2IFCnew,2,RORE28,
2IFCnew,7,0,7,0,0.600500540342,2,Yes,6.6,-1,Correct Rejection,0.833285846747,False,True,stimulusRORE28_2IFCnew_2019_Jun_11_1716_15,stimulusRORE28_2IFCnew_2019_Jun_11_1716_16,2019_Jun_11_1716,2IFCnew,2,RORE28,
2IFCnew,8,0,8,0,0.670977695845,2,Yes,6.6,-1,Correct Rejection,0.773227992468,False,True,stimulusRORE28_2IFCnew_2019_Jun_11_1716_17,stimulusRORE28_2IFCnew_2019_Jun_11_1716_18,2019_Jun_11_1716,2IFCnew,2,RORE28,
2IFCnew,9,0,9,0,0.634743539151,1,No,6.6,-1,Hit,0.567415287253,True,False,stimulusRORE28_2IFCnew_2019_Jun_11_1716_19,stimulusRORE28_2IFCnew_2019_Jun_11_1716_20,2019_Jun_11_1716,2IFCnew,2,RORE28,
2IFCnew,10,0,10,0,0.576015860308,2,Yes,6.6,-1,Correct Rejection,0.799906230997,False,True,stimulusRORE28_2IFCnew_2019_Jun_11_1716_21,stimulusRORE28_2IFCnew_2019_Jun_11_1716_22,2019_Jun_11_1716,2IFCnew,2,RORE28,
2IFCnew,11,0,11,0,-1,4,Yes,6.6,-1,Miss,0.533440376632,True,False,stimulusRORE28_2IFCnew_2019_Jun_11_1716_23,stimulusRORE28_2IFCnew_2019_Jun_11_1716_24,2019_Jun_11_1716,2IFCnew,2,RORE28,
2IFCnew,12,0,12,0,-1,0,Yes,6.6,-1,No Answer,-1,False,True,stimulusRORE28_2IFCnew_2019_Jun_11_1716_25,stimulusRORE28_2IFCnew_2019_Jun_11_1716_26,2019_Jun_11_1716,2IFCnew,2,RORE28,
2IFCnew,13,0,13,0,0.568169053644,2,Yes,6.6,-1,Correct Rejection,0.633742622565,False,True,stimulusRORE28_2IFCnew_2019_Jun_11_1716_27,stimulusRORE28_2IFCnew_2019_Jun_11_1716_28,2019_Jun_11_1716,2IFCnew,2,RORE28,
2IFCnew,14,0,14,0,0.56999435043,2,Yes,6.6,-1,Correct Rejection,0.567448541988,False,True,stimulusRORE28_2IFCnew_2019_Jun_11_1716_29,stimulusRORE28_2IFCnew_2019_Jun_11_1716_30,2019_Jun_11_1716,2IFCnew,2,RORE28,
2IFCnew,15,0,15,0,0.476178765763,5,Yes,6.6,-1,False Alarm,0.803968604654,False,True,stimulusRORE28_2IFCnew_2019_Jun_11_1716_31,stimulusRORE28_2IFCnew_2019_Jun_11_1716_32,2019_Jun_11_1716,2IFCnew,2,RORE28,
2IFCnew,16,0,16,0,0.503079932183,2,Yes,6.6,-1,Correct Rejection,0.604739039205,False,True,stimulusRORE28_2IFCnew_2019_Jun_11_1716_33,stimulusRORE28_2IFCnew_2019_Jun_11_1716_34,2019_Jun_11_1716,2IFCnew,2,RORE28,
2IFCnew,17,0,17,0,0.601183692459,1,No,6.6,-1,Hit,0.566238245927,True,False,stimulusRORE28_2IFCnew_2019_Jun_11_1716_35,stimulusRORE28_2IFCnew_2019_Jun_11_1716_36,2019_Jun_11_1716,2IFCnew,2,RORE28,
2IFCnew,18,0,18,0,0.666997842491,2,Yes,6.6,-1,Correct Rejection,0.833517806139,False,True,stimulusRORE28_2IFCnew_2019_Jun_11_1716_37,stimulusRORE28_2IFCnew_2019_Jun_11_1716_38,2019_Jun_11_1716,2IFCnew,2,RORE28,
2IFCnew,19,0,19,0,0.871136742178,1,No,6.6,-1,Hit,0.760514548048,True,False,stimulusRORE28_2IFCnew_2019_Jun_11_1716_39,stimulusRORE28_2IFCnew_2019_Jun_11_1716_40,2019_Jun_11_1716,2IFCnew,2,RORE28,
2IFCnew,20,0,20,0,0.633868660778,1,No,6.6,-1,Hit,0.637246650644,True,False,stimulusRORE28_2IFCnew_2019_Jun_11_1716_41,stimulusRORE28_2IFCnew_2019_Jun_11_1716_42,2019_Jun_11_1716,2IFCnew,2,RORE28,
2IFCnew,21,0,21,0,0.630415540189,2,Yes,6.6,-1,Correct Rejection,0.728629327379,False,True,stimulusRORE28_2IFCnew_2019_Jun_11_1716_43,stimulusRORE28_2IFCnew_2019_Jun_11_1716_44,2019_Jun_11_1716,2IFCnew,2,RORE28,
2IFCnew,22,0,22,0,0.601177944336,2,Yes,6.6,-1,Correct Rejection,0.600126530975,False,True,stimulusRORE28_2IFCnew_2019_Jun_11_1716_45,stimulusRORE28_2IFCnew_2019_Jun_11_1716_46,2019_Jun_11_1716,2IFCnew,2,RORE28,
2IFCnew,23,0,23,0,0.766772122588,5,Yes,6.6,-1,False Alarm,0.534375194926,False,True,stimulusRORE28_2IFCnew_2019_Jun_11_1716_47,stimulusRORE28_2IFCnew_2019_Jun_11_1716_48,2019_Jun_11_1716,2IFCnew,2,RORE28,
2IFCnew,24,0,24,0,0.532961267512,2,Yes,6.6,-1,Correct Rejection,0.598133730702,False,True,stimulusRORE28_2IFCnew_2019_Jun_11_1716_49,stimulusRORE28_2IFCnew_2019_Jun_11_1716_50,2019_Jun_11_1716,2IFCnew,2,RORE28,
2IFCnew,25,0,25,0,0.669051814824,2,Yes,6.6,-1,Correct Rejection,0.900901070796,False,True,stimulusRORE28_2IFCnew_2019_Jun_11_1716_51,stimulusRORE28_2IFCnew_2019_Jun_11_1716_52,2019_Jun_11_1716,2IFCnew,2,RORE28,
2IFCnew,26,0,26,0,0.601477234159,5,Yes,6.6,-1,False Alarm,0.501336333808,False,True,stimulusRORE28_2IFCnew_2019_Jun_11_1716_53,stimulusRORE28_2IFCnew_2019_Jun_11_1716_54,2019_Jun_11_1716,2IFCnew,2,RORE28,
2IFCnew,27,0,27,0,0.532129086088,2,Yes,6.6,-1,Correct Rejection,0.600916014984,False,True,stimulusRORE28_2IFCnew_2019_Jun_11_1716_55,stimulusRORE28_2IFCnew_2019_Jun_11_1716_56,2019_Jun_11_1716,2IFCnew,2,RORE28,
2IFCnew,28,0,28,0,0.900641194079,7,Yes,6.6,-1,Hit,0.501131470315,True,False,stimulusRORE28_2IFCnew_2019_Jun_11_1716_57,stimulusRORE28_2IFCnew_2019_Jun_11_1716_58,2019_Jun_11_1716,2IFCnew,2,RORE28,
2IFCnew,29,0,29,0,0.635784278158,2,Yes,6.6,-1,Correct Rejection,0.834555672016,False,True,stimulusRORE28_2IFCnew_2019_Jun_11_1716_59,stimulusRORE28_2IFCnew_2019_Jun_11_1716_60,2019_Jun_11_1716,2IFCnew,2,RORE28,
2IFCnew,30,0,30,0,-1,1,Yes,6.6,-1,Hit,0.535805544816,True,False,stimulusRORE28_2IFCnew_2019_Jun_11_1716_61,stimulusRORE28_2IFCnew_2019_Jun_11_1716_62,2019_Jun_11_1716,2IFCnew,2,RORE28,
2IFCnew,31,0,31,0,0.609596234281,4,Yes,6.6,-1,Miss,0.593938339036,True,False,stimulusRORE28_2IFCnew_2019_Jun_11_1716_63,stimulusRORE28_2IFCnew_2019_Jun_11_1716_64,2019_Jun_11_1716,2IFCnew,2,RORE28,
2IFCnew,32,0,32,0,-1,3,Yes,6.6,-1,Correct Rejection,0.737130958587,False,True,stimulusRORE28_2IFCnew_2019_Jun_11_1716_65,stimulusRORE28_2IFCnew_2019_Jun_11_1716_66,2019_Jun_11_1716,2IFCnew,2,RORE28,
2IFCnew,33,0,33,0,-1,1,Yes,6.6,-1,Hit,0.602304899599,True,False,stimulusRORE28_2IFCnew_2019_Jun_11_1716_67,stimulusRORE28_2IFCnew_2019_Jun_11_1716_68,2019_Jun_11_1716,2IFCnew,2,RORE28,
2IFCnew,34,0,34,0,-1,3,Yes,6.6,-1,Correct Rejection,0.767828463111,False,True,stimulusRORE28_2IFCnew_2019_Jun_11_1716_69,stimulusRORE28_2IFCnew_2019_Jun_11_1716_70,2019_Jun_11_1716,2IFCnew,2,RORE28,
2IFCnew,35,0,35,0,-1,1,Yes,6.6,-1,Hit,0.533576268237,True,False,stimulusRORE28_2IFCnew_2019_Jun_11_1716_71,stimulusRORE28_2IFCnew_2019_Jun_11_1716_72,2019_Jun_11_1716,2IFCnew,2,RORE28,
2IFCnew,36,0,36,0,0.534660526086,1,No,6.6,-1,Hit,0.643723868299,True,False,stimulusRORE28_2IFCnew_2019_Jun_11_1716_73,stimulusRORE28_2IFCnew_2019_Jun_11_1716_74,2019_Jun_11_1716,2IFCnew,2,RORE28,
2IFCnew,37,0,37,0,0.697280693334,2,Yes,6.6,-1,Correct Rejection,0.734590486158,False,True,stimulusRORE28_2IFCnew_2019_Jun_11_1716_75,stimulusRORE28_2IFCnew_2019_Jun_11_1716_76,2019_Jun_11_1716,2IFCnew,2,RORE28,
2IFCnew,38,0,38,0,0.834320838563,1,No,6.6,-1,Hit,0.633781624492,True,False,stimulusRORE28_2IFCnew_2019_Jun_11_1716_77,stimulusRORE28_2IFCnew_2019_Jun_11_1716_78,2019_Jun_11_1716,2IFCnew,2,RORE28,
2IFCnew,39,0,39,0,0.56870523002,1,No,6.6,-1,Hit,0.642239326611,True,False,stimulusRORE28_2IFCnew_2019_Jun_11_1716_79,stimulusRORE28_2IFCnew_2019_Jun_11_1716_80,2019_Jun_11_1716,2IFCnew,2,RORE28,
2IFCnew,40,0,40,0,0.734817930032,2,Yes,6.6,-1,Correct Rejection,0.733716018964,False,True,stimulusRORE28_2IFCnew_2019_Jun_11_1716_81,stimulusRORE28_2IFCnew_2019_Jun_11_1716_82,2019_Jun_11_1716,2IFCnew,2,RORE28,
2IFCnew,41,0,41,0,0.641118530184,5,Yes,6.6,-1,False Alarm,0.82657338446,False,True,stimulusRORE28_2IFCnew_2019_Jun_11_1716_83,stimulusRORE28_2IFCnew_2019_Jun_11_1716_84,2019_Jun_11_1716,2IFCnew,2,RORE28,
2IFCnew,42,0,42,0,0.635582698975,1,No,6.6,-1,Hit,0.607091069221,True,False,stimulusRORE28_2IFCnew_2019_Jun_11_1716_85,stimulusRORE28_2IFCnew_2019_Jun_11_1716_86,2019_Jun_11_1716,2IFCnew,2,RORE28,
2IFCnew,43,0,43,0,0.631971928291,1,No,6.6,-1,Hit,0.567760969047,True,False,stimulusRORE28_2IFCnew_2019_Jun_11_1716_87,stimulusRORE28_2IFCnew_2019_Jun_11_1716_88,2019_Jun_11_1716,2IFCnew,2,RORE28,
2IFCnew,44,0,44,0,0.599752110895,2,Yes,6.6,-1,Correct Rejection,0.665475529619,False,True,stimulusRORE28_2IFCnew_2019_Jun_11_1716_89,stimulusRORE28_2IFCnew_2019_Jun_11_1716_90,2019_Jun_11_1716,2IFCnew,2,RORE28,
2IFCnew,45,0,45,0,0.599857621826,5,Yes,6.6,-1,False Alarm,0.699832250364,False,True,stimulusRORE28_2IFCnew_2019_Jun_11_1716_91,stimulusRORE28_2IFCnew_2019_Jun_11_1716_92,2019_Jun_11_1716,2IFCnew,2,RORE28,
2IFCnew,46,0,46,0,0.432962006424,2,Yes,6.6,-1,Correct Rejection,0.566470616497,False,True,stimulusRORE28_2IFCnew_2019_Jun_11_1716_93,stimulusRORE28_2IFCnew_2019_Jun_11_1716_94,2019_Jun_11_1716,2IFCnew,2,RORE28,
2IFCnew,47,0,47,0,0.500146976206,5,Yes,6.6,-1,False Alarm,0.634635975119,False,True,stimulusRORE28_2IFCnew_2019_Jun_11_1716_95,stimulusRORE28_2IFCnew_2019_Jun_11_1716_96,2019_Jun_11_1716,2IFCnew,2,RORE28,
2IFCnew,48,0,48,0,0.901449562982,1,No,6.6,-1,Hit,0.763534950558,True,False,stimulusRORE28_2IFCnew_2019_Jun_11_1716_97,stimulusRORE28_2IFCnew_2019_Jun_11_1716_98,2019_Jun_11_1716,2IFCnew,2,RORE28,
2IFCnew,49,0,49,0,-1,4,No,6.6,-1,Miss,0.666179209482,True,False,stimulusRORE28_2IFCnew_2019_Jun_11_1716_99,stimulusRORE28_2IFCnew_2019_Jun_11_1716_100,2019_Jun_11_1716,2IFCnew,2,RORE28,
2IFCnew,50,0,50,0,0.733328050934,4,Yes,6.6,-1,Miss,0.76754149003,True,False,stimulusRORE28_2IFCnew_2019_Jun_11_1716_101,stimulusRORE28_2IFCnew_2019_Jun_11_1716_102,2019_Jun_11_1716,2IFCnew,2,RORE28,
2IFCnew,51,0,51,0,0.767596092541,5,Yes,6.6,-1,False Alarm,0.566579822451,False,True,stimulusRORE28_2IFCnew_2019_Jun_11_1716_103,stimulusRORE28_2IFCnew_2019_Jun_11_1716_104,2019_Jun_11_1716,2IFCnew,2,RORE28,
2IFCnew,52,0,52,0,0.598883391358,2,Yes,6.6,-1,Correct Rejection,0.869056084193,False,True,stimulusRORE28_2IFCnew_2019_Jun_11_1716_105,stimulusRORE28_2IFCnew_2019_Jun_11_1716_106,2019_Jun_11_1716,2IFCnew,2,RORE28,
2IFCnew,53,0,53,0,0.629125598352,1,No,6.6,-1,Hit,0.593190731015,True,False,stimulusRORE28_2IFCnew_2019_Jun_11_1716_107,stimulusRORE28_2IFCnew_2019_Jun_11_1716_108,2019_Jun_11_1716,2IFCnew,2,RORE28,
2IFCnew,54,0,54,0,-1,1,No,6.6,-1,Hit,0.862538222224,True,False,stimulusRORE28_2IFCnew_2019_Jun_11_1716_109,stimulusRORE28_2IFCnew_2019_Jun_11_1716_110,2019_Jun_11_1716,2IFCnew,2,RORE28,
2IFCnew,55,0,55,0,-1,3,No,6.6,-1,Correct Rejection,0.600438958034,False,True,stimulusRORE28_2IFCnew_2019_Jun_11_1716_111,stimulusRORE28_2IFCnew_2019_Jun_11_1716_112,2019_Jun_11_1716,2IFCnew,2,RORE28,
2IFCnew,56,0,56,0,0.534027460497,4,Yes,6.6,-1,Miss,0.532998216804,True,False,stimulusRORE28_2IFCnew_2019_Jun_11_1716_113,stimulusRORE28_2IFCnew_2019_Jun_11_1716_114,2019_Jun_11_1716,2IFCnew,2,RORE28,
2IFCnew,57,0,57,0,-1,0,Yes,6.6,-1,No Answer,-1,False,True,stimulusRORE28_2IFCnew_2019_Jun_11_1716_115,stimulusRORE28_2IFCnew_2019_Jun_11_1716_116,2019_Jun_11_1716,2IFCnew,2,RORE28,
2IFCnew,58,0,58,0,0.702971711755,2,Yes,6.6,-1,Correct Rejection,0.534571026452,False,True,stimulusRORE28_2IFCnew_2019_Jun_11_1716_117,stimulusRORE28_2IFCnew_2019_Jun_11_1716_118,2019_Jun_11_1716,2IFCnew,2,RORE28,
2IFCnew,59,0,59,0,0.536299434025,2,Yes,6.6,-1,Correct Rejection,0.835552072152,False,True,stimulusRORE28_2IFCnew_2019_Jun_11_1716_119,stimulusRORE28_2IFCnew_2019_Jun_11_1716_120,2019_Jun_11_1716,2IFCnew,2,RORE28,
2IFCnew,60,0,60,0,-1,4,Yes,6.6,-1,Miss,0.769713699818,True,False,stimulusRORE28_2IFCnew_2019_Jun_11_1716_121,stimulusRORE28_2IFCnew_2019_Jun_11_1716_122,2019_Jun_11_1716,2IFCnew,2,RORE28,
2IFCnew,61,0,61,0,0.534050451592,2,Yes,6.6,-1,Correct Rejection,0.75981415296,False,True,stimulusRORE28_2IFCnew_2019_Jun_11_1716_123,stimulusRORE28_2IFCnew_2019_Jun_11_1716_124,2019_Jun_11_1716,2IFCnew,2,RORE28,
2IFCnew,62,0,62,0,0.633875640109,4,Yes,6.6,-1,Miss,0.599805892911,True,False,stimulusRORE28_2IFCnew_2019_Jun_11_1716_125,stimulusRORE28_2IFCnew_2019_Jun_11_1716_126,2019_Jun_11_1716,2IFCnew,2,RORE28,
2IFCnew,63,0,63,0,-1,3,Yes,6.6,-1,Correct Rejection,0.668194179423,False,True,stimulusRORE28_2IFCnew_2019_Jun_11_1716_127,stimulusRORE28_2IFCnew_2019_Jun_11_1716_128,2019_Jun_11_1716,2IFCnew,2,RORE28,
2IFCnew,64,0,64,0,0.67019765405,2,Yes,6.6,-1,Correct Rejection,0.66658811504,False,True,stimulusRORE28_2IFCnew_2019_Jun_11_1716_129,stimulusRORE28_2IFCnew_2019_Jun_11_1716_130,2019_Jun_11_1716,2IFCnew,2,RORE28,
2IFCnew,65,0,65,0,0.500350197311,5,Yes,6.6,-1,False Alarm,0.734271900728,False,True,stimulusRORE28_2IFCnew_2019_Jun_11_1716_131,stimulusRORE28_2IFCnew_2019_Jun_11_1716_132,2019_Jun_11_1716,2IFCnew,2,RORE28,
2IFCnew,66,0,66,0,0.635158192366,2,Yes,6.6,-1,Correct Rejection,0.673865902238,False,True,stimulusRORE28_2IFCnew_2019_Jun_11_1716_133,stimulusRORE28_2IFCnew_2019_Jun_11_1716_134,2019_Jun_11_1716,2IFCnew,2,RORE28,
2IFCnew,67,0,67,0,0.568589455448,2,Yes,6.6,-1,Correct Rejection,0.633127211127,False,True,stimulusRORE28_2IFCnew_2019_Jun_11_1716_135,stimulusRORE28_2IFCnew_2019_Jun_11_1716_136,2019_Jun_11_1716,2IFCnew,2,RORE28,
2IFCnew,68,0,68,0,-1,3,Yes,6.6,-1,Correct Rejection,0.700698506553,False,True,stimulusRORE28_2IFCnew_2019_Jun_11_1716_137,stimulusRORE28_2IFCnew_2019_Jun_11_1716_138,2019_Jun_11_1716,2IFCnew,2,RORE28,
2IFCnew,69,0,69,0,0.600088760257,2,Yes,6.6,-1,Correct Rejection,0.603807505686,False,True,stimulusRORE28_2IFCnew_2019_Jun_11_1716_139,stimulusRORE28_2IFCnew_2019_Jun_11_1716_140,2019_Jun_11_1716,2IFCnew,2,RORE28,
2IFCnew,70,0,70,0,0.499629275408,4,Yes,6.6,-1,Miss,0.53311316995,True,False,stimulusRORE28_2IFCnew_2019_Jun_11_1716_141,stimulusRORE28_2IFCnew_2019_Jun_11_1716_142,2019_Jun_11_1716,2IFCnew,2,RORE28,
2IFCnew,71,0,71,0,-1,2,Yes,6.6,-1,False Alarm,0.665033369325,False,True,stimulusRORE28_2IFCnew_2019_Jun_11_1716_143,stimulusRORE28_2IFCnew_2019_Jun_11_1716_144,2019_Jun_11_1716,2IFCnew,2,RORE28,
2IFCnew,72,0,72,0,0.532044923399,2,Yes,6.6,-1,Correct Rejection,0.566395485774,False,True,stimulusRORE28_2IFCnew_2019_Jun_11_1716_145,stimulusRORE28_2IFCnew_2019_Jun_11_1716_146,2019_Jun_11_1716,2IFCnew,2,RORE28,
2IFCnew,73,0,73,0,-1,3,Yes,6.6,-1,Correct Rejection,0.901210213546,False,True,stimulusRORE28_2IFCnew_2019_Jun_11_1716_147,stimulusRORE28_2IFCnew_2019_Jun_11_1716_148,2019_Jun_11_1716,2IFCnew,2,RORE28,
2IFCnew,74,0,74,0,0.574521054514,2,Yes,6.6,-1,Correct Rejection,0.633219173644,False,True,stimulusRORE28_2IFCnew_2019_Jun_11_1716_149,stimulusRORE28_2IFCnew_2019_Jun_11_1716_150,2019_Jun_11_1716,2IFCnew,2,RORE28,
2IFCnew,0,0,0,0,0.802476672456,4,Yes,5.7,-1,Miss,0.466635984834,True,False,stimulusRORE28_2IFCnew_2019_Jun_11_1716_151,stimulusRORE28_2IFCnew_2019_Jun_11_1716_152,2019_Jun_11_1716,2IFCnew,2,RORE28,
2IFCnew,1,0,1,0,-1,4,Yes,5.7,-1,Miss,0.633569370955,True,False,stimulusRORE28_2IFCnew_2019_Jun_11_1716_153,stimulusRORE28_2IFCnew_2019_Jun_11_1716_154,2019_Jun_11_1716,2IFCnew,2,RORE28,
2IFCnew,2,0,2,0,-1,4,Yes,5.7,-1,Miss,0.634288651403,True,False,stimulusRORE28_2IFCnew_2019_Jun_11_1716_155,stimulusRORE28_2IFCnew_2019_Jun_11_1716_156,2019_Jun_11_1716,2IFCnew,2,RORE28,
2IFCnew,3,0,3,0,0.768447158858,8,No,5.7,-1,Correct Rejection,0.608978359494,False,True,stimulusRORE28_2IFCnew_2019_Jun_11_1716_157,stimulusRORE28_2IFCnew_2019_Jun_11_1716_158,2019_Jun_11_1716,2IFCnew,2,RORE28,
2IFCnew,4,0,4,0,-1,4,No,5.7,-1,Miss,0.74480779795,True,False,stimulusRORE28_2IFCnew_2019_Jun_11_1716_159,stimulusRORE28_2IFCnew_2019_Jun_11_1716_160,2019_Jun_11_1716,2IFCnew,2,RORE28,
2IFCnew,5,0,5,0,-1,3,No,5.7,-1,Correct Rejection,0.766398113687,False,True,stimulusRORE28_2IFCnew_2019_Jun_11_1716_161,stimulusRORE28_2IFCnew_2019_Jun_11_1716_162,2019_Jun_11_1716,2IFCnew,2,RORE28,
2IFCnew,6,0,6,0,-1,0,No,5.7,-1,No Answer,-1,True,False,stimulusRORE28_2IFCnew_2019_Jun_11_1716_163,stimulusRORE28_2IFCnew_2019_Jun_11_1716_164,2019_Jun_11_1716,2IFCnew,2,RORE28,
2IFCnew,7,0,7,0,-1,1,No,5.7,-1,Hit,0.699497242458,True,False,stimulusRORE28_2IFCnew_2019_Jun_11_1716_165,stimulusRORE28_2IFCnew_2019_Jun_11_1716_166,2019_Jun_11_1716,2IFCnew,2,RORE28,
2IFCnew,8,0,8,0,0.735665301792,1,No,5.7,-1,Hit,0.634602720849,True,False,stimulusRORE28_2IFCnew_2019_Jun_11_1716_167,stimulusRORE28_2IFCnew_2019_Jun_11_1716_168,2019_Jun_11_1716,2IFCnew,2,RORE28,
2IFCnew,9,0,9,0,0.634624890517,2,Yes,5.7,-1,Correct Rejection,0.811060002539,False,True,stimulusRORE28_2IFCnew_2019_Jun_11_1716_169,stimulusRORE28_2IFCnew_2019_Jun_11_1716_170,2019_Jun_11_1716,2IFCnew,2,RORE28,
2IFCnew,10,0,10,0,0.769232948311,2,Yes,5.7,-1,Correct Rejection,0.768011978362,False,True,stimulusRORE28_2IFCnew_2019_Jun_11_1716_171,stimulusRORE28_2IFCnew_2019_Jun_11_1716_172,2019_Jun_11_1716,2IFCnew,2,RORE28,
2IFCnew,11,0,11,0,0.602457622997,1,No,5.7,-1,Hit,0.567753989715,True,False,stimulusRORE28_2IFCnew_2019_Jun_11_1716_173,stimulusRORE28_2IFCnew_2019_Jun_11_1716_174,2019_Jun_11_1716,2IFCnew,2,RORE28,
2IFCnew,12,0,12,0,-1,0,No,5.7,-1,No Answer,-1,True,False,stimulusRORE28_2IFCnew_2019_Jun_11_1716_175,stimulusRORE28_2IFCnew_2019_Jun_11_1716_176,2019_Jun_11_1716,2IFCnew,2,RORE28,
2IFCnew,13,0,13,0,0.735151295085,4,Yes,5.7,-1,Miss,0.735480965581,True,False,stimulusRORE28_2IFCnew_2019_Jun_11_1716_177,stimulusRORE28_2IFCnew_2019_Jun_11_1716_178,2019_Jun_11_1716,2IFCnew,2,RORE28,
2IFCnew,14,0,14,0,0.766839452554,8,No,5.7,-1,Correct Rejection,0.635253439192,False,True,stimulusRORE28_2IFCnew_2019_Jun_11_1716_179,stimulusRORE28_2IFCnew_2019_Jun_11_1716_180,2019_Jun_11_1716,2IFCnew,2,RORE28,
2IFCnew,15,0,15,0,-1,1,No,5.7,-1,Hit,0.669195506722,True,False,stimulusRORE28_2IFCnew_2019_Jun_11_1716_181,stimulusRORE28_2IFCnew_2019_Jun_11_1716_182,2019_Jun_11_1716,2IFCnew,2,RORE28,
2IFCnew,16,0,16,0,-1,3,No,5.7,-1,Correct Rejection,0.634214342572,False,True,stimulusRORE28_2IFCnew_2019_Jun_11_1716_183,stimulusRORE28_2IFCnew_2019_Jun_11_1716_184,2019_Jun_11_1716,2IFCnew,2,RORE28,
2IFCnew,17,0,17,0,-1,3,No,5.7,-1,Correct Rejection,0.824836766347,False,True,stimulusRORE28_2IFCnew_2019_Jun_11_1716_185,stimulusRORE28_2IFCnew_2019_Jun_11_1716_186,2019_Jun_11_1716,2IFCnew,2,RORE28,
2IFCnew,18,0,18,0,-1,1,No,5.7,-1,Hit,0.70128394803,True,False,stimulusRORE28_2IFCnew_2019_Jun_11_1716_187,stimulusRORE28_2IFCnew_2019_Jun_11_1716_188,2019_Jun_11_1716,2IFCnew,2,RORE28,
2IFCnew,19,0,19,0,0.668575578835,2,Yes,5.7,-1,Correct Rejection,0.533205132931,False,True,stimulusRORE28_2IFCnew_2019_Jun_11_1716_189,stimulusRORE28_2IFCnew_2019_Jun_11_1716_190,2019_Jun_11_1716,2IFCnew,2,RORE28,
2IFCnew,20,0,20,0,-1,3,Yes,5.7,-1,Correct Rejection,0.533328707796,False,True,stimulusRORE28_2IFCnew_2019_Jun_11_1716_191,stimulusRORE28_2IFCnew_2019_Jun_11_1716_192,2019_Jun_11_1716,2IFCnew,2,RORE28,
2IFCnew,21,0,21,0,0.701325413771,2,Yes,5.7,-1,Correct Rejection,0.567923957016,False,True,stimulusRORE28_2IFCnew_2019_Jun_11_1716_193,stimulusRORE28_2IFCnew_2019_Jun_11_1716_194,2019_Jun_11_1716,2IFCnew,2,RORE28,
2IFCnew,22,0,22,0,-1,1,Yes,5.7,-1,Hit,0.625988189597,True,False,stimulusRORE28_2IFCnew_2019_Jun_11_1716_195,stimulusRORE28_2IFCnew_2019_Jun_11_1716_196,2019_Jun_11_1716,2IFCnew,2,RORE28,
2IFCnew,23,0,23,0,-1,3,Yes,5.7,-1,Correct Rejection,0.702236009296,False,True,stimulusRORE28_2IFCnew_2019_Jun_11_1716_197,stimulusRORE28_2IFCnew_2019_Jun_11_1716_198,2019_Jun_11_1716,2IFCnew,2,RORE28,
2IFCnew,24,0,24,0,-1,3,Yes,5.7,-1,Correct Rejection,0.669892206322,False,True,stimulusRORE28_2IFCnew_2019_Jun_11_1716_199,stimulusRORE28_2IFCnew_2019_Jun_11_1716_200,2019_Jun_11_1716,2IFCnew,2,RORE28,
2IFCnew,25,0,25,0,-1,2,Yes,5.7,-1,False Alarm,0.735382433981,False,True,stimulusRORE28_2IFCnew_2019_Jun_11_1716_201,stimulusRORE28_2IFCnew_2019_Jun_11_1716_202,2019_Jun_11_1716,2IFCnew,2,RORE28,
2IFCnew,26,0,26,0,0.668129723519,1,No,5.7,-1,Hit,0.699333023746,True,False,stimulusRORE28_2IFCnew_2019_Jun_11_1716_203,stimulusRORE28_2IFCnew_2019_Jun_11_1716_204,2019_Jun_11_1716,2IFCnew,2,RORE28,
2IFCnew,27,0,27,0,-1,1,No,5.7,-1,Hit,0.470285347663,True,False,stimulusRORE28_2IFCnew_2019_Jun_11_1716_205,stimulusRORE28_2IFCnew_2019_Jun_11_1716_206,2019_Jun_11_1716,2IFCnew,2,RORE28,
2IFCnew,28,0,28,0,-1,3,No,5.7,-1,Correct Rejection,0.63370033633,False,True,stimulusRORE28_2IFCnew_2019_Jun_11_1716_207,stimulusRORE28_2IFCnew_2019_Jun_11_1716_208,2019_Jun_11_1716,2IFCnew,2,RORE28,
2IFCnew,29,0,29,0,-1,2,No,5.7,-1,False Alarm,0.600285412744,False,True,stimulusRORE28_2IFCnew_2019_Jun_11_1716_209,stimulusRORE28_2IFCnew_2019_Jun_11_1716_210,2019_Jun_11_1716,2IFCnew,2,RORE28,
2IFCnew,30,0,30,0,0.532962088473,2,Yes,5.7,-1,Correct Rejection,0.731866910588,False,True,stimulusRORE28_2IFCnew_2019_Jun_11_1716_211,stimulusRORE28_2IFCnew_2019_Jun_11_1716_212,2019_Jun_11_1716,2IFCnew,2,RORE28,
2IFCnew,31,0,31,0,-1,1,Yes,5.7,-1,Hit,0.63277701335,True,False,stimulusRORE28_2IFCnew_2019_Jun_11_1716_213,stimulusRORE28_2IFCnew_2019_Jun_11_1716_214,2019_Jun_11_1716,2IFCnew,2,RORE28,
2IFCnew,32,0,32,0,-1,3,Yes,5.7,-1,Correct Rejection,0.566647562664,False,True,stimulusRORE28_2IFCnew_2019_Jun_11_1716_215,stimulusRORE28_2IFCnew_2019_Jun_11_1716_216,2019_Jun_11_1716,2IFCnew,2,RORE28,
2IFCnew,33,0,33,0,-1,1,Yes,5.7,-1,Hit,0.63160284562,True,False,stimulusRORE28_2IFCnew_2019_Jun_11_1716_217,stimulusRORE28_2IFCnew_2019_Jun_11_1716_218,2019_Jun_11_1716,2IFCnew,2,RORE28,
2IFCnew,34,0,34,0,-1,3,Yes,5.7,-1,Correct Rejection,0.568532389123,False,True,stimulusRORE28_2IFCnew_2019_Jun_11_1716_219,stimulusRORE28_2IFCnew_2019_Jun_11_1716_220,2019_Jun_11_1716,2IFCnew,2,RORE28,
2IFCnew,35,0,35,0,0.532768720295,2,Yes,5.7,-1,Correct Rejection,0.469717558939,False,True,stimulusRORE28_2IFCnew_2019_Jun_11_1716_221,stimulusRORE28_2IFCnew_2019_Jun_11_1716_222,2019_Jun_11_1716,2IFCnew,2,RORE28,
2IFCnew,36,0,36,0,-1,3,Yes,5.7,-1,Correct Rejection,0.4023026824,False,True,stimulusRORE28_2IFCnew_2019_Jun_11_1716_223,stimulusRORE28_2IFCnew_2019_Jun_11_1716_224,2019_Jun_11_1716,2IFCnew,2,RORE28,
2IFCnew,37,0,37,0,-1,3,Yes,5.7,-1,Correct Rejection,0.568607929628,False,True,stimulusRORE28_2IFCnew_2019_Jun_11_1716_225,stimulusRORE28_2IFCnew_2019_Jun_11_1716_226,2019_Jun_11_1716,2IFCnew,2,RORE28,
2IFCnew,38,0,38,0,-1,1,Yes,5.7,-1,Hit,0.598585743457,True,False,stimulusRORE28_2IFCnew_2019_Jun_11_1716_227,stimulusRORE28_2IFCnew_2019_Jun_11_1716_228,2019_Jun_11_1716,2IFCnew,2,RORE28,
2IFCnew,39,0,39,0,-1,4,Yes,5.7,-1,Miss,0.599800966214,True,False,stimulusRORE28_2IFCnew_2019_Jun_11_1716_229,stimulusRORE28_2IFCnew_2019_Jun_11_1716_230,2019_Jun_11_1716,2IFCnew,2,RORE28,
2IFCnew,40,0,40,0,-1,3,Yes,5.7,-1,Correct Rejection,0.533468293957,False,True,stimulusRORE28_2IFCnew_2019_Jun_11_1716_231,stimulusRORE28_2IFCnew_2019_Jun_11_1716_232,2019_Jun_11_1716,2IFCnew,2,RORE28,
2IFCnew,41,0,41,0,-1,4,Yes,5.7,-1,Miss,0.475742353126,True,False,stimulusRORE28_2IFCnew_2019_Jun_11_1716_233,stimulusRORE28_2IFCnew_2019_Jun_11_1716_234,2019_Jun_11_1716,2IFCnew,2,RORE28,
2IFCnew,42,0,42,0,-1,0,Yes,5.7,-1,No Answer,-1,True,False,stimulusRORE28_2IFCnew_2019_Jun_11_1716_235,stimulusRORE28_2IFCnew_2019_Jun_11_1716_236,2019_Jun_11_1716,2IFCnew,2,RORE28,
2IFCnew,43,0,43,0,0.534540235531,6,No,5.7,-1,Miss,0.332508679014,True,False,stimulusRORE28_2IFCnew_2019_Jun_11_1716_237,stimulusRORE28_2IFCnew_2019_Jun_11_1716_238,2019_Jun_11_1716,2IFCnew,2,RORE28,
2IFCnew,44,0,44,0,-1,3,No,5.7,-1,Correct Rejection,0.700563436374,False,True,stimulusRORE28_2IFCnew_2019_Jun_11_1716_239,stimulusRORE28_2IFCnew_2019_Jun_11_1716_240,2019_Jun_11_1716,2IFCnew,2,RORE28,
2IFCnew,45,0,45,0,-1,4,No,5.7,-1,Miss,0.671530293301,True,False,stimulusRORE28_2IFCnew_2019_Jun_11_1716_241,stimulusRORE28_2IFCnew_2019_Jun_11_1716_242,2019_Jun_11_1716,2IFCnew,2,RORE28,
2IFCnew,46,0,46,0,-1,3,No,5.7,-1,Correct Rejection,0.49840378901,False,True,stimulusRORE28_2IFCnew_2019_Jun_11_1716_243,stimulusRORE28_2IFCnew_2019_Jun_11_1716_244,2019_Jun_11_1716,2IFCnew,2,RORE28,
2IFCnew,47,0,47,0,-1,0,No,5.7,-1,No Answer,-1,True,False,stimulusRORE28_2IFCnew_2019_Jun_11_1716_245,stimulusRORE28_2IFCnew_2019_Jun_11_1716_246,2019_Jun_11_1716,2IFCnew,2,RORE28,
2IFCnew,48,0,48,0,0.834716606885,2,Yes,5.7,-1,Correct Rejection,0.566927556414,False,True,stimulusRORE28_2IFCnew_2019_Jun_11_1716_247,stimulusRORE28_2IFCnew_2019_Jun_11_1716_248,2019_Jun_11_1716,2IFCnew,2,RORE28,
2IFCnew,49,0,49,0,-1,4,Yes,5.7,-1,Miss,0.634529232979,True,False,stimulusRORE28_2IFCnew_2019_Jun_11_1716_249,stimulusRORE28_2IFCnew_2019_Jun_11_1716_250,2019_Jun_11_1716,2IFCnew,2,RORE28,
2IFCnew,50,0,50,0,0.734224687796,8,No,5.7,-1,Correct Rejection,0.499986452051,False,True,stimulusRORE28_2IFCnew_2019_Jun_11_1716_251,stimulusRORE28_2IFCnew_2019_Jun_11_1716_252,2019_Jun_11_1716,2IFCnew,2,RORE28,
2IFCnew,51,0,51,0,0.666411579587,2,Yes,5.7,-1,Correct Rejection,0.642810809426,False,True,stimulusRORE28_2IFCnew_2019_Jun_11_1716_253,stimulusRORE28_2IFCnew_2019_Jun_11_1716_254,2019_Jun_11_1716,2IFCnew,2,RORE28,
2IFCnew,52,0,52,0,-1,4,Yes,5.7,-1,Miss,0.597831566818,True,False,stimulusRORE28_2IFCnew_2019_Jun_11_1716_255,stimulusRORE28_2IFCnew_2019_Jun_11_1716_256,2019_Jun_11_1716,2IFCnew,2,RORE28,
2IFCnew,53,0,53,0,-1,3,Yes,5.7,-1,Correct Rejection,0.634057923686,False,True,stimulusRORE28_2IFCnew_2019_Jun_11_1716_257,stimulusRORE28_2IFCnew_2019_Jun_11_1716_258,2019_Jun_11_1716,2IFCnew,2,RORE28,
2IFCnew,54,0,54,0,0.702814061195,2,Yes,5.7,-1,Correct Rejection,0.503332419321,False,True,stimulusRORE28_2IFCnew_2019_Jun_11_1716_259,stimulusRORE28_2IFCnew_2019_Jun_11_1716_260,2019_Jun_11_1716,2IFCnew,2,RORE28,
2IFCnew,55,0,55,0,0.734830657486,1,No,5.7,-1,Hit,0.639567890204,True,False,stimulusRORE28_2IFCnew_2019_Jun_11_1716_261,stimulusRORE28_2IFCnew_2019_Jun_11_1716_262,2019_Jun_11_1716,2IFCnew,2,RORE28,
2IFCnew,56,0,56,0,0.867417586502,3,No,5.7,-1,False Alarm,0.541687467601,False,True,stimulusRORE28_2IFCnew_2019_Jun_11_1716_263,stimulusRORE28_2IFCnew_2019_Jun_11_1716_264,2019_Jun_11_1716,2IFCnew,2,RORE28,
2IFCnew,57,0,57,0,-1,4,No,5.7,-1,Miss,0.635947265662,True,False,stimulusRORE28_2IFCnew_2019_Jun_11_1716_265,stimulusRORE28_2IFCnew_2019_Jun_11_1716_266,2019_Jun_11_1716,2IFCnew,2,RORE28,
2IFCnew,58,0,58,0,-1,1,No,5.7,-1,Hit,0.701634966768,True,False,stimulusRORE28_2IFCnew_2019_Jun_11_1716_267,stimulusRORE28_2IFCnew_2019_Jun_11_1716_268,2019_Jun_11_1716,2IFCnew,2,RORE28,
2IFCnew,59,0,59,0,-1,4,No,5.7,-1,Miss,0.699710728135,True,False,stimulusRORE28_2IFCnew_2019_Jun_11_1716_269,stimulusRORE28_2IFCnew_2019_Jun_11_1716_270,2019_Jun_11_1716,2IFCnew,2,RORE28,
2IFCnew,60,0,60,0,-1,4,No,5.7,-1,Miss,0.603605105542,True,False,stimulusRORE28_2IFCnew_2019_Jun_11_1716_271,stimulusRORE28_2IFCnew_2019_Jun_11_1716_272,2019_Jun_11_1716,2IFCnew,2,RORE28,
2IFCnew,61,0,61,0,-1,1,No,5.7,-1,Hit,0.600285823923,True,False,stimulusRORE28_2IFCnew_2019_Jun_11_1716_273,stimulusRORE28_2IFCnew_2019_Jun_11_1716_274,2019_Jun_11_1716,2IFCnew,2,RORE28,
2IFCnew,62,0,62,0,-1,0,No,5.7,-1,No Answer,-1,True,False,stimulusRORE28_2IFCnew_2019_Jun_11_1716_275,stimulusRORE28_2IFCnew_2019_Jun_11_1716_276,2019_Jun_11_1716,2IFCnew,2,RORE28,
2IFCnew,63,0,63,0,-1,4,No,5.7,-1,Miss,0.73430063948,True,False,stimulusRORE28_2IFCnew_2019_Jun_11_1716_277,stimulusRORE28_2IFCnew_2019_Jun_11_1716_278,2019_Jun_11_1716,2IFCnew,2,RORE28,
2IFCnew,64,0,64,0,-1,4,No,5.7,-1,Miss,0.535185617395,True,False,stimulusRORE28_2IFCnew_2019_Jun_11_1716_279,stimulusRORE28_2IFCnew_2019_Jun_11_1716_280,2019_Jun_11_1716,2IFCnew,2,RORE28,
2IFCnew,65,0,65,0,-1,1,No,5.7,-1,Hit,0.837482469156,True,False,stimulusRORE28_2IFCnew_2019_Jun_11_1716_281,stimulusRORE28_2IFCnew_2019_Jun_11_1716_282,2019_Jun_11_1716,2IFCnew,2,RORE28,
2IFCnew,66,0,66,0,-1,1,No,5.7,-1,Hit,0.666790925898,True,False,stimulusRORE28_2IFCnew_2019_Jun_11_1716_283,stimulusRORE28_2IFCnew_2019_Jun_11_1716_284,2019_Jun_11_1716,2IFCnew,2,RORE28,
2IFCnew,67,0,67,0,-1,3,No,5.7,-1,Correct Rejection,0.633075071033,False,True,stimulusRORE28_2IFCnew_2019_Jun_11_1716_285,stimulusRORE28_2IFCnew_2019_Jun_11_1716_286,2019_Jun_11_1716,2IFCnew,2,RORE28,
2IFCnew,68,0,68,0,-1,1,No,5.7,-1,Hit,0.600818715058,True,False,stimulusRORE28_2IFCnew_2019_Jun_11_1716_287,stimulusRORE28_2IFCnew_2019_Jun_11_1716_288,2019_Jun_11_1716,2IFCnew,2,RORE28,
2IFCnew,69,0,69,0,-1,1,No,5.7,-1,Hit,0.769582735375,True,False,stimulusRORE28_2IFCnew_2019_Jun_11_1716_289,stimulusRORE28_2IFCnew_2019_Jun_11_1716_290,2019_Jun_11_1716,2IFCnew,2,RORE28,
2IFCnew,70,0,70,0,-1,3,No,5.7,-1,Correct Rejection,0.800660408102,False,True,stimulusRORE28_2IFCnew_2019_Jun_11_1716_291,stimulusRORE28_2IFCnew_2019_Jun_11_1716_292,2019_Jun_11_1716,2IFCnew,2,RORE28,
2IFCnew,71,0,71,0,-1,3,No,5.7,-1,Correct Rejection,0.636360687669,False,True,stimulusRORE28_2IFCnew_2019_Jun_11_1716_293,stimulusRORE28_2IFCnew_2019_Jun_11_1716_294,2019_Jun_11_1716,2IFCnew,2,RORE28,
2IFCnew,72,0,72,0,-1,1,No,5.7,-1,Hit,0.534100538585,True,False,stimulusRORE28_2IFCnew_2019_Jun_11_1716_295,stimulusRORE28_2IFCnew_2019_Jun_11_1716_296,2019_Jun_11_1716,2IFCnew,2,RORE28,
2IFCnew,73,0,73,0,0.734212371521,5,Yes,5.7,-1,False Alarm,0.700774047524,False,True,stimulusRORE28_2IFCnew_2019_Jun_11_1716_297,stimulusRORE28_2IFCnew_2019_Jun_11_1716_298,2019_Jun_11_1716,2IFCnew,2,RORE28,
2IFCnew,74,0,74,0,-1,4,Yes,5.7,-1,Miss,0.690654036123,True,False,stimulusRORE28_2IFCnew_2019_Jun_11_1716_299,stimulusRORE28_2IFCnew_2019_Jun_11_1716_300,2019_Jun_11_1716,2IFCnew,2,RORE28,
2IFCnew,0,0,0,0,-1,1,Yes,1.4,-1,Hit,0.56719605485,True,False,stimulusRORE28_2IFCnew_2019_Jun_11_1716_301,stimulusRORE28_2IFCnew_2019_Jun_11_1716_302,2019_Jun_11_1716,2IFCnew,2,RORE28,
2IFCnew,1,0,1,0,-1,2,Yes,1.4,-1,False Alarm,0.535821966827,False,True,stimulusRORE28_2IFCnew_2019_Jun_11_1716_303,stimulusRORE28_2IFCnew_2019_Jun_11_1716_304,2019_Jun_11_1716,2IFCnew,2,RORE28,
2IFCnew,2,0,2,0,0.867614238989,2,Yes,1.4,-1,Correct Rejection,0.567821319681,False,True,stimulusRORE28_2IFCnew_2019_Jun_11_1716_305,stimulusRORE28_2IFCnew_2019_Jun_11_1716_306,2019_Jun_11_1716,2IFCnew,2,RORE28,
2IFCnew,3,0,3,0,-1,3,Yes,1.4,-1,Correct Rejection,0.900912976824,False,True,stimulusRORE28_2IFCnew_2019_Jun_11_1716_307,stimulusRORE28_2IFCnew_2019_Jun_11_1716_308,2019_Jun_11_1716,2IFCnew,2,RORE28,
2IFCnew,4,0,4,0,-1,4,Yes,1.4,-1,Miss,0.599895803258,True,False,stimulusRORE28_2IFCnew_2019_Jun_11_1716_309,stimulusRORE28_2IFCnew_2019_Jun_11_1716_310,2019_Jun_11_1716,2IFCnew,2,RORE28,
2IFCnew,5,0,5,0,0.702201523352,6,No,1.4,-1,Miss,0.635059661232,True,False,stimulusRORE28_2IFCnew_2019_Jun_11_1716_311,stimulusRORE28_2IFCnew_2019_Jun_11_1716_312,2019_Jun_11_1716,2IFCnew,2,RORE28,
2IFCnew,6,0,6,0,-1,3,No,1.4,-1,Correct Rejection,0.568869038019,False,True,stimulusRORE28_2IFCnew_2019_Jun_11_1716_313,stimulusRORE28_2IFCnew_2019_Jun_11_1716_314,2019_Jun_11_1716,2IFCnew,2,RORE28,
2IFCnew,7,0,7,0,-1,2,No,1.4,-1,False Alarm,0.565232813824,False,True,stimulusRORE28_2IFCnew_2019_Jun_11_1716_315,stimulusRORE28_2IFCnew_2019_Jun_11_1716_316,2019_Jun_11_1716,2IFCnew,2,RORE28,
2IFCnew,8,0,8,0,0.767716794275,2,Yes,1.4,-1,Correct Rejection,0.702149793971,False,True,stimulusRORE28_2IFCnew_2019_Jun_11_1716_317,stimulusRORE28_2IFCnew_2019_Jun_11_1716_318,2019_Jun_11_1716,2IFCnew,2,RORE28,
2IFCnew,9,0,9,0,-1,4,Yes,1.4,-1,Miss,0.803242344875,True,False,stimulusRORE28_2IFCnew_2019_Jun_11_1716_319,stimulusRORE28_2IFCnew_2019_Jun_11_1716_320,2019_Jun_11_1716,2IFCnew,2,RORE28,
2IFCnew,10,0,10,0,-1,3,Yes,1.4,-1,Correct Rejection,0.599706129637,False,True,stimulusRORE28_2IFCnew_2019_Jun_11_1716_321,stimulusRORE28_2IFCnew_2019_Jun_11_1716_322,2019_Jun_11_1716,2IFCnew,2,RORE28,
2IFCnew,11,0,11,0,0.667537712958,8,No,1.4,-1,Correct Rejection,0.532663209364,False,True,stimulusRORE28_2IFCnew_2019_Jun_11_1716_323,stimulusRORE28_2IFCnew_2019_Jun_11_1716_324,2019_Jun_11_1716,2IFCnew,2,RORE28,
2IFCnew,12,0,12,0,-1,1,No,1.4,-1,Hit,0.735120504163,True,False,stimulusRORE28_2IFCnew_2019_Jun_11_1716_325,stimulusRORE28_2IFCnew_2019_Jun_11_1716_326,2019_Jun_11_1716,2IFCnew,2,RORE28,
2IFCnew,13,0,13,0,-1,1,No,1.4,-1,Hit,0.570325253066,True,False,stimulusRORE28_2IFCnew_2019_Jun_11_1716_327,stimulusRORE28_2IFCnew_2019_Jun_11_1716_328,2019_Jun_11_1716,2IFCnew,2,RORE28,
2IFCnew,14,0,14,0,-1,3,No,1.4,-1,Correct Rejection,0.536286296789,False,True,stimulusRORE28_2IFCnew_2019_Jun_11_1716_329,stimulusRORE28_2IFCnew_2019_Jun_11_1716_330,2019_Jun_11_1716,2IFCnew,2,RORE28,
2IFCnew,15,0,15,0,-1,3,No,1.4,-1,Correct Rejection,0.759408531245,False,True,stimulusRORE28_2IFCnew_2019_Jun_11_1716_331,stimulusRORE28_2IFCnew_2019_Jun_11_1716_332,2019_Jun_11_1716,2IFCnew,2,RORE28,
2IFCnew,16,0,16,0,-1,3,No,1.4,-1,Correct Rejection,0.605324070435,False,True,stimulusRORE28_2IFCnew_2019_Jun_11_1716_333,stimulusRORE28_2IFCnew_2019_Jun_11_1716_334,2019_Jun_11_1716,2IFCnew,2,RORE28,
2IFCnew,17,0,17,0,-1,3,No,1.4,-1,Correct Rejection,0.600824052468,False,True,stimulusRORE28_2IFCnew_2019_Jun_11_1716_335,stimulusRORE28_2IFCnew_2019_Jun_11_1716_336,2019_Jun_11_1716,2IFCnew,2,RORE28,
2IFCnew,18,0,18,0,-1,3,No,1.4,-1,Correct Rejection,0.900854678825,False,True,stimulusRORE28_2IFCnew_2019_Jun_11_1716_337,stimulusRORE28_2IFCnew_2019_Jun_11_1716_338,2019_Jun_11_1716,2IFCnew,2,RORE28,
2IFCnew,19,0,19,0,-1,3,No,1.4,-1,Correct Rejection,0.602361965459,False,True,stimulusRORE28_2IFCnew_2019_Jun_11_1716_339,stimulusRORE28_2IFCnew_2019_Jun_11_1716_340,2019_Jun_11_1716,2IFCnew,2,RORE28,
2IFCnew,20,0,20,0,-1,4,No,1.4,-1,Miss,0.572068440262,True,False,stimulusRORE28_2IFCnew_2019_Jun_11_1716_341,stimulusRORE28_2IFCnew_2019_Jun_11_1716_342,2019_Jun_11_1716,2IFCnew,2,RORE28,
2IFCnew,21,0,21,0,-1,1,No,1.4,-1,Hit,0.734585559927,True,False,stimulusRORE28_2IFCnew_2019_Jun_11_1716_343,stimulusRORE28_2IFCnew_2019_Jun_11_1716_344,2019_Jun_11_1716,2IFCnew,2,RORE28,
2IFCnew,22,0,22,0,0.867844967172,5,Yes,1.4,-1,False Alarm,0.535115413368,False,True,stimulusRORE28_2IFCnew_2019_Jun_11_1716_345,stimulusRORE28_2IFCnew_2019_Jun_11_1716_346,2019_Jun_11_1716,2IFCnew,2,RORE28,
2IFCnew,23,0,23,0,-1,3,Yes,1.4,-1,Correct Rejection,0.633278292604,False,True,stimulusRORE28_2IFCnew_2019_Jun_11_1716_347,stimulusRORE28_2IFCnew_2019_Jun_11_1716_348,2019_Jun_11_1716,2IFCnew,2,RORE28,
2IFCnew,24,0,24,0,-1,2,Yes,1.4,-1,False Alarm,0.601836874615,False,True,stimulusRORE28_2IFCnew_2019_Jun_11_1716_349,stimulusRORE28_2IFCnew_2019_Jun_11_1716_350,2019_Jun_11_1716,2IFCnew,2,RORE28,
2IFCnew,25,0,25,0,-1,2,Yes,1.4,-1,False Alarm,0.499800884165,False,True,stimulusRORE28_2IFCnew_2019_Jun_11_1716_351,stimulusRORE28_2IFCnew_2019_Jun_11_1716_352,2019_Jun_11_1716,2IFCnew,2,RORE28,
2IFCnew,26,0,26,0,-1,2,Yes,1.4,-1,False Alarm,0.468611542601,False,True,stimulusRORE28_2IFCnew_2019_Jun_11_1716_353,stimulusRORE28_2IFCnew_2019_Jun_11_1716_354,2019_Jun_11_1716,2IFCnew,2,RORE28,
2IFCnew,27,0,27,0,-1,3,Yes,1.4,-1,Correct Rejection,0.133782445919,False,True,stimulusRORE28_2IFCnew_2019_Jun_11_1716_355,stimulusRORE28_2IFCnew_2019_Jun_11_1716_356,2019_Jun_11_1716,2IFCnew,2,RORE28,
2IFCnew,28,0,28,0,-1,2,Yes,1.4,-1,False Alarm,0.673831415828,False,True,stimulusRORE28_2IFCnew_2019_Jun_11_1716_357,stimulusRORE28_2IFCnew_2019_Jun_11_1716_358,2019_Jun_11_1716,2IFCnew,2,RORE28,
2IFCnew,29,0,29,0,-1,2,Yes,1.4,-1,False Alarm,0.735995382071,False,True,stimulusRORE28_2IFCnew_2019_Jun_11_1716_359,stimulusRORE28_2IFCnew_2019_Jun_11_1716_360,2019_Jun_11_1716,2IFCnew,2,RORE28,
2IFCnew,30,0,30,0,0.665249317419,5,Yes,1.4,-1,False Alarm,0.739576182794,False,True,stimulusRORE28_2IFCnew_2019_Jun_11_1716_361,stimulusRORE28_2IFCnew_2019_Jun_11_1716_362,2019_Jun_11_1716,2IFCnew,2,RORE28,
2IFCnew,31,0,31,0,-1,1,Yes,1.4,-1,Hit,0.835982326418,True,False,stimulusRORE28_2IFCnew_2019_Jun_11_1716_363,stimulusRORE28_2IFCnew_2019_Jun_11_1716_364,2019_Jun_11_1716,2IFCnew,2,RORE28,
2IFCnew,32,0,32,0,-1,1,Yes,1.4,-1,Hit,0.736002772115,True,False,stimulusRORE28_2IFCnew_2019_Jun_11_1716_365,stimulusRORE28_2IFCnew_2019_Jun_11_1716_366,2019_Jun_11_1716,2IFCnew,2,RORE28,
2IFCnew,33,0,33,0,-1,3,Yes,1.4,-1,Correct Rejection,0.60213246895,False,True,stimulusRORE28_2IFCnew_2019_Jun_11_1716_367,stimulusRORE28_2IFCnew_2019_Jun_11_1716_368,2019_Jun_11_1716,2IFCnew,2,RORE28,
2IFCnew,34,0,34,0,-1,3,Yes,1.4,-1,Correct Rejection,0.535124855582,False,True,stimulusRORE28_2IFCnew_2019_Jun_11_1716_369,stimulusRORE28_2IFCnew_2019_Jun_11_1716_370,2019_Jun_11_1716,2IFCnew,2,RORE28,
2IFCnew,35,0,35,0,-1,3,Yes,1.4,-1,Correct Rejection,0.496853969991,False,True,stimulusRORE28_2IFCnew_2019_Jun_11_1716_371,stimulusRORE28_2IFCnew_2019_Jun_11_1716_372,2019_Jun_11_1716,2IFCnew,2,RORE28,
2IFCnew,36,0,36,0,-1,1,Yes,1.4,-1,Hit,0.632708451711,True,False,stimulusRORE28_2IFCnew_2019_Jun_11_1716_373,stimulusRORE28_2IFCnew_2019_Jun_11_1716_374,2019_Jun_11_1716,2IFCnew,2,RORE28,
2IFCnew,37,0,37,0,-1,3,Yes,1.4,-1,Correct Rejection,0.499401831534,False,True,stimulusRORE28_2IFCnew_2019_Jun_11_1716_375,stimulusRORE28_2IFCnew_2019_Jun_11_1716_376,2019_Jun_11_1716,2IFCnew,2,RORE28,
2IFCnew,38,0,38,0,-1,1,Yes,1.4,-1,Hit,0.568221193738,True,False,stimulusRORE28_2IFCnew_2019_Jun_11_1716_377,stimulusRORE28_2IFCnew_2019_Jun_11_1716_378,2019_Jun_11_1716,2IFCnew,2,RORE28,
2IFCnew,39,0,39,0,-1,2,Yes,1.4,-1,False Alarm,0.636131601874,False,True,stimulusRORE28_2IFCnew_2019_Jun_11_1716_379,stimulusRORE28_2IFCnew_2019_Jun_11_1716_380,2019_Jun_11_1716,2IFCnew,2,RORE28,
2IFCnew,40,0,40,0,-1,3,Yes,1.4,-1,Correct Rejection,0.302420837805,False,True,stimulusRORE28_2IFCnew_2019_Jun_11_1716_381,stimulusRORE28_2IFCnew_2019_Jun_11_1716_382,2019_Jun_11_1716,2IFCnew,2,RORE28,
2IFCnew,41,0,41,0,-1,3,Yes,1.4,-1,Correct Rejection,0.667495836969,False,True,stimulusRORE28_2IFCnew_2019_Jun_11_1716_383,stimulusRORE28_2IFCnew_2019_Jun_11_1716_384,2019_Jun_11_1716,2IFCnew,2,RORE28,
2IFCnew,42,0,42,0,-1,1,Yes,1.4,-1,Hit,0.734336767811,True,False,stimulusRORE28_2IFCnew_2019_Jun_11_1716_385,stimulusRORE28_2IFCnew_2019_Jun_11_1716_386,2019_Jun_11_1716,2IFCnew,2,RORE28,
2IFCnew,43,0,43,0,-1,1,Yes,1.4,-1,Hit,0.632942053489,True,False,stimulusRORE28_2IFCnew_2019_Jun_11_1716_387,stimulusRORE28_2IFCnew_2019_Jun_11_1716_388,2019_Jun_11_1716,2IFCnew,2,RORE28,
2IFCnew,44,0,44,0,-1,1,Yes,1.4,-1,Hit,0.558220651466,True,False,stimulusRORE28_2IFCnew_2019_Jun_11_1716_389,stimulusRORE28_2IFCnew_2019_Jun_11_1716_390,2019_Jun_11_1716,2IFCnew,2,RORE28,
2IFCnew,45,0,45,0,0.735855385195,7,Yes,1.4,-1,Hit,0.701584469527,True,False,stimulusRORE28_2IFCnew_2019_Jun_11_1716_391,stimulusRORE28_2IFCnew_2019_Jun_11_1716_392,2019_Jun_11_1716,2IFCnew,2,RORE28,
2IFCnew,46,0,46,0,-1,1,Yes,1.4,-1,Hit,0.807197154965,True,False,stimulusRORE28_2IFCnew_2019_Jun_11_1716_393,stimulusRORE28_2IFCnew_2019_Jun_11_1716_394,2019_Jun_11_1716,2IFCnew,2,RORE28,
2IFCnew,47,0,47,0,0.734427088406,4,Yes,1.4,-1,Miss,0.668546840083,True,False,stimulusRORE28_2IFCnew_2019_Jun_11_1716_395,stimulusRORE28_2IFCnew_2019_Jun_11_1716_396,2019_Jun_11_1716,2IFCnew,2,RORE28,
2IFCnew,48,0,48,0,-1,2,Yes,1.4,-1,False Alarm,0.635537949391,False,True,stimulusRORE28_2IFCnew_2019_Jun_11_1716_397,stimulusRORE28_2IFCnew_2019_Jun_11_1716_398,2019_Jun_11_1716,2IFCnew,2,RORE28,
2IFCnew,49,0,49,0,-1,3,Yes,1.4,-1,Correct Rejection,0.603286109399,False,True,stimulusRORE28_2IFCnew_2019_Jun_11_1716_399,stimulusRORE28_2IFCnew_2019_Jun_11_1716_400,2019_Jun_11_1716,2IFCnew,2,RORE28,
2IFCnew,50,0,50,0,-1,2,Yes,1.4,-1,False Alarm,0.636411595624,False,True,stimulusRORE28_2IFCnew_2019_Jun_11_1716_401,stimulusRORE28_2IFCnew_2019_Jun_11_1716_402,2019_Jun_11_1716,2IFCnew,2,RORE28,
2IFCnew,51,0,51,0,-1,4,Yes,1.4,-1,Miss,0.658130412921,True,False,stimulusRORE28_2IFCnew_2019_Jun_11_1716_403,stimulusRORE28_2IFCnew_2019_Jun_11_1716_404,2019_Jun_11_1716,2IFCnew,2,RORE28,
2IFCnew,52,0,52,0,-1,2,Yes,1.4,-1,False Alarm,0.666863592807,False,True,stimulusRORE28_2IFCnew_2019_Jun_11_1716_405,stimulusRORE28_2IFCnew_2019_Jun_11_1716_406,2019_Jun_11_1716,2IFCnew,2,RORE28,
2IFCnew,53,0,53,0,-1,2,Yes,1.4,-1,False Alarm,0.601851654239,False,True,stimulusRORE28_2IFCnew_2019_Jun_11_1716_407,stimulusRORE28_2IFCnew_2019_Jun_11_1716_408,2019_Jun_11_1716,2IFCnew,2,RORE28,
2IFCnew,54,0,54,0,-1,1,Yes,1.4,-1,Hit,0.770235917531,True,False,stimulusRORE28_2IFCnew_2019_Jun_11_1716_409,stimulusRORE28_2IFCnew_2019_Jun_11_1716_410,2019_Jun_11_1716,2IFCnew,2,RORE28,
2IFCnew,55,0,55,0,-1,4,Yes,1.4,-1,Miss,0.701983932871,True,False,stimulusRORE28_2IFCnew_2019_Jun_11_1716_411,stimulusRORE28_2IFCnew_2019_Jun_11_1716_412,2019_Jun_11_1716,2IFCnew,2,RORE28,
2IFCnew,56,0,56,0,-1,2,Yes,1.4,-1,False Alarm,0.733472563792,False,True,stimulusRORE28_2IFCnew_2019_Jun_11_1716_413,stimulusRORE28_2IFCnew_2019_Jun_11_1716_414,2019_Jun_11_1716,2IFCnew,2,RORE28,
2IFCnew,57,0,57,0,-1,2,Yes,1.4,-1,False Alarm,0.665278466418,False,True,stimulusRORE28_2IFCnew_2019_Jun_11_1716_415,stimulusRORE28_2IFCnew_2019_Jun_11_1716_416,2019_Jun_11_1716,2IFCnew,2,RORE28,
2IFCnew,58,0,58,0,-1,2,Yes,1.4,-1,False Alarm,0.701263010036,False,True,stimulusRORE28_2IFCnew_2019_Jun_11_1716_417,stimulusRORE28_2IFCnew_2019_Jun_11_1716_418,2019_Jun_11_1716,2IFCnew,2,RORE28,
2IFCnew,59,0,59,0,-1,1,Yes,1.4,-1,Hit,0.600432799663,True,False,stimulusRORE28_2IFCnew_2019_Jun_11_1716_419,stimulusRORE28_2IFCnew_2019_Jun_11_1716_420,2019_Jun_11_1716,2IFCnew,2,RORE28,
2IFCnew,60,0,60,0,-1,1,Yes,1.4,-1,Hit,0.73431952484,True,False,stimulusRORE28_2IFCnew_2019_Jun_11_1716_421,stimulusRORE28_2IFCnew_2019_Jun_11_1716_422,2019_Jun_11_1716,2IFCnew,2,RORE28,
2IFCnew,61,0,61,0,-1,3,Yes,1.4,-1,Correct Rejection,0.702401049901,False,True,stimulusRORE28_2IFCnew_2019_Jun_11_1716_423,stimulusRORE28_2IFCnew_2019_Jun_11_1716_424,2019_Jun_11_1716,2IFCnew,2,RORE28,
2IFCnew,62,0,62,0,-1,1,Yes,1.4,-1,Hit,0.634509526193,True,False,stimulusRORE28_2IFCnew_2019_Jun_11_1716_425,stimulusRORE28_2IFCnew_2019_Jun_11_1716_426,2019_Jun_11_1716,2IFCnew,2,RORE28,
2IFCnew,63,0,63,0,-1,2,Yes,1.4,-1,False Alarm,0.634744360112,False,True,stimulusRORE28_2IFCnew_2019_Jun_11_1716_427,stimulusRORE28_2IFCnew_2019_Jun_11_1716_428,2019_Jun_11_1716,2IFCnew,2,RORE28,
2IFCnew,64,0,64,0,-1,3,Yes,1.4,-1,Correct Rejection,0.667052445002,False,True,stimulusRORE28_2IFCnew_2019_Jun_11_1716_429,stimulusRORE28_2IFCnew_2019_Jun_11_1716_430,2019_Jun_11_1716,2IFCnew,2,RORE28,
2IFCnew,65,0,65,0,-1,0,Yes,1.4,-1,No Answer,-1,False,True,stimulusRORE28_2IFCnew_2019_Jun_11_1716_431,stimulusRORE28_2IFCnew_2019_Jun_11_1716_432,2019_Jun_11_1716,2IFCnew,2,RORE28,
2IFCnew,66,0,66,0,-1,4,Yes,1.4,-1,Miss,0.601228442509,True,False,stimulusRORE28_2IFCnew_2019_Jun_11_1716_433,stimulusRORE28_2IFCnew_2019_Jun_11_1716_434,2019_Jun_11_1716,2IFCnew,2,RORE28,
2IFCnew,67,0,67,0,-1,1,Yes,1.4,-1,Hit,0.568741768599,True,False,stimulusRORE28_2IFCnew_2019_Jun_11_1716_435,stimulusRORE28_2IFCnew_2019_Jun_11_1716_436,2019_Jun_11_1716,2IFCnew,2,RORE28,
2IFCnew,68,0,68,0,-1,3,Yes,1.4,-1,Correct Rejection,0.565572337247,False,True,stimulusRORE28_2IFCnew_2019_Jun_11_1716_437,stimulusRORE28_2IFCnew_2019_Jun_11_1716_438,2019_Jun_11_1716,2IFCnew,2,RORE28,
2IFCnew,69,0,69,0,0.736752843484,8,No,1.4,-1,Correct Rejection,0.599446663167,False,True,stimulusRORE28_2IFCnew_2019_Jun_11_1716_439,stimulusRORE28_2IFCnew_2019_Jun_11_1716_440,2019_Jun_11_1716,2IFCnew,2,RORE28,
2IFCnew,70,0,70,0,-1,4,No,1.4,-1,Miss,0.700112654362,True,False,stimulusRORE28_2IFCnew_2019_Jun_11_1716_441,stimulusRORE28_2IFCnew_2019_Jun_11_1716_442,2019_Jun_11_1716,2IFCnew,2,RORE28,
2IFCnew,71,0,71,0,-1,2,No,1.4,-1,False Alarm,0.703627767507,False,True,stimulusRORE28_2IFCnew_2019_Jun_11_1716_443,stimulusRORE28_2IFCnew_2019_Jun_11_1716_444,2019_Jun_11_1716,2IFCnew,2,RORE28,
2IFCnew,72,0,72,0,-1,3,No,1.4,-1,Correct Rejection,0.634115400258,False,True,stimulusRORE28_2IFCnew_2019_Jun_11_1716_445,stimulusRORE28_2IFCnew_2019_Jun_11_1716_446,2019_Jun_11_1716,2IFCnew,2,RORE28,
2IFCnew,73,0,73,0,-1,4,No,1.4,-1,Miss,0.73472678801,True,False,stimulusRORE28_2IFCnew_2019_Jun_11_1716_447,stimulusRORE28_2IFCnew_2019_Jun_11_1716_448,2019_Jun_11_1716,2IFCnew,2,RORE28,
2IFCnew,74,0,74,0,-1,4,No,1.4,-1,Miss,0.533949456643,True,False,stimulusRORE28_2IFCnew_2019_Jun_11_1716_449,stimulusRORE28_2IFCnew_2019_Jun_11_1716_450,2019_Jun_11_1716,2IFCnew,2,RORE28,
2IFCnew,0,0,0,0,-1,0,No,3.7,-1,No Answer,-1,True,False,stimulusRORE28_2IFCnew_2019_Jun_11_1716_451,stimulusRORE28_2IFCnew_2019_Jun_11_1716_452,2019_Jun_11_1716,2IFCnew,2,RORE28,
2IFCnew,1,0,1,0,-1,4,No,3.7,-1,Miss,0.600680360105,True,False,stimulusRORE28_2IFCnew_2019_Jun_11_1716_453,stimulusRORE28_2IFCnew_2019_Jun_11_1716_454,2019_Jun_11_1716,2IFCnew,2,RORE28,
2IFCnew,2,0,2,0,-1,3,No,3.7,-1,Correct Rejection,0.567937094253,False,True,stimulusRORE28_2IFCnew_2019_Jun_11_1716_455,stimulusRORE28_2IFCnew_2019_Jun_11_1716_456,2019_Jun_11_1716,2IFCnew,2,RORE28,
2IFCnew,3,0,3,0,-1,4,No,3.7,-1,Miss,0.566615129355,True,False,stimulusRORE28_2IFCnew_2019_Jun_11_1716_457,stimulusRORE28_2IFCnew_2019_Jun_11_1716_458,2019_Jun_11_1716,2IFCnew,2,RORE28,
2IFCnew,4,0,4,0,-1,3,No,3.7,-1,Correct Rejection,0.600356027018,False,True,stimulusRORE28_2IFCnew_2019_Jun_11_1716_459,stimulusRORE28_2IFCnew_2019_Jun_11_1716_460,2019_Jun_11_1716,2IFCnew,2,RORE28,
2IFCnew,5,0,5,0,0.735594276804,2,Yes,3.7,-1,Correct Rejection,0.601310962345,False,True,stimulusRORE28_2IFCnew_2019_Jun_11_1716_461,stimulusRORE28_2IFCnew_2019_Jun_11_1716_462,2019_Jun_11_1716,2IFCnew,2,RORE28,
2IFCnew,6,0,6,0,-1,2,Yes,3.7,-1,False Alarm,0.734023519326,False,True,stimulusRORE28_2IFCnew_2019_Jun_11_1716_463,stimulusRORE28_2IFCnew_2019_Jun_11_1716_464,2019_Jun_11_1716,2IFCnew,2,RORE28,
2IFCnew,7,0,7,0,-1,1,Yes,3.7,-1,Hit,0.704012861475,True,False,stimulusRORE28_2IFCnew_2019_Jun_11_1716_465,stimulusRORE28_2IFCnew_2019_Jun_11_1716_466,2019_Jun_11_1716,2IFCnew,2,RORE28,
2IFCnew,8,0,8,0,-1,1,Yes,3.7,-1,Hit,0.602862013038,True,False,stimulusRORE28_2IFCnew_2019_Jun_11_1716_467,stimulusRORE28_2IFCnew_2019_Jun_11_1716_468,2019_Jun_11_1716,2IFCnew,2,RORE28,
2IFCnew,9,0,9,0,-1,3,Yes,3.7,-1,Correct Rejection,0.637853030581,False,True,stimulusRORE28_2IFCnew_2019_Jun_11_1716_469,stimulusRORE28_2IFCnew_2019_Jun_11_1716_470,2019_Jun_11_1716,2IFCnew,2,RORE28,
2IFCnew,10,0,10,0,0.768403230701,5,Yes,3.7,-1,False Alarm,0.668061983306,False,True,stimulusRORE28_2IFCnew_2019_Jun_11_1716_471,stimulusRORE28_2IFCnew_2019_Jun_11_1716_472,2019_Jun_11_1716,2IFCnew,2,RORE28,
2IFCnew,11,0,11,0,-1,1,Yes,3.7,-1,Hit,0.733120724093,True,False,stimulusRORE28_2IFCnew_2019_Jun_11_1716_473,stimulusRORE28_2IFCnew_2019_Jun_11_1716_474,2019_Jun_11_1716,2IFCnew,2,RORE28,
2IFCnew,12,0,12,0,0.738173339982,5,Yes,3.7,-1,False Alarm,0.833473877516,False,True,stimulusRORE28_2IFCnew_2019_Jun_11_1716_475,stimulusRORE28_2IFCnew_2019_Jun_11_1716_476,2019_Jun_11_1716,2IFCnew,2,RORE28,
2IFCnew,13,0,13,0,0.668857214507,5,Yes,3.7,-1,False Alarm,0.600129815284,False,True,stimulusRORE28_2IFCnew_2019_Jun_11_1716_477,stimulusRORE28_2IFCnew_2019_Jun_11_1716_478,2019_Jun_11_1716,2IFCnew,2,RORE28,
2IFCnew,14,0,14,0,0.567146788817,2,Yes,3.7,-1,Correct Rejection,0.67147651175,False,True,stimulusRORE28_2IFCnew_2019_Jun_11_1716_479,stimulusRORE28_2IFCnew_2019_Jun_11_1716_480,2019_Jun_11_1716,2IFCnew,2,RORE28,
2IFCnew,15,0,15,0,0.700534287374,2,Yes,3.7,-1,Correct Rejection,0.802656903397,False,True,stimulusRORE28_2IFCnew_2019_Jun_11_1716_481,stimulusRORE28_2IFCnew_2019_Jun_11_1716_482,2019_Jun_11_1716,2IFCnew,2,RORE28,
2IFCnew,16,0,16,0,-1,4,Yes,3.7,-1,Miss,0.600512445904,True,False,stimulusRORE28_2IFCnew_2019_Jun_11_1716_483,stimulusRORE28_2IFCnew_2019_Jun_11_1716_484,2019_Jun_11_1716,2IFCnew,2,RORE28,
2IFCnew,17,0,17,0,-1,0,Yes,3.7,-1,No Answer,-1,True,False,stimulusRORE28_2IFCnew_2019_Jun_11_1716_485,stimulusRORE28_2IFCnew_2019_Jun_11_1716_486,2019_Jun_11_1716,2IFCnew,2,RORE28,
2IFCnew,18,0,18,0,0.763922097627,2,Yes,3.7,-1,Correct Rejection,0.600840884726,False,True,stimulusRORE28_2IFCnew_2019_Jun_11_1716_487,stimulusRORE28_2IFCnew_2019_Jun_11_1716_488,2019_Jun_11_1716,2IFCnew,2,RORE28,
2IFCnew,19,0,19,0,-1,1,Yes,3.7,-1,Hit,0.601053959224,True,False,stimulusRORE28_2IFCnew_2019_Jun_11_1716_489,stimulusRORE28_2IFCnew_2019_Jun_11_1716_490,2019_Jun_11_1716,2IFCnew,2,RORE28,
2IFCnew,20,0,20,0,-1,2,Yes,3.7,-1,False Alarm,0.599162563682,False,True,stimulusRORE28_2IFCnew_2019_Jun_11_1716_491,stimulusRORE28_2IFCnew_2019_Jun_11_1716_492,2019_Jun_11_1716,2IFCnew,2,RORE28,
2IFCnew,21,0,21,0,0.900847289246,5,Yes,3.7,-1,False Alarm,0.532973994501,False,True,stimulusRORE28_2IFCnew_2019_Jun_11_1716_493,stimulusRORE28_2IFCnew_2019_Jun_11_1716_494,2019_Jun_11_1716,2IFCnew,2,RORE28,
2IFCnew,22,0,22,0,-1,1,Yes,3.7,-1,Hit,0.702533246018,True,False,stimulusRORE28_2IFCnew_2019_Jun_11_1716_495,stimulusRORE28_2IFCnew_2019_Jun_11_1716_496,2019_Jun_11_1716,2IFCnew,2,RORE28,
2IFCnew,23,0,23,0,-1,1,Yes,3.7,-1,Hit,0.568820183165,True,False,stimulusRORE28_2IFCnew_2019_Jun_11_1716_497,stimulusRORE28_2IFCnew_2019_Jun_11_1716_498,2019_Jun_11_1716,2IFCnew,2,RORE28,
2IFCnew,24,0,24,0,0.508935990743,5,Yes,3.7,-1,False Alarm,0.601763386279,False,True,stimulusRORE28_2IFCnew_2019_Jun_11_1716_499,stimulusRORE28_2IFCnew_2019_Jun_11_1716_500,2019_Jun_11_1716,2IFCnew,2,RORE28,
2IFCnew,25,0,25,0,-1,3,Yes,3.7,-1,Correct Rejection,0.766964259092,False,True,stimulusRORE28_2IFCnew_2019_Jun_11_1716_501,stimulusRORE28_2IFCnew_2019_Jun_11_1716_502,2019_Jun_11_1716,2IFCnew,2,RORE28,
2IFCnew,26,0,26,0,-1,4,Yes,3.7,-1,Miss,0.767346479464,True,False,stimulusRORE28_2IFCnew_2019_Jun_11_1716_503,stimulusRORE28_2IFCnew_2019_Jun_11_1716_504,2019_Jun_11_1716,2IFCnew,2,RORE28,
2IFCnew,27,0,27,0,-1,3,Yes,3.7,-1,Correct Rejection,0.599566132762,False,True,stimulusRORE28_2IFCnew_2019_Jun_11_1716_505,stimulusRORE28_2IFCnew_2019_Jun_11_1716_506,2019_Jun_11_1716,2IFCnew,2,RORE28,
2IFCnew,28,0,28,0,-1,1,Yes,3.7,-1,Hit,0.56904228963,True,False,stimulusRORE28_2IFCnew_2019_Jun_11_1716_507,stimulusRORE28_2IFCnew_2019_Jun_11_1716_508,2019_Jun_11_1716,2IFCnew,2,RORE28,
2IFCnew,29,0,29,0,-1,4,Yes,3.7,-1,Miss,0.535209017806,True,False,stimulusRORE28_2IFCnew_2019_Jun_11_1716_509,stimulusRORE28_2IFCnew_2019_Jun_11_1716_510,2019_Jun_11_1716,2IFCnew,2,RORE28,
2IFCnew,30,0,30,0,-1,1,Yes,3.7,-1,Hit,0.503185442649,True,False,stimulusRORE28_2IFCnew_2019_Jun_11_1716_511,stimulusRORE28_2IFCnew_2019_Jun_11_1716_512,2019_Jun_11_1716,2IFCnew,2,RORE28,
2IFCnew,31,0,31,0,-1,4,Yes,3.7,-1,Miss,0.633389551193,True,False,stimulusRORE28_2IFCnew_2019_Jun_11_1716_513,stimulusRORE28_2IFCnew_2019_Jun_11_1716_514,2019_Jun_11_1716,2IFCnew,2,RORE28,
2IFCnew,32,0,32,0,0.802266882267,5,Yes,3.7,-1,False Alarm,0.799614331219,False,True,stimulusRORE28_2IFCnew_2019_Jun_11_1716_515,stimulusRORE28_2IFCnew_2019_Jun_11_1716_516,2019_Jun_11_1716,2IFCnew,2,RORE28,
2IFCnew,33,0,33,0,-1,3,Yes,3.7,-1,Correct Rejection,0.804439503234,False,True,stimulusRORE28_2IFCnew_2019_Jun_11_1716_517,stimulusRORE28_2IFCnew_2019_Jun_11_1716_518,2019_Jun_11_1716,2IFCnew,2,RORE28,
2IFCnew,34,0,34,0,-1,1,Yes,3.7,-1,Hit,0.534550499171,True,False,stimulusRORE28_2IFCnew_2019_Jun_11_1716_519,stimulusRORE28_2IFCnew_2019_Jun_11_1716_520,2019_Jun_11_1716,2IFCnew,2,RORE28,
2IFCnew,35,0,35,0,-1,1,Yes,3.7,-1,Hit,0.540132721886,True,False,stimulusRORE28_2IFCnew_2019_Jun_11_1716_521,stimulusRORE28_2IFCnew_2019_Jun_11_1716_522,2019_Jun_11_1716,2IFCnew,2,RORE28,
2IFCnew,36,0,36,0,-1,3,Yes,3.7,-1,Correct Rejection,0.635838470887,False,True,stimulusRORE28_2IFCnew_2019_Jun_11_1716_523,stimulusRORE28_2IFCnew_2019_Jun_11_1716_524,2019_Jun_11_1716,2IFCnew,2,RORE28,
2IFCnew,37,0,37,0,-1,1,Yes,3.7,-1,Hit,0.567380390596,True,False,stimulusRORE28_2IFCnew_2019_Jun_11_1716_525,stimulusRORE28_2IFCnew_2019_Jun_11_1716_526,2019_Jun_11_1716,2IFCnew,2,RORE28,
2IFCnew,38,0,38,0,-1,3,Yes,3.7,-1,Correct Rejection,0.531295262743,False,True,stimulusRORE28_2IFCnew_2019_Jun_11_1716_527,stimulusRORE28_2IFCnew_2019_Jun_11_1716_528,2019_Jun_11_1716,2IFCnew,2,RORE28,
2IFCnew,39,0,39,0,-1,1,Yes,3.7,-1,Hit,0.532030144241,True,False,stimulusRORE28_2IFCnew_2019_Jun_11_1716_529,stimulusRORE28_2IFCnew_2019_Jun_11_1716_530,2019_Jun_11_1716,2IFCnew,2,RORE28,
2IFCnew,40,0,40,0,-1,3,Yes,3.7,-1,Correct Rejection,0.533687937539,False,True,stimulusRORE28_2IFCnew_2019_Jun_11_1716_531,stimulusRORE28_2IFCnew_2019_Jun_11_1716_532,2019_Jun_11_1716,2IFCnew,2,RORE28,
2IFCnew,41,0,41,0,-1,2,Yes,3.7,-1,False Alarm,0.367739866953,False,True,stimulusRORE28_2IFCnew_2019_Jun_11_1716_533,stimulusRORE28_2IFCnew_2019_Jun_11_1716_534,2019_Jun_11_1716,2IFCnew,2,RORE28,
2IFCnew,42,0,42,0,-1,3,Yes,3.7,-1,Correct Rejection,0.439774641767,False,True,stimulusRORE28_2IFCnew_2019_Jun_11_1716_535,stimulusRORE28_2IFCnew_2019_Jun_11_1716_536,2019_Jun_11_1716,2IFCnew,2,RORE28,
2IFCnew,43,0,43,0,-1,1,Yes,3.7,-1,Hit,0.402406140231,True,False,stimulusRORE28_2IFCnew_2019_Jun_11_1716_537,stimulusRORE28_2IFCnew_2019_Jun_11_1716_538,2019_Jun_11_1716,2IFCnew,2,RORE28,
2IFCnew,44,0,44,0,-1,4,Yes,3.7,-1,Miss,0.534475779161,True,False,stimulusRORE28_2IFCnew_2019_Jun_11_1716_539,stimulusRORE28_2IFCnew_2019_Jun_11_1716_540,2019_Jun_11_1716,2IFCnew,2,RORE28,
2IFCnew,45,0,45,0,-1,1,Yes,3.7,-1,Hit,0.509269355796,True,False,stimulusRORE28_2IFCnew_2019_Jun_11_1716_541,stimulusRORE28_2IFCnew_2019_Jun_11_1716_542,2019_Jun_11_1716,2IFCnew,2,RORE28,
2IFCnew,46,0,46,0,-1,2,Yes,3.7,-1,False Alarm,0.634532106109,False,True,stimulusRORE28_2IFCnew_2019_Jun_11_1716_543,stimulusRORE28_2IFCnew_2019_Jun_11_1716_544,2019_Jun_11_1716,2IFCnew,2,RORE28,
2IFCnew,47,0,47,0,-1,3,Yes,3.7,-1,Correct Rejection,0.601424684282,False,True,stimulusRORE28_2IFCnew_2019_Jun_11_1716_545,stimulusRORE28_2IFCnew_2019_Jun_11_1716_546,2019_Jun_11_1716,2IFCnew,2,RORE28,
2IFCnew,48,0,48,0,-1,1,Yes,3.7,-1,Hit,0.602228947915,True,False,stimulusRORE28_2IFCnew_2019_Jun_11_1716_547,stimulusRORE28_2IFCnew_2019_Jun_11_1716_548,2019_Jun_11_1716,2IFCnew,2,RORE28,
2IFCnew,49,0,49,0,-1,3,Yes,3.7,-1,Correct Rejection,0.602548354305,False,True,stimulusRORE28_2IFCnew_2019_Jun_11_1716_549,stimulusRORE28_2IFCnew_2019_Jun_11_1716_550,2019_Jun_11_1716,2IFCnew,2,RORE28,
2IFCnew,50,0,50,0,-1,3,Yes,3.7,-1,Correct Rejection,0.666193167679,False,True,stimulusRORE28_2IFCnew_2019_Jun_11_1716_551,stimulusRORE28_2IFCnew_2019_Jun_11_1716_552,2019_Jun_11_1716,2IFCnew,2,RORE28,
2IFCnew,51,0,51,0,-1,1,Yes,3.7,-1,Hit,0.701128760818,True,False,stimulusRORE28_2IFCnew_2019_Jun_11_1716_553,stimulusRORE28_2IFCnew_2019_Jun_11_1716_554,2019_Jun_11_1716,2IFCnew,2,RORE28,
2IFCnew,52,0,52,0,-1,3,Yes,3.7,-1,Correct Rejection,0.69979571132,False,True,stimulusRORE28_2IFCnew_2019_Jun_11_1716_555,stimulusRORE28_2IFCnew_2019_Jun_11_1716_556,2019_Jun_11_1716,2IFCnew,2,RORE28,
2IFCnew,53,0,53,0,0.669207001571,2,Yes,3.7,-1,Correct Rejection,0.566081416328,False,True,stimulusRORE28_2IFCnew_2019_Jun_11_1716_557,stimulusRORE28_2IFCnew_2019_Jun_11_1716_558,2019_Jun_11_1716,2IFCnew,2,RORE28,
2IFCnew,54,0,54,0,0.668747187592,6,No,3.7,-1,Miss,0.834144302644,True,False,stimulusRORE28_2IFCnew_2019_Jun_11_1716_559,stimulusRORE28_2IFCnew_2019_Jun_11_1716_560,2019_Jun_11_1716,2IFCnew,2,RORE28,
2IFCnew,55,0,55,0,-1,3,No,3.7,-1,Correct Rejection,0.700447661802,False,True,stimulusRORE28_2IFCnew_2019_Jun_11_1716_561,stimulusRORE28_2IFCnew_2019_Jun_11_1716_562,2019_Jun_11_1716,2IFCnew,2,RORE28,
2IFCnew,56,0,56,0,-1,0,No,3.7,-1,No Answer,-1,True,False,stimulusRORE28_2IFCnew_2019_Jun_11_1716_563,stimulusRORE28_2IFCnew_2019_Jun_11_1716_564,2019_Jun_11_1716,2IFCnew,2,RORE28,
2IFCnew,57,0,57,0,-1,4,No,3.7,-1,Miss,0.667463814374,True,False,stimulusRORE28_2IFCnew_2019_Jun_11_1716_565,stimulusRORE28_2IFCnew_2019_Jun_11_1716_566,2019_Jun_11_1716,2IFCnew,2,RORE28,
2IFCnew,58,0,58,0,0.900910103228,6,No,3.7,-1,Miss,0.700997385662,True,False,stimulusRORE28_2IFCnew_2019_Jun_11_1716_567,stimulusRORE28_2IFCnew_2019_Jun_11_1716_568,2019_Jun_11_1716,2IFCnew,2,RORE28,
2IFCnew,59,0,59,0,-1,3,No,3.7,-1,Correct Rejection,0.802461482584,False,True,stimulusRORE28_2IFCnew_2019_Jun_11_1716_569,stimulusRORE28_2IFCnew_2019_Jun_11_1716_570,2019_Jun_11_1716,2IFCnew,2,RORE28,
2IFCnew,60,0,60,0,0.731273667887,8,No,3.7,-1,Correct Rejection,0.599014766514,False,True,stimulusRORE28_2IFCnew_2019_Jun_11_1716_571,stimulusRORE28_2IFCnew_2019_Jun_11_1716_572,2019_Jun_11_1716,2IFCnew,2,RORE28,
2IFCnew,61,0,61,0,-1,3,No,3.7,-1,Correct Rejection,0.666193578392,False,True,stimulusRORE28_2IFCnew_2019_Jun_11_1716_573,stimulusRORE28_2IFCnew_2019_Jun_11_1716_574,2019_Jun_11_1716,2IFCnew,2,RORE28,
2IFCnew,62,0,62,0,-1,1,No,3.7,-1,Hit,0.568592739291,True,False,stimulusRORE28_2IFCnew_2019_Jun_11_1716_575,stimulusRORE28_2IFCnew_2019_Jun_11_1716_576,2019_Jun_11_1716,2IFCnew,2,RORE28,
2IFCnew,63,0,63,0,-1,4,No,3.7,-1,Miss,0.602614042349,True,False,stimulusRORE28_2IFCnew_2019_Jun_11_1716_577,stimulusRORE28_2IFCnew_2019_Jun_11_1716_578,2019_Jun_11_1716,2IFCnew,2,RORE28,
2IFCnew,64,0,64,0,-1,2,No,3.7,-1,False Alarm,0.569140000269,False,True,stimulusRORE28_2IFCnew_2019_Jun_11_1716_579,stimulusRORE28_2IFCnew_2019_Jun_11_1716_580,2019_Jun_11_1716,2IFCnew,2,RORE28,
2IFCnew,65,0,65,0,-1,4,No,3.7,-1,Miss,0.633957749698,True,False,stimulusRORE28_2IFCnew_2019_Jun_11_1716_581,stimulusRORE28_2IFCnew_2019_Jun_11_1716_582,2019_Jun_11_1716,2IFCnew,2,RORE28,
2IFCnew,66,0,66,0,-1,3,No,3.7,-1,Correct Rejection,0.570688998327,False,True,stimulusRORE28_2IFCnew_2019_Jun_11_1716_583,stimulusRORE28_2IFCnew_2019_Jun_11_1716_584,2019_Jun_11_1716,2IFCnew,2,RORE28,
2IFCnew,67,0,67,0,0.734730072785,6,No,3.7,-1,Miss,0.56600751821,True,False,stimulusRORE28_2IFCnew_2019_Jun_11_1716_585,stimulusRORE28_2IFCnew_2019_Jun_11_1716_586,2019_Jun_11_1716,2IFCnew,2,RORE28,
2IFCnew,68,0,68,0,-1,1,No,3.7,-1,Hit,0.834663646296,True,False,stimulusRORE28_2IFCnew_2019_Jun_11_1716_587,stimulusRORE28_2IFCnew_2019_Jun_11_1716_588,2019_Jun_11_1716,2IFCnew,2,RORE28,
2IFCnew,69,0,69,0,-1,0,No,3.7,-1,No Answer,-1,True,False,stimulusRORE28_2IFCnew_2019_Jun_11_1716_589,stimulusRORE28_2IFCnew_2019_Jun_11_1716_590,2019_Jun_11_1716,2IFCnew,2,RORE28,
2IFCnew,70,0,70,0,0.56858575996,6,No,3.7,-1,Miss,0.661638957448,True,False,stimulusRORE28_2IFCnew_2019_Jun_11_1716_591,stimulusRORE28_2IFCnew_2019_Jun_11_1716_592,2019_Jun_11_1716,2IFCnew,2,RORE28,
2IFCnew,71,0,71,0,-1,1,No,3.7,-1,Hit,0.833967356477,True,False,stimulusRORE28_2IFCnew_2019_Jun_11_1716_593,stimulusRORE28_2IFCnew_2019_Jun_11_1716_594,2019_Jun_11_1716,2IFCnew,2,RORE28,
2IFCnew,72,0,72,0,-1,1,No,3.7,-1,Hit,0.667986441869,True,False,stimulusRORE28_2IFCnew_2019_Jun_11_1716_595,stimulusRORE28_2IFCnew_2019_Jun_11_1716_596,2019_Jun_11_1716,2IFCnew,2,RORE28,
2IFCnew,73,0,73,0,-1,1,No,3.7,-1,Hit,0.76726231724,True,False,stimulusRORE28_2IFCnew_2019_Jun_11_1716_597,stimulusRORE28_2IFCnew_2019_Jun_11_1716_598,2019_Jun_11_1716,2IFCnew,2,RORE28,
2IFCnew,74,0,74,0,-1,4,No,3.7,-1,Miss,0.635311326943,True,False,stimulusRORE28_2IFCnew_2019_Jun_11_1716_599,stimulusRORE28_2IFCnew_2019_Jun_11_1716_600,2019_Jun_11_1716,2IFCnew,2,RORE28,
2IFCnew,0,0,0,0,-1,3,No,5,-1,Correct Rejection,0.534452377819,False,True,stimulusRORE28_2IFCnew_2019_Jun_11_1716_601,stimulusRORE28_2IFCnew_2019_Jun_11_1716_602,2019_Jun_11_1716,2IFCnew,2,RORE28,
2IFCnew,1,0,1,0,-1,0,No,5,-1,No Answer,-1,True,False,stimulusRORE28_2IFCnew_2019_Jun_11_1716_603,stimulusRORE28_2IFCnew_2019_Jun_11_1716_604,2019_Jun_11_1716,2IFCnew,2,RORE28,
2IFCnew,2,0,2,0,-1,0,No,5,-1,No Answer,-1,True,False,stimulusRORE28_2IFCnew_2019_Jun_11_1716_605,stimulusRORE28_2IFCnew_2019_Jun_11_1716_606,2019_Jun_11_1716,2IFCnew,2,RORE28,
2IFCnew,3,0,3,0,-1,0,No,5,-1,No Answer,-1,True,False,stimulusRORE28_2IFCnew_2019_Jun_11_1716_607,stimulusRORE28_2IFCnew_2019_Jun_11_1716_608,2019_Jun_11_1716,2IFCnew,2,RORE28,
2IFCnew,4,0,4,0,-1,3,No,5,-1,Correct Rejection,0.535789533518,False,True,stimulusRORE28_2IFCnew_2019_Jun_11_1716_609,stimulusRORE28_2IFCnew_2019_Jun_11_1716_610,2019_Jun_11_1716,2IFCnew,2,RORE28,
2IFCnew,5,0,5,0,0.769451770466,8,No,5,-1,Correct Rejection,0.533071704675,False,True,stimulusRORE28_2IFCnew_2019_Jun_11_1716_611,stimulusRORE28_2IFCnew_2019_Jun_11_1716_612,2019_Jun_11_1716,2IFCnew,2,RORE28,
2IFCnew,6,0,6,0,-1,3,No,5,-1,Correct Rejection,0.833055939525,False,True,stimulusRORE28_2IFCnew_2019_Jun_11_1716_613,stimulusRORE28_2IFCnew_2019_Jun_11_1716_614,2019_Jun_11_1716,2IFCnew,2,RORE28,
2IFCnew,7,0,7,0,-1,1,No,5,-1,Hit,0.60466760397,True,False,stimulusRORE28_2IFCnew_2019_Jun_11_1716_615,stimulusRORE28_2IFCnew_2019_Jun_11_1716_616,2019_Jun_11_1716,2IFCnew,2,RORE28,
2IFCnew,8,0,8,0,-1,3,No,5,-1,Correct Rejection,0.742010322865,False,True,stimulusRORE28_2IFCnew_2019_Jun_11_1716_617,stimulusRORE28_2IFCnew_2019_Jun_11_1716_618,2019_Jun_11_1716,2IFCnew,2,RORE28,
2IFCnew,9,0,9,0,-1,1,No,5,-1,Hit,0.571198488586,True,False,stimulusRORE28_2IFCnew_2019_Jun_11_1716_619,stimulusRORE28_2IFCnew_2019_Jun_11_1716_620,2019_Jun_11_1716,2IFCnew,2,RORE28,
2IFCnew,10,0,10,0,-1,1,No,5,-1,Hit,0.538150184788,True,False,stimulusRORE28_2IFCnew_2019_Jun_11_1716_621,stimulusRORE28_2IFCnew_2019_Jun_11_1716_622,2019_Jun_11_1716,2IFCnew,2,RORE28,
2IFCnew,11,0,11,0,-1,2,No,5,-1,False Alarm,0.565645825118,False,True,stimulusRORE28_2IFCnew_2019_Jun_11_1716_623,stimulusRORE28_2IFCnew_2019_Jun_11_1716_624,2019_Jun_11_1716,2IFCnew,2,RORE28,
2IFCnew,12,0,12,0,-1,1,No,5,-1,Hit,0.565877784509,True,False,stimulusRORE28_2IFCnew_2019_Jun_11_1716_625,stimulusRORE28_2IFCnew_2019_Jun_11_1716_626,2019_Jun_11_1716,2IFCnew,2,RORE28,
2IFCnew,13,0,13,0,-1,1,No,5,-1,Hit,0.633576350752,True,False,stimulusRORE28_2IFCnew_2019_Jun_11_1716_627,stimulusRORE28_2IFCnew_2019_Jun_11_1716_628,2019_Jun_11_1716,2IFCnew,2,RORE28,
2IFCnew,14,0,14,0,-1,3,No,5,-1,Correct Rejection,0.471433650702,False,True,stimulusRORE28_2IFCnew_2019_Jun_11_1716_629,stimulusRORE28_2IFCnew_2019_Jun_11_1716_630,2019_Jun_11_1716,2IFCnew,2,RORE28,
2IFCnew,15,0,15,0,-1,0,No,5,-1,No Answer,-1,False,True,stimulusRORE28_2IFCnew_2019_Jun_11_1716_631,stimulusRORE28_2IFCnew_2019_Jun_11_1716_632,2019_Jun_11_1716,2IFCnew,2,RORE28,
2IFCnew,16,0,16,0,-1,3,No,5,-1,Correct Rejection,0.599975038785,False,True,stimulusRORE28_2IFCnew_2019_Jun_11_1716_633,stimulusRORE28_2IFCnew_2019_Jun_11_1716_634,2019_Jun_11_1716,2IFCnew,2,RORE28,
2IFCnew,17,0,17,0,-1,4,No,5,-1,Miss,0.566718176473,True,False,stimulusRORE28_2IFCnew_2019_Jun_11_1716_635,stimulusRORE28_2IFCnew_2019_Jun_11_1716_636,2019_Jun_11_1716,2IFCnew,2,RORE28,
2IFCnew,18,0,18,0,-1,1,No,5,-1,Hit,0.568954432383,True,False,stimulusRORE28_2IFCnew_2019_Jun_11_1716_637,stimulusRORE28_2IFCnew_2019_Jun_11_1716_638,2019_Jun_11_1716,2IFCnew,2,RORE28,
2IFCnew,19,0,19,0,-1,3,No,5,-1,Correct Rejection,0.604668014217,False,True,stimulusRORE28_2IFCnew_2019_Jun_11_1716_639,stimulusRORE28_2IFCnew_2019_Jun_11_1716_640,2019_Jun_11_1716,2IFCnew,2,RORE28,
2IFCnew,20,0,20,0,-1,2,No,5,-1,False Alarm,0.868171763606,False,True,stimulusRORE28_2IFCnew_2019_Jun_11_1716_641,stimulusRORE28_2IFCnew_2019_Jun_11_1716_642,2019_Jun_11_1716,2IFCnew,2,RORE28,
2IFCnew,21,0,21,0,-1,3,No,5,-1,Correct Rejection,0.73082083324,False,True,stimulusRORE28_2IFCnew_2019_Jun_11_1716_643,stimulusRORE28_2IFCnew_2019_Jun_11_1716_644,2019_Jun_11_1716,2IFCnew,2,RORE28,
2IFCnew,22,0,22,0,-1,1,No,5,-1,Hit,0.626155693084,True,False,stimulusRORE28_2IFCnew_2019_Jun_11_1716_645,stimulusRORE28_2IFCnew_2019_Jun_11_1716_646,2019_Jun_11_1716,2IFCnew,2,RORE28,
2IFCnew,23,0,23,0,-1,3,No,5,-1,Correct Rejection,0.634869987611,False,True,stimulusRORE28_2IFCnew_2019_Jun_11_1716_647,stimulusRORE28_2IFCnew_2019_Jun_11_1716_648,2019_Jun_11_1716,2IFCnew,2,RORE28,
2IFCnew,24,0,24,0,-1,3,No,5,-1,Correct Rejection,0.535454936791,False,True,stimulusRORE28_2IFCnew_2019_Jun_11_1716_649,stimulusRORE28_2IFCnew_2019_Jun_11_1716_650,2019_Jun_11_1716,2IFCnew,2,RORE28,
2IFCnew,25,0,25,0,-1,1,No,5,-1,Hit,0.532915286254,True,False,stimulusRORE28_2IFCnew_2019_Jun_11_1716_651,stimulusRORE28_2IFCnew_2019_Jun_11_1716_652,2019_Jun_11_1716,2IFCnew,2,RORE28,
2IFCnew,26,0,26,0,-1,1,No,5,-1,Hit,0.56860669842,True,False,stimulusRORE28_2IFCnew_2019_Jun_11_1716_653,stimulusRORE28_2IFCnew_2019_Jun_11_1716_654,2019_Jun_11_1716,2IFCnew,2,RORE28,
2IFCnew,27,0,27,0,-1,1,No,5,-1,Hit,0.502017022576,True,False,stimulusRORE28_2IFCnew_2019_Jun_11_1716_655,stimulusRORE28_2IFCnew_2019_Jun_11_1716_656,2019_Jun_11_1716,2IFCnew,2,RORE28,
2IFCnew,28,0,28,0,-1,2,No,5,-1,False Alarm,0.701958478894,False,True,stimulusRORE28_2IFCnew_2019_Jun_11_1716_657,stimulusRORE28_2IFCnew_2019_Jun_11_1716_658,2019_Jun_11_1716,2IFCnew,2,RORE28,
2IFCnew,29,0,29,0,-1,1,No,5,-1,Hit,0.626999369357,True,False,stimulusRORE28_2IFCnew_2019_Jun_11_1716_659,stimulusRORE28_2IFCnew_2019_Jun_11_1716_660,2019_Jun_11_1716,2IFCnew,2,RORE28,
2IFCnew,30,0,30,0,-1,3,No,5,-1,Correct Rejection,0.800284756348,False,True,stimulusRORE28_2IFCnew_2019_Jun_11_1716_661,stimulusRORE28_2IFCnew_2019_Jun_11_1716_662,2019_Jun_11_1716,2IFCnew,2,RORE28,
2IFCnew,31,0,31,0,-1,1,No,5,-1,Hit,0.566396717448,True,False,stimulusRORE28_2IFCnew_2019_Jun_11_1716_663,stimulusRORE28_2IFCnew_2019_Jun_11_1716_664,2019_Jun_11_1716,2IFCnew,2,RORE28,
2IFCnew,32,0,32,0,-1,4,No,5,-1,Miss,0.667067225091,True,False,stimulusRORE28_2IFCnew_2019_Jun_11_1716_665,stimulusRORE28_2IFCnew_2019_Jun_11_1716_666,2019_Jun_11_1716,2IFCnew,2,RORE28,
2IFCnew,33,0,33,0,-1,3,No,5,-1,Correct Rejection,0.771568146069,False,True,stimulusRORE28_2IFCnew_2019_Jun_11_1716_667,stimulusRORE28_2IFCnew_2019_Jun_11_1716_668,2019_Jun_11_1716,2IFCnew,2,RORE28,
2IFCnew,34,0,34,0,-1,1,No,5,-1,Hit,0.568705640268,True,False,stimulusRORE28_2IFCnew_2019_Jun_11_1716_669,stimulusRORE28_2IFCnew_2019_Jun_11_1716_670,2019_Jun_11_1716,2IFCnew,2,RORE28,
2IFCnew,35,0,35,0,-1,1,No,5,-1,Hit,0.569248795509,True,False,stimulusRORE28_2IFCnew_2019_Jun_11_1716_671,stimulusRORE28_2IFCnew_2019_Jun_11_1716_672,2019_Jun_11_1716,2IFCnew,2,RORE28,
2IFCnew,36,0,36,0,-1,1,No,5,-1,Hit,0.626889753155,True,False,stimulusRORE28_2IFCnew_2019_Jun_11_1716_673,stimulusRORE28_2IFCnew_2019_Jun_11_1716_674,2019_Jun_11_1716,2IFCnew,2,RORE28,
2IFCnew,37,0,37,0,-1,1,No,5,-1,Hit,0.576731445733,True,False,stimulusRORE28_2IFCnew_2019_Jun_11_1716_675,stimulusRORE28_2IFCnew_2019_Jun_11_1716_676,2019_Jun_11_1716,2IFCnew,2,RORE28,
2IFCnew,38,0,38,0,-1,1,No,5,-1,Hit,0.659571026452,True,False,stimulusRORE28_2IFCnew_2019_Jun_11_1716_677,stimulusRORE28_2IFCnew_2019_Jun_11_1716_678,2019_Jun_11_1716,2IFCnew,2,RORE28,
2IFCnew,39,0,39,0,-1,1,No,5,-1,Hit,0.567765895743,True,False,stimulusRORE28_2IFCnew_2019_Jun_11_1716_679,stimulusRORE28_2IFCnew_2019_Jun_11_1716_680,2019_Jun_11_1716,2IFCnew,2,RORE28,
2IFCnew,40,0,40,0,-1,2,No,5,-1,False Alarm,0.640469864011,False,True,stimulusRORE28_2IFCnew_2019_Jun_11_1716_681,stimulusRORE28_2IFCnew_2019_Jun_11_1716_682,2019_Jun_11_1716,2IFCnew,2,RORE28,
2IFCnew,41,0,41,0,-1,4,No,5,-1,Miss,0.401652784552,True,False,stimulusRORE28_2IFCnew_2019_Jun_11_1716_683,stimulusRORE28_2IFCnew_2019_Jun_11_1716_684,2019_Jun_11_1716,2IFCnew,2,RORE28,
2IFCnew,42,0,42,0,-1,4,No,5,-1,Miss,0.666495741811,True,False,stimulusRORE28_2IFCnew_2019_Jun_11_1716_685,stimulusRORE28_2IFCnew_2019_Jun_11_1716_686,2019_Jun_11_1716,2IFCnew,2,RORE28,
2IFCnew,43,0,43,0,-1,1,No,5,-1,Hit,0.63594357064,True,False,stimulusRORE28_2IFCnew_2019_Jun_11_1716_687,stimulusRORE28_2IFCnew_2019_Jun_11_1716_688,2019_Jun_11_1716,2IFCnew,2,RORE28,
2IFCnew,44,0,44,0,-1,1,No,5,-1,Hit,0.634500494227,True,False,stimulusRORE28_2IFCnew_2019_Jun_11_1716_689,stimulusRORE28_2IFCnew_2019_Jun_11_1716_690,2019_Jun_11_1716,2IFCnew,2,RORE28,
2IFCnew,45,0,45,0,-1,4,No,5,-1,Miss,0.533894853666,True,False,stimulusRORE28_2IFCnew_2019_Jun_11_1716_691,stimulusRORE28_2IFCnew_2019_Jun_11_1716_692,2019_Jun_11_1716,2IFCnew,2,RORE28,
2IFCnew,46,0,46,0,-1,3,No,5,-1,Correct Rejection,0.53465642035,False,True,stimulusRORE28_2IFCnew_2019_Jun_11_1716_693,stimulusRORE28_2IFCnew_2019_Jun_11_1716_694,2019_Jun_11_1716,2IFCnew,2,RORE28,
2IFCnew,47,0,47,0,-1,1,No,5,-1,Hit,0.60101331491,True,False,stimulusRORE28_2IFCnew_2019_Jun_11_1716_695,stimulusRORE28_2IFCnew_2019_Jun_11_1716_696,2019_Jun_11_1716,2IFCnew,2,RORE28,
2IFCnew,48,0,48,0,-1,1,No,5,-1,Hit,0.539105120115,True,False,stimulusRORE28_2IFCnew_2019_Jun_11_1716_697,stimulusRORE28_2IFCnew_2019_Jun_11_1716_698,2019_Jun_11_1716,2IFCnew,2,RORE28,
2IFCnew,49,0,49,0,-1,3,No,5,-1,Correct Rejection,0.534275021404,False,True,stimulusRORE28_2IFCnew_2019_Jun_11_1716_699,stimulusRORE28_2IFCnew_2019_Jun_11_1716_700,2019_Jun_11_1716,2IFCnew,2,RORE28,
2IFCnew,50,0,50,0,-1,2,No,5,-1,False Alarm,0.533811922651,False,True,stimulusRORE28_2IFCnew_2019_Jun_11_1716_701,stimulusRORE28_2IFCnew_2019_Jun_11_1716_702,2019_Jun_11_1716,2IFCnew,2,RORE28,
2IFCnew,51,0,51,0,-1,1,No,5,-1,Hit,0.669080142397,True,False,stimulusRORE28_2IFCnew_2019_Jun_11_1716_703,stimulusRORE28_2IFCnew_2019_Jun_11_1716_704,2019_Jun_11_1716,2IFCnew,2,RORE28,
2IFCnew,52,0,52,0,-1,3,No,5,-1,Correct Rejection,0.605060087983,False,True,stimulusRORE28_2IFCnew_2019_Jun_11_1716_705,stimulusRORE28_2IFCnew_2019_Jun_11_1716_706,2019_Jun_11_1716,2IFCnew,2,RORE28,
2IFCnew,53,0,53,0,-1,3,No,5,-1,Correct Rejection,0.633665439207,False,True,stimulusRORE28_2IFCnew_2019_Jun_11_1716_707,stimulusRORE28_2IFCnew_2019_Jun_11_1716_708,2019_Jun_11_1716,2IFCnew,2,RORE28,
2IFCnew,54,0,54,0,-1,3,No,5,-1,Correct Rejection,0.764441441279,False,True,stimulusRORE28_2IFCnew_2019_Jun_11_1716_709,stimulusRORE28_2IFCnew_2019_Jun_11_1716_710,2019_Jun_11_1716,2IFCnew,2,RORE28,
2IFCnew,55,0,55,0,-1,0,No,5,-1,No Answer,-1,True,False,stimulusRORE28_2IFCnew_2019_Jun_11_1716_711,stimulusRORE28_2IFCnew_2019_Jun_11_1716_712,2019_Jun_11_1716,2IFCnew,2,RORE28,
2IFCnew,56,0,56,0,-1,2,No,5,-1,False Alarm,0.691872132476,False,True,stimulusRORE28_2IFCnew_2019_Jun_11_1716_713,stimulusRORE28_2IFCnew_2019_Jun_11_1716_714,2019_Jun_11_1716,2IFCnew,2,RORE28,
2IFCnew,57,0,57,0,-1,3,No,5,-1,Correct Rejection,0.56795310555,False,True,stimulusRORE28_2IFCnew_2019_Jun_11_1716_715,stimulusRORE28_2IFCnew_2019_Jun_11_1716_716,2019_Jun_11_1716,2IFCnew,2,RORE28,
2IFCnew,58,0,58,0,0.635760466568,2,Yes,5,-1,Correct Rejection,0.63278645603,False,True,stimulusRORE28_2IFCnew_2019_Jun_11_1716_717,stimulusRORE28_2IFCnew_2019_Jun_11_1716_718,2019_Jun_11_1716,2IFCnew,2,RORE28,
2IFCnew,59,0,59,0,-1,0,Yes,5,-1,No Answer,-1,True,False,stimulusRORE28_2IFCnew_2019_Jun_11_1716_719,stimulusRORE28_2IFCnew_2019_Jun_11_1716_720,2019_Jun_11_1716,2IFCnew,2,RORE28,
2IFCnew,60,0,60,0,-1,0,Yes,5,-1,No Answer,-1,True,False,stimulusRORE28_2IFCnew_2019_Jun_11_1716_721,stimulusRORE28_2IFCnew_2019_Jun_11_1716_722,2019_Jun_11_1716,2IFCnew,2,RORE28,
2IFCnew,61,0,61,0,-1,4,Yes,5,-1,Miss,0.0985685009509,True,False,stimulusRORE28_2IFCnew_2019_Jun_11_1716_723,stimulusRORE28_2IFCnew_2019_Jun_11_1716_724,2019_Jun_11_1716,2IFCnew,2,RORE28,
2IFCnew,62,0,62,0,-1,1,Yes,5,-1,Hit,0.634639670141,True,False,stimulusRORE28_2IFCnew_2019_Jun_11_1716_725,stimulusRORE28_2IFCnew_2019_Jun_11_1716_726,2019_Jun_11_1716,2IFCnew,2,RORE28,
2IFCnew,63,0,63,0,-1,3,Yes,5,-1,Correct Rejection,0.636528191622,False,True,stimulusRORE28_2IFCnew_2019_Jun_11_1716_727,stimulusRORE28_2IFCnew_2019_Jun_11_1716_728,2019_Jun_11_1716,2IFCnew,2,RORE28,
2IFCnew,64,0,64,0,-1,2,Yes,5,-1,False Alarm,0.567812287714,False,True,stimulusRORE28_2IFCnew_2019_Jun_11_1716_729,stimulusRORE28_2IFCnew_2019_Jun_11_1716_730,2019_Jun_11_1716,2IFCnew,2,RORE28,
2IFCnew,65,0,65,0,-1,1,Yes,5,-1,Hit,0.502136081923,True,False,stimulusRORE28_2IFCnew_2019_Jun_11_1716_731,stimulusRORE28_2IFCnew_2019_Jun_11_1716_732,2019_Jun_11_1716,2IFCnew,2,RORE28,
2IFCnew,66,0,66,0,-1,2,Yes,5,-1,False Alarm,0.541977724992,False,True,stimulusRORE28_2IFCnew_2019_Jun_11_1716_733,stimulusRORE28_2IFCnew_2019_Jun_11_1716_734,2019_Jun_11_1716,2IFCnew,2,RORE28,
2IFCnew,67,0,67,0,-1,1,Yes,5,-1,Hit,0.465104229748,True,False,stimulusRORE28_2IFCnew_2019_Jun_11_1716_735,stimulusRORE28_2IFCnew_2019_Jun_11_1716_736,2019_Jun_11_1716,2IFCnew,2,RORE28,
2IFCnew,68,0,68,0,-1,2,Yes,5,-1,False Alarm,0.631480912678,False,True,stimulusRORE28_2IFCnew_2019_Jun_11_1716_737,stimulusRORE28_2IFCnew_2019_Jun_11_1716_738,2019_Jun_11_1716,2IFCnew,2,RORE28,
2IFCnew,69,0,69,0,-1,1,Yes,5,-1,Hit,0.643609325401,True,False,stimulusRORE28_2IFCnew_2019_Jun_11_1716_739,stimulusRORE28_2IFCnew_2019_Jun_11_1716_740,2019_Jun_11_1716,2IFCnew,2,RORE28,
2IFCnew,70,0,70,0,0.800991309341,6,No,5,-1,Miss,0.668879794423,True,False,stimulusRORE28_2IFCnew_2019_Jun_11_1716_741,stimulusRORE28_2IFCnew_2019_Jun_11_1716_742,2019_Jun_11_1716,2IFCnew,2,RORE28,
2IFCnew,71,0,71,0,-1,2,No,5,-1,False Alarm,0.866595669184,False,True,stimulusRORE28_2IFCnew_2019_Jun_11_1716_743,stimulusRORE28_2IFCnew_2019_Jun_11_1716_744,2019_Jun_11_1716,2IFCnew,2,RORE28,
2IFCnew,72,0,72,0,0.533121791668,5,Yes,5,-1,False Alarm,0.533504422288,False,True,stimulusRORE28_2IFCnew_2019_Jun_11_1716_745,stimulusRORE28_2IFCnew_2019_Jun_11_1716_746,2019_Jun_11_1716,2IFCnew,2,RORE28,
2IFCnew,73,0,73,0,-1,1,Yes,5,-1,Hit,0.701102896594,True,False,stimulusRORE28_2IFCnew_2019_Jun_11_1716_747,stimulusRORE28_2IFCnew_2019_Jun_11_1716_748,2019_Jun_11_1716,2IFCnew,2,RORE28,
2IFCnew,74,0,74,0,-1,1,Yes,5,-1,Hit,0.704156553838,True,False,stimulusRORE28_2IFCnew_2019_Jun_11_1716_749,stimulusRORE28_2IFCnew_2019_Jun_11_1716_750,2019_Jun_11_1716,2IFCnew,2,RORE28,
2IFCnew,0,0,0,0,-1,3,Yes,2.2,-1,Correct Rejection,0.833799852524,False,True,stimulusRORE28_2IFCnew_2019_Jun_11_1716_751,stimulusRORE28_2IFCnew_2019_Jun_11_1716_752,2019_Jun_11_1716,2IFCnew,2,RORE28,
2IFCnew,1,0,1,0,-1,2,Yes,2.2,-1,False Alarm,0.60054241633,False,True,stimulusRORE28_2IFCnew_2019_Jun_11_1716_753,stimulusRORE28_2IFCnew_2019_Jun_11_1716_754,2019_Jun_11_1716,2IFCnew,2,RORE28,
2IFCnew,2,0,2,0,-1,4,Yes,2.2,-1,Miss,0.66738909483,True,False,stimulusRORE28_2IFCnew_2019_Jun_11_1716_755,stimulusRORE28_2IFCnew_2019_Jun_11_1716_756,2019_Jun_11_1716,2IFCnew,2,RORE28,
2IFCnew,3,0,3,0,-1,1,Yes,2.2,-1,Hit,0.667038486339,True,False,stimulusRORE28_2IFCnew_2019_Jun_11_1716_757,stimulusRORE28_2IFCnew_2019_Jun_11_1716_758,2019_Jun_11_1716,2IFCnew,2,RORE28,
2IFCnew,4,0,4,0,-1,1,Yes,2.2,-1,Hit,0.703146604821,True,False,stimulusRORE28_2IFCnew_2019_Jun_11_1716_759,stimulusRORE28_2IFCnew_2019_Jun_11_1716_760,2019_Jun_11_1716,2IFCnew,2,RORE28,
2IFCnew,5,0,5,0,-1,4,Yes,2.2,-1,Miss,0.56589010125,True,False,stimulusRORE28_2IFCnew_2019_Jun_11_1716_761,stimulusRORE28_2IFCnew_2019_Jun_11_1716_762,2019_Jun_11_1716,2IFCnew,2,RORE28,
2IFCnew,6,0,6,0,-1,1,Yes,2.2,-1,Hit,0.601129910443,True,False,stimulusRORE28_2IFCnew_2019_Jun_11_1716_763,stimulusRORE28_2IFCnew_2019_Jun_11_1716_764,2019_Jun_11_1716,2IFCnew,2,RORE28,
2IFCnew,7,0,7,0,-1,3,Yes,2.2,-1,Correct Rejection,0.80989609845,False,True,stimulusRORE28_2IFCnew_2019_Jun_11_1716_765,stimulusRORE28_2IFCnew_2019_Jun_11_1716_766,2019_Jun_11_1716,2IFCnew,2,RORE28,
2IFCnew,8,0,8,0,-1,3,Yes,2.2,-1,Correct Rejection,0.628864078782,False,True,stimulusRORE28_2IFCnew_2019_Jun_11_1716_767,stimulusRORE28_2IFCnew_2019_Jun_11_1716_768,2019_Jun_11_1716,2IFCnew,2,RORE28,
2IFCnew,9,0,9,0,0.767692161258,6,No,2.2,-1,Miss,0.404864913318,True,False,stimulusRORE28_2IFCnew_2019_Jun_11_1716_769,stimulusRORE28_2IFCnew_2019_Jun_11_1716_770,2019_Jun_11_1716,2IFCnew,2,RORE28,
2IFCnew,10,0,10,0,-1,4,No,2.2,-1,Miss,0.701114802621,True,False,stimulusRORE28_2IFCnew_2019_Jun_11_1716_771,stimulusRORE28_2IFCnew_2019_Jun_11_1716_772,2019_Jun_11_1716,2IFCnew,2,RORE28,
2IFCnew,11,0,11,0,-1,1,No,2.2,-1,Hit,0.90115848463,True,False,stimulusRORE28_2IFCnew_2019_Jun_11_1716_773,stimulusRORE28_2IFCnew_2019_Jun_11_1716_774,2019_Jun_11_1716,2IFCnew,2,RORE28,
2IFCnew,12,0,12,0,-1,3,No,2.2,-1,Correct Rejection,0.63491268456,False,True,stimulusRORE28_2IFCnew_2019_Jun_11_1716_775,stimulusRORE28_2IFCnew_2019_Jun_11_1716_776,2019_Jun_11_1716,2IFCnew,2,RORE28,
2IFCnew,13,0,13,0,-1,4,No,2.2,-1,Miss,0.670361873694,True,False,stimulusRORE28_2IFCnew_2019_Jun_11_1716_777,stimulusRORE28_2IFCnew_2019_Jun_11_1716_778,2019_Jun_11_1716,2IFCnew,2,RORE28,
2IFCnew,14,0,14,0,-1,1,No,2.2,-1,Hit,0.602815621067,True,False,stimulusRORE28_2IFCnew_2019_Jun_11_1716_779,stimulusRORE28_2IFCnew_2019_Jun_11_1716_780,2019_Jun_11_1716,2IFCnew,2,RORE28,
2IFCnew,15,0,15,0,-1,2,No,2.2,-1,False Alarm,0.601444801316,False,True,stimulusRORE28_2IFCnew_2019_Jun_11_1716_781,stimulusRORE28_2IFCnew_2019_Jun_11_1716_782,2019_Jun_11_1716,2IFCnew,2,RORE28,
2IFCnew,16,0,16,0,-1,4,No,2.2,-1,Miss,0.601501867175,True,False,stimulusRORE28_2IFCnew_2019_Jun_11_1716_783,stimulusRORE28_2IFCnew_2019_Jun_11_1716_784,2019_Jun_11_1716,2IFCnew,2,RORE28,
2IFCnew,17,0,17,0,-1,3,No,2.2,-1,Correct Rejection,0.605003021657,False,True,stimulusRORE28_2IFCnew_2019_Jun_11_1716_785,stimulusRORE28_2IFCnew_2019_Jun_11_1716_786,2019_Jun_11_1716,2IFCnew,2,RORE28,
2IFCnew,18,0,18,0,-1,4,No,2.2,-1,Miss,0.569615414832,True,False,stimulusRORE28_2IFCnew_2019_Jun_11_1716_787,stimulusRORE28_2IFCnew_2019_Jun_11_1716_788,2019_Jun_11_1716,2IFCnew,2,RORE28,
2IFCnew,19,0,19,0,0.63563566003,8,No,2.2,-1,Correct Rejection,0.599884718191,False,True,stimulusRORE28_2IFCnew_2019_Jun_11_1716_789,stimulusRORE28_2IFCnew_2019_Jun_11_1716_790,2019_Jun_11_1716,2IFCnew,2,RORE28,
2IFCnew,20,0,20,0,0.568815256935,5,Yes,2.2,-1,False Alarm,0.677792383824,False,True,stimulusRORE28_2IFCnew_2019_Jun_11_1716_791,stimulusRORE28_2IFCnew_2019_Jun_11_1716_792,2019_Jun_11_1716,2IFCnew,2,RORE28,
2IFCnew,21,0,21,0,-1,3,Yes,2.2,-1,Correct Rejection,0.601958807092,False,True,stimulusRORE28_2IFCnew_2019_Jun_11_1716_793,stimulusRORE28_2IFCnew_2019_Jun_11_1716_794,2019_Jun_11_1716,2IFCnew,2,RORE28,
2IFCnew,22,0,22,0,-1,3,Yes,2.2,-1,Correct Rejection,0.569323104806,False,True,stimulusRORE28_2IFCnew_2019_Jun_11_1716_795,stimulusRORE28_2IFCnew_2019_Jun_11_1716_796,2019_Jun_11_1716,2IFCnew,2,RORE28,
2IFCnew,23,0,23,0,-1,4,Yes,2.2,-1,Miss,0.634252523538,True,False,stimulusRORE28_2IFCnew_2019_Jun_11_1716_797,stimulusRORE28_2IFCnew_2019_Jun_11_1716_798,2019_Jun_11_1716,2IFCnew,2,RORE28,
2IFCnew,24,0,24,0,-1,4,Yes,2.2,-1,Miss,0.567572527565,True,False,stimulusRORE28_2IFCnew_2019_Jun_11_1716_799,stimulusRORE28_2IFCnew_2019_Jun_11_1716_800,2019_Jun_11_1716,2IFCnew,2,RORE28,
2IFCnew,25,0,25,0,-1,3,Yes,2.2,-1,Correct Rejection,0.433005524334,False,True,stimulusRORE28_2IFCnew_2019_Jun_11_1716_801,stimulusRORE28_2IFCnew_2019_Jun_11_1716_802,2019_Jun_11_1716,2IFCnew,2,RORE28,
2IFCnew,26,0,26,0,-1,3,Yes,2.2,-1,Correct Rejection,0.33480282221,False,True,stimulusRORE28_2IFCnew_2019_Jun_11_1716_803,stimulusRORE28_2IFCnew_2019_Jun_11_1716_804,2019_Jun_11_1716,2IFCnew,2,RORE28,
2IFCnew,27,0,27,0,0.834001432173,6,No,2.2,-1,Miss,0.513043524697,True,False,stimulusRORE28_2IFCnew_2019_Jun_11_1716_805,stimulusRORE28_2IFCnew_2019_Jun_11_1716_806,2019_Jun_11_1716,2IFCnew,2,RORE28,
2IFCnew,28,0,28,0,-1,3,No,2.2,-1,Correct Rejection,0.568241721019,False,True,stimulusRORE28_2IFCnew_2019_Jun_11_1716_807,stimulusRORE28_2IFCnew_2019_Jun_11_1716_808,2019_Jun_11_1716,2IFCnew,2,RORE28,
2IFCnew,29,0,29,0,-1,0,No,2.2,-1,No Answer,-1,True,False,stimulusRORE28_2IFCnew_2019_Jun_11_1716_809,stimulusRORE28_2IFCnew_2019_Jun_11_1716_810,2019_Jun_11_1716,2IFCnew,2,RORE28,
2IFCnew,30,0,30,0,-1,4,No,2.2,-1,Miss,0.366390805691,True,False,stimulusRORE28_2IFCnew_2019_Jun_11_1716_811,stimulusRORE28_2IFCnew_2019_Jun_11_1716_812,2019_Jun_11_1716,2IFCnew,2,RORE28,
2IFCnew,31,0,31,0,-1,3,No,2.2,-1,Correct Rejection,0.499533616938,False,True,stimulusRORE28_2IFCnew_2019_Jun_11_1716_813,stimulusRORE28_2IFCnew_2019_Jun_11_1716_814,2019_Jun_11_1716,2IFCnew,2,RORE28,
2IFCnew,32,0,32,0,0.767744300887,8,No,2.2,-1,Correct Rejection,0.401177369989,False,True,stimulusRORE28_2IFCnew_2019_Jun_11_1716_815,stimulusRORE28_2IFCnew_2019_Jun_11_1716_816,2019_Jun_11_1716,2IFCnew,2,RORE28,
2IFCnew,33,0,33,0,-1,4,No,2.2,-1,Miss,0.56864077365,True,False,stimulusRORE28_2IFCnew_2019_Jun_11_1716_817,stimulusRORE28_2IFCnew_2019_Jun_11_1716_818,2019_Jun_11_1716,2IFCnew,2,RORE28,
2IFCnew,34,0,34,0,-1,3,No,2.2,-1,Correct Rejection,0.368614334147,False,True,stimulusRORE28_2IFCnew_2019_Jun_11_1716_819,stimulusRORE28_2IFCnew_2019_Jun_11_1716_820,2019_Jun_11_1716,2IFCnew,2,RORE28,
2IFCnew,35,0,35,0,-1,0,No,2.2,-1,No Answer,-1,True,False,stimulusRORE28_2IFCnew_2019_Jun_11_1716_821,stimulusRORE28_2IFCnew_2019_Jun_11_1716_822,2019_Jun_11_1716,2IFCnew,2,RORE28,
2IFCnew,36,0,36,0,-1,2,No,2.2,-1,False Alarm,0.532544561196,False,True,stimulusRORE28_2IFCnew_2019_Jun_11_1716_823,stimulusRORE28_2IFCnew_2019_Jun_11_1716_824,2019_Jun_11_1716,2IFCnew,2,RORE28,
2IFCnew,37,0,37,0,-1,3,No,2.2,-1,Correct Rejection,0.477380850818,False,True,stimulusRORE28_2IFCnew_2019_Jun_11_1716_825,stimulusRORE28_2IFCnew_2019_Jun_11_1716_826,2019_Jun_11_1716,2IFCnew,2,RORE28,
2IFCnew,38,0,38,0,-1,4,No,2.2,-1,Miss,0.60964919487,True,False,stimulusRORE28_2IFCnew_2019_Jun_11_1716_827,stimulusRORE28_2IFCnew_2019_Jun_11_1716_828,2019_Jun_11_1716,2IFCnew,2,RORE28,
2IFCnew,39,0,39,0,-1,3,No,2.2,-1,Correct Rejection,0.52916451823,False,True,stimulusRORE28_2IFCnew_2019_Jun_11_1716_829,stimulusRORE28_2IFCnew_2019_Jun_11_1716_830,2019_Jun_11_1716,2IFCnew,2,RORE28,
2IFCnew,40,0,40,0,-1,1,No,2.2,-1,Hit,0.636755224783,True,False,stimulusRORE28_2IFCnew_2019_Jun_11_1716_831,stimulusRORE28_2IFCnew_2019_Jun_11_1716_832,2019_Jun_11_1716,2IFCnew,2,RORE28,
2IFCnew,41,0,41,0,-1,3,No,2.2,-1,Correct Rejection,0.4998723194,False,True,stimulusRORE28_2IFCnew_2019_Jun_11_1716_833,stimulusRORE28_2IFCnew_2019_Jun_11_1716_834,2019_Jun_11_1716,2IFCnew,2,RORE28,
2IFCnew,42,0,42,0,-1,3,No,2.2,-1,Correct Rejection,0.501540787052,False,True,stimulusRORE28_2IFCnew_2019_Jun_11_1716_835,stimulusRORE28_2IFCnew_2019_Jun_11_1716_836,2019_Jun_11_1716,2IFCnew,2,RORE28,
2IFCnew,43,0,43,0,0.865618153941,7,Yes,2.2,-1,Hit,0.568634205032,True,False,stimulusRORE28_2IFCnew_2019_Jun_11_1716_837,stimulusRORE28_2IFCnew_2019_Jun_11_1716_838,2019_Jun_11_1716,2IFCnew,2,RORE28,
2IFCnew,44,0,44,0,-1,1,Yes,2.2,-1,Hit,0.670170558151,True,False,stimulusRORE28_2IFCnew_2019_Jun_11_1716_839,stimulusRORE28_2IFCnew_2019_Jun_11_1716_840,2019_Jun_11_1716,2IFCnew,2,RORE28,
2IFCnew,45,0,45,0,-1,1,Yes,2.2,-1,Hit,0.534523402806,True,False,stimulusRORE28_2IFCnew_2019_Jun_11_1716_841,stimulusRORE28_2IFCnew_2019_Jun_11_1716_842,2019_Jun_11_1716,2IFCnew,2,RORE28,
2IFCnew,46,0,46,0,-1,3,Yes,2.2,-1,Correct Rejection,0.538291824516,False,True,stimulusRORE28_2IFCnew_2019_Jun_11_1716_843,stimulusRORE28_2IFCnew_2019_Jun_11_1716_844,2019_Jun_11_1716,2IFCnew,2,RORE28,
2IFCnew,47,0,47,0,-1,3,Yes,2.2,-1,Correct Rejection,0.605993674137,False,True,stimulusRORE28_2IFCnew_2019_Jun_11_1716_845,stimulusRORE28_2IFCnew_2019_Jun_11_1716_846,2019_Jun_11_1716,2IFCnew,2,RORE28,
2IFCnew,48,0,48,0,-1,1,Yes,2.2,-1,Hit,0.602364428807,True,False,stimulusRORE28_2IFCnew_2019_Jun_11_1716_847,stimulusRORE28_2IFCnew_2019_Jun_11_1716_848,2019_Jun_11_1716,2IFCnew,2,RORE28,
2IFCnew,49,0,49,0,-1,1,Yes,2.2,-1,Hit,0.636473588645,True,False,stimulusRORE28_2IFCnew_2019_Jun_11_1716_849,stimulusRORE28_2IFCnew_2019_Jun_11_1716_850,2019_Jun_11_1716,2IFCnew,2,RORE28,
2IFCnew,50,0,50,0,-1,3,Yes,2.2,-1,Correct Rejection,0.468136948999,False,True,stimulusRORE28_2IFCnew_2019_Jun_11_1716_851,stimulusRORE28_2IFCnew_2019_Jun_11_1716_852,2019_Jun_11_1716,2IFCnew,2,RORE28,
2IFCnew,51,0,51,0,-1,4,Yes,2.2,-1,Miss,0.698069355916,True,False,stimulusRORE28_2IFCnew_2019_Jun_11_1716_853,stimulusRORE28_2IFCnew_2019_Jun_11_1716_854,2019_Jun_11_1716,2IFCnew,2,RORE28,
2IFCnew,52,0,52,0,0.566417655442,2,Yes,2.2,-1,Correct Rejection,0.561103110202,False,True,stimulusRORE28_2IFCnew_2019_Jun_11_1716_855,stimulusRORE28_2IFCnew_2019_Jun_11_1716_856,2019_Jun_11_1716,2IFCnew,2,RORE28,
2IFCnew,53,0,53,0,-1,0,Yes,2.2,-1,No Answer,-1,True,False,stimulusRORE28_2IFCnew_2019_Jun_11_1716_857,stimulusRORE28_2IFCnew_2019_Jun_11_1716_858,2019_Jun_11_1716,2IFCnew,2,RORE28,
2IFCnew,54,0,54,0,-1,3,Yes,2.2,-1,Correct Rejection,0.669489048421,False,True,stimulusRORE28_2IFCnew_2019_Jun_11_1716_859,stimulusRORE28_2IFCnew_2019_Jun_11_1716_860,2019_Jun_11_1716,2IFCnew,2,RORE28,
2IFCnew,55,0,55,0,-1,3,Yes,2.2,-1,Correct Rejection,0.569709019735,False,True,stimulusRORE28_2IFCnew_2019_Jun_11_1716_861,stimulusRORE28_2IFCnew_2019_Jun_11_1716_862,2019_Jun_11_1716,2IFCnew,2,RORE28,
2IFCnew,56,0,56,0,-1,2,Yes,2.2,-1,False Alarm,0.670147567522,False,True,stimulusRORE28_2IFCnew_2019_Jun_11_1716_863,stimulusRORE28_2IFCnew_2019_Jun_11_1716_864,2019_Jun_11_1716,2IFCnew,2,RORE28,
2IFCnew,57,0,57,0,-1,4,Yes,2.2,-1,Miss,0.535471358802,True,False,stimulusRORE28_2IFCnew_2019_Jun_11_1716_865,stimulusRORE28_2IFCnew_2019_Jun_11_1716_866,2019_Jun_11_1716,2IFCnew,2,RORE28,
2IFCnew,58,0,58,0,-1,3,Yes,2.2,-1,Correct Rejection,0.501967346761,False,True,stimulusRORE28_2IFCnew_2019_Jun_11_1716_867,stimulusRORE28_2IFCnew_2019_Jun_11_1716_868,2019_Jun_11_1716,2IFCnew,2,RORE28,
2IFCnew,59,0,59,0,-1,3,Yes,2.2,-1,Correct Rejection,0.534035261255,False,True,stimulusRORE28_2IFCnew_2019_Jun_11_1716_869,stimulusRORE28_2IFCnew_2019_Jun_11_1716_870,2019_Jun_11_1716,2IFCnew,2,RORE28,
2IFCnew,60,0,60,0,-1,3,Yes,2.2,-1,Correct Rejection,0.465913420543,False,True,stimulusRORE28_2IFCnew_2019_Jun_11_1716_871,stimulusRORE28_2IFCnew_2019_Jun_11_1716_872,2019_Jun_11_1716,2IFCnew,2,RORE28,
2IFCnew,61,0,61,0,-1,4,Yes,2.2,-1,Miss,0.458125322126,True,False,stimulusRORE28_2IFCnew_2019_Jun_11_1716_873,stimulusRORE28_2IFCnew_2019_Jun_11_1716_874,2019_Jun_11_1716,2IFCnew,2,RORE28,
2IFCnew,62,0,62,0,-1,1,Yes,2.2,-1,Hit,0.668672468048,True,False,stimulusRORE28_2IFCnew_2019_Jun_11_1716_875,stimulusRORE28_2IFCnew_2019_Jun_11_1716_876,2019_Jun_11_1716,2IFCnew,2,RORE28,
2IFCnew,63,0,63,0,-1,3,Yes,2.2,-1,Correct Rejection,0.434701087885,False,True,stimulusRORE28_2IFCnew_2019_Jun_11_1716_877,stimulusRORE28_2IFCnew_2019_Jun_11_1716_878,2019_Jun_11_1716,2IFCnew,2,RORE28,
2IFCnew,64,0,64,0,-1,3,Yes,2.2,-1,Correct Rejection,0.569826436695,False,True,stimulusRORE28_2IFCnew_2019_Jun_11_1716_879,stimulusRORE28_2IFCnew_2019_Jun_11_1716_880,2019_Jun_11_1716,2IFCnew,2,RORE28,
2IFCnew,65,0,65,0,0.5312336809,8,No,2.2,-1,Correct Rejection,0.534349330701,False,True,stimulusRORE28_2IFCnew_2019_Jun_11_1716_881,stimulusRORE28_2IFCnew_2019_Jun_11_1716_882,2019_Jun_11_1716,2IFCnew,2,RORE28,
2IFCnew,66,0,66,0,-1,4,No,2.2,-1,Miss,0.633321810514,True,False,stimulusRORE28_2IFCnew_2019_Jun_11_1716_883,stimulusRORE28_2IFCnew_2019_Jun_11_1716_884,2019_Jun_11_1716,2IFCnew,2,RORE28,
2IFCnew,67,0,67,0,-1,3,No,2.2,-1,Correct Rejection,0.36599175306,False,True,stimulusRORE28_2IFCnew_2019_Jun_11_1716_885,stimulusRORE28_2IFCnew_2019_Jun_11_1716_886,2019_Jun_11_1716,2IFCnew,2,RORE28,
2IFCnew,68,0,68,0,-1,1,No,2.2,-1,Hit,0.703597386833,True,False,stimulusRORE28_2IFCnew_2019_Jun_11_1716_887,stimulusRORE28_2IFCnew_2019_Jun_11_1716_888,2019_Jun_11_1716,2IFCnew,2,RORE28,
2IFCnew,69,0,69,0,-1,3,No,2.2,-1,Correct Rejection,0.402042394504,False,True,stimulusRORE28_2IFCnew_2019_Jun_11_1716_889,stimulusRORE28_2IFCnew_2019_Jun_11_1716_890,2019_Jun_11_1716,2IFCnew,2,RORE28,
2IFCnew,70,0,70,0,-1,4,No,2.2,-1,Miss,0.535173710901,True,False,stimulusRORE28_2IFCnew_2019_Jun_11_1716_891,stimulusRORE28_2IFCnew_2019_Jun_11_1716_892,2019_Jun_11_1716,2IFCnew,2,RORE28,
2IFCnew,71,0,71,0,-1,4,No,2.2,-1,Miss,0.499715079553,True,False,stimulusRORE28_2IFCnew_2019_Jun_11_1716_893,stimulusRORE28_2IFCnew_2019_Jun_11_1716_894,2019_Jun_11_1716,2IFCnew,2,RORE28,
2IFCnew,72,0,72,0,-1,4,No,2.2,-1,Miss,0.56642956147,True,False,stimulusRORE28_2IFCnew_2019_Jun_11_1716_895,stimulusRORE28_2IFCnew_2019_Jun_11_1716_896,2019_Jun_11_1716,2IFCnew,2,RORE28,
2IFCnew,73,0,73,0,-1,4,No,2.2,-1,Miss,0.592682061717,True,False,stimulusRORE28_2IFCnew_2019_Jun_11_1716_897,stimulusRORE28_2IFCnew_2019_Jun_11_1716_898,2019_Jun_11_1716,2IFCnew,2,RORE28,
2IFCnew,74,0,74,0,-1,4,No,2.2,-1,Miss,0.443802529946,True,False,stimulusRORE28_2IFCnew_2019_Jun_11_1716_899,stimulusRORE28_2IFCnew_2019_Jun_11_1716_900,2019_Jun_11_1716,2IFCnew,2,RORE28,
2IFCnew,0,0,0,0,-1,4,No,3,-1,Miss,0.47107934719,True,False,stimulusRORE28_2IFCnew_2019_Jun_11_1716_901,stimulusRORE28_2IFCnew_2019_Jun_11_1716_902,2019_Jun_11_1716,2IFCnew,2,RORE28,
2IFCnew,1,0,1,0,-1,3,No,3,-1,Correct Rejection,0.367503801361,False,True,stimulusRORE28_2IFCnew_2019_Jun_11_1716_903,stimulusRORE28_2IFCnew_2019_Jun_11_1716_904,2019_Jun_11_1716,2IFCnew,2,RORE28,
2IFCnew,2,0,2,0,-1,4,No,3,-1,Miss,0.467344590928,True,False,stimulusRORE28_2IFCnew_2019_Jun_11_1716_905,stimulusRORE28_2IFCnew_2019_Jun_11_1716_906,2019_Jun_11_1716,2IFCnew,2,RORE28,
2IFCnew,3,0,3,0,-1,4,No,3,-1,Miss,0.428861041088,True,False,stimulusRORE28_2IFCnew_2019_Jun_11_1716_907,stimulusRORE28_2IFCnew_2019_Jun_11_1716_908,2019_Jun_11_1716,2IFCnew,2,RORE28,
2IFCnew,4,0,4,0,-1,1,No,3,-1,Hit,0.6000247146,True,False,stimulusRORE28_2IFCnew_2019_Jun_11_1716_909,stimulusRORE28_2IFCnew_2019_Jun_11_1716_910,2019_Jun_11_1716,2IFCnew,2,RORE28,
2IFCnew,5,0,5,0,-1,4,No,3,-1,Miss,0.666993736755,True,False,stimulusRORE28_2IFCnew_2019_Jun_11_1716_911,stimulusRORE28_2IFCnew_2019_Jun_11_1716_912,2019_Jun_11_1716,2IFCnew,2,RORE28,
2IFCnew,6,0,6,0,-1,1,No,3,-1,Hit,0.799247301184,True,False,stimulusRORE28_2IFCnew_2019_Jun_11_1716_913,stimulusRORE28_2IFCnew_2019_Jun_11_1716_914,2019_Jun_11_1716,2IFCnew,2,RORE28,
2IFCnew,7,0,7,0,-1,1,No,3,-1,Hit,0.535885601304,True,False,stimulusRORE28_2IFCnew_2019_Jun_11_1716_915,stimulusRORE28_2IFCnew_2019_Jun_11_1716_916,2019_Jun_11_1716,2IFCnew,2,RORE28,
2IFCnew,8,0,8,0,-1,2,No,3,-1,False Alarm,0.559582029004,False,True,stimulusRORE28_2IFCnew_2019_Jun_11_1716_917,stimulusRORE28_2IFCnew_2019_Jun_11_1716_918,2019_Jun_11_1716,2IFCnew,2,RORE28,
2IFCnew,9,0,9,0,-1,2,No,3,-1,False Alarm,0.533392753452,False,True,stimulusRORE28_2IFCnew_2019_Jun_11_1716_919,stimulusRORE28_2IFCnew_2019_Jun_11_1716_920,2019_Jun_11_1716,2IFCnew,2,RORE28,
2IFCnew,10,0,10,0,-1,4,No,3,-1,Miss,0.433204229455,True,False,stimulusRORE28_2IFCnew_2019_Jun_11_1716_921,stimulusRORE28_2IFCnew_2019_Jun_11_1716_922,2019_Jun_11_1716,2IFCnew,2,RORE28,
2IFCnew,11,0,11,0,-1,1,No,3,-1,Hit,0.602072529029,True,False,stimulusRORE28_2IFCnew_2019_Jun_11_1716_923,stimulusRORE28_2IFCnew_2019_Jun_11_1716_924,2019_Jun_11_1716,2IFCnew,2,RORE28,
2IFCnew,12,0,12,0,-1,2,No,3,-1,False Alarm,0.669200022239,False,True,stimulusRORE28_2IFCnew_2019_Jun_11_1716_925,stimulusRORE28_2IFCnew_2019_Jun_11_1716_926,2019_Jun_11_1716,2IFCnew,2,RORE28,
2IFCnew,13,0,13,0,-1,4,No,3,-1,Miss,0.535501328763,True,False,stimulusRORE28_2IFCnew_2019_Jun_11_1716_927,stimulusRORE28_2IFCnew_2019_Jun_11_1716_928,2019_Jun_11_1716,2IFCnew,2,RORE28,
2IFCnew,14,0,14,0,-1,4,No,3,-1,Miss,0.601072844584,True,False,stimulusRORE28_2IFCnew_2019_Jun_11_1716_929,stimulusRORE28_2IFCnew_2019_Jun_11_1716_930,2019_Jun_11_1716,2IFCnew,2,RORE28,
2IFCnew,15,0,15,0,-1,1,No,3,-1,Hit,0.639527245425,True,False,stimulusRORE28_2IFCnew_2019_Jun_11_1716_931,stimulusRORE28_2IFCnew_2019_Jun_11_1716_932,2019_Jun_11_1716,2IFCnew,2,RORE28,
2IFCnew,16,0,16,0,-1,1,No,3,-1,Hit,0.634282903746,True,False,stimulusRORE28_2IFCnew_2019_Jun_11_1716_933,stimulusRORE28_2IFCnew_2019_Jun_11_1716_934,2019_Jun_11_1716,2IFCnew,2,RORE28,
2IFCnew,17,0,17,0,-1,1,No,3,-1,Hit,0.500696700066,True,False,stimulusRORE28_2IFCnew_2019_Jun_11_1716_935,stimulusRORE28_2IFCnew_2019_Jun_11_1716_936,2019_Jun_11_1716,2IFCnew,2,RORE28,
2IFCnew,18,0,18,0,0.568490102421,5,Yes,3,-1,False Alarm,0.610583191738,False,True,stimulusRORE28_2IFCnew_2019_Jun_11_1716_937,stimulusRORE28_2IFCnew_2019_Jun_11_1716_938,2019_Jun_11_1716,2IFCnew,2,RORE28,
2IFCnew,19,0,19,0,-1,1,Yes,3,-1,Hit,0.501728407573,True,False,stimulusRORE28_2IFCnew_2019_Jun_11_1716_939,stimulusRORE28_2IFCnew_2019_Jun_11_1716_940,2019_Jun_11_1716,2IFCnew,2,RORE28,
2IFCnew,20,0,20,0,-1,1,Yes,3,-1,Hit,0.544828982092,True,False,stimulusRORE28_2IFCnew_2019_Jun_11_1716_941,stimulusRORE28_2IFCnew_2019_Jun_11_1716_942,2019_Jun_11_1716,2IFCnew,2,RORE28,
2IFCnew,21,0,21,0,-1,1,Yes,3,-1,Hit,0.533506885637,True,False,stimulusRORE28_2IFCnew_2019_Jun_11_1716_943,stimulusRORE28_2IFCnew_2019_Jun_11_1716_944,2019_Jun_11_1716,2IFCnew,2,RORE28,
2IFCnew,22,0,22,0,-1,3,Yes,3,-1,Correct Rejection,0.633051259443,False,True,stimulusRORE28_2IFCnew_2019_Jun_11_1716_945,stimulusRORE28_2IFCnew_2019_Jun_11_1716_946,2019_Jun_11_1716,2IFCnew,2,RORE28,
2IFCnew,23,0,23,0,-1,3,Yes,3,-1,Correct Rejection,0.471572415903,False,True,stimulusRORE28_2IFCnew_2019_Jun_11_1716_947,stimulusRORE28_2IFCnew_2019_Jun_11_1716_948,2019_Jun_11_1716,2IFCnew,2,RORE28,
2IFCnew,24,0,24,0,-1,4,Yes,3,-1,Miss,0.535520213656,True,False,stimulusRORE28_2IFCnew_2019_Jun_11_1716_949,stimulusRORE28_2IFCnew_2019_Jun_11_1716_950,2019_Jun_11_1716,2IFCnew,2,RORE28,
2IFCnew,25,0,25,0,-1,1,Yes,3,-1,Hit,0.539088698104,True,False,stimulusRORE28_2IFCnew_2019_Jun_11_1716_951,stimulusRORE28_2IFCnew_2019_Jun_11_1716_952,2019_Jun_11_1716,2IFCnew,2,RORE28,
2IFCnew,26,0,26,0,-1,1,Yes,3,-1,Hit,0.536489517894,True,False,stimulusRORE28_2IFCnew_2019_Jun_11_1716_953,stimulusRORE28_2IFCnew_2019_Jun_11_1716_954,2019_Jun_11_1716,2IFCnew,2,RORE28,
2IFCnew,27,0,27,0,-1,1,Yes,3,-1,Hit,0.532969478052,True,False,stimulusRORE28_2IFCnew_2019_Jun_11_1716_955,stimulusRORE28_2IFCnew_2019_Jun_11_1716_956,2019_Jun_11_1716,2IFCnew,2,RORE28,
2IFCnew,28,0,28,0,-1,2,Yes,3,-1,False Alarm,0.532883263193,False,True,stimulusRORE28_2IFCnew_2019_Jun_11_1716_957,stimulusRORE28_2IFCnew_2019_Jun_11_1716_958,2019_Jun_11_1716,2IFCnew,2,RORE28,
2IFCnew,29,0,29,0,0.668155177031,2,Yes,3,-1,Correct Rejection,0.565484479535,False,True,stimulusRORE28_2IFCnew_2019_Jun_11_1716_959,stimulusRORE28_2IFCnew_2019_Jun_11_1716_960,2019_Jun_11_1716,2IFCnew,2,RORE28,
2IFCnew,30,0,30,0,-1,1,Yes,3,-1,Hit,0.598770080134,True,False,stimulusRORE28_2IFCnew_2019_Jun_11_1716_961,stimulusRORE28_2IFCnew_2019_Jun_11_1716_962,2019_Jun_11_1716,2IFCnew,2,RORE28,
2IFCnew,31,0,31,0,-1,1,Yes,3,-1,Hit,0.500445033889,True,False,stimulusRORE28_2IFCnew_2019_Jun_11_1716_963,stimulusRORE28_2IFCnew_2019_Jun_11_1716_964,2019_Jun_11_1716,2IFCnew,2,RORE28,
2IFCnew,32,0,32,0,0.867724265903,2,Yes,3,-1,Correct Rejection,0.635446807835,False,True,stimulusRORE28_2IFCnew_2019_Jun_11_1716_965,stimulusRORE28_2IFCnew_2019_Jun_11_1716_966,2019_Jun_11_1716,2IFCnew,2,RORE28,
2IFCnew,33,0,33,0,-1,0,Yes,3,-1,No Answer,-1,False,True,stimulusRORE28_2IFCnew_2019_Jun_11_1716_967,stimulusRORE28_2IFCnew_2019_Jun_11_1716_968,2019_Jun_11_1716,2IFCnew,2,RORE28,
2IFCnew,34,0,34,0,-1,3,Yes,3,-1,Correct Rejection,0.50073652342,False,True,stimulusRORE28_2IFCnew_2019_Jun_11_1716_969,stimulusRORE28_2IFCnew_2019_Jun_11_1716_970,2019_Jun_11_1716,2IFCnew,2,RORE28,
2IFCnew,35,0,35,0,-1,2,Yes,3,-1,False Alarm,0.533522075973,False,True,stimulusRORE28_2IFCnew_2019_Jun_11_1716_971,stimulusRORE28_2IFCnew_2019_Jun_11_1716_972,2019_Jun_11_1716,2IFCnew,2,RORE28,
2IFCnew,36,0,36,0,-1,2,Yes,3,-1,False Alarm,0.431534940843,False,True,stimulusRORE28_2IFCnew_2019_Jun_11_1716_973,stimulusRORE28_2IFCnew_2019_Jun_11_1716_974,2019_Jun_11_1716,2IFCnew,2,RORE28,
2IFCnew,37,0,37,0,-1,3,Yes,3,-1,Correct Rejection,0.670439877547,False,True,stimulusRORE28_2IFCnew_2019_Jun_11_1716_975,stimulusRORE28_2IFCnew_2019_Jun_11_1716_976,2019_Jun_11_1716,2IFCnew,2,RORE28,
2IFCnew,38,0,38,0,-1,2,Yes,3,-1,False Alarm,0.602258507162,False,True,stimulusRORE28_2IFCnew_2019_Jun_11_1716_977,stimulusRORE28_2IFCnew_2019_Jun_11_1716_978,2019_Jun_11_1716,2IFCnew,2,RORE28,
2IFCnew,39,0,39,0,-1,2,Yes,3,-1,False Alarm,0.568561127409,False,True,stimulusRORE28_2IFCnew_2019_Jun_11_1716_979,stimulusRORE28_2IFCnew_2019_Jun_11_1716_980,2019_Jun_11_1716,2IFCnew,2,RORE28,
2IFCnew,40,0,40,0,-1,1,Yes,3,-1,Hit,0.469822659623,True,False,stimulusRORE28_2IFCnew_2019_Jun_11_1716_981,stimulusRORE28_2IFCnew_2019_Jun_11_1716_982,2019_Jun_11_1716,2IFCnew,2,RORE28,
2IFCnew,41,0,41,0,-1,1,Yes,3,-1,Hit,0.60025626421,True,False,stimulusRORE28_2IFCnew_2019_Jun_11_1716_983,stimulusRORE28_2IFCnew_2019_Jun_11_1716_984,2019_Jun_11_1716,2IFCnew,2,RORE28,
2IFCnew,42,0,42,0,-1,1,Yes,3,-1,Hit,0.600203303155,True,False,stimulusRORE28_2IFCnew_2019_Jun_11_1716_985,stimulusRORE28_2IFCnew_2019_Jun_11_1716_986,2019_Jun_11_1716,2IFCnew,2,RORE28,
2IFCnew,43,0,43,0,-1,3,Yes,3,-1,Correct Rejection,0.599575985689,False,True,stimulusRORE28_2IFCnew_2019_Jun_11_1716_987,stimulusRORE28_2IFCnew_2019_Jun_11_1716_988,2019_Jun_11_1716,2IFCnew,2,RORE28,
2IFCnew,44,0,44,0,0.468573361635,6,No,3,-1,Miss,0.635057197418,True,False,stimulusRORE28_2IFCnew_2019_Jun_11_1716_989,stimulusRORE28_2IFCnew_2019_Jun_11_1716_990,2019_Jun_11_1716,2IFCnew,2,RORE28,
2IFCnew,45,0,45,0,-1,3,No,3,-1,Correct Rejection,0.66944676172,False,True,stimulusRORE28_2IFCnew_2019_Jun_11_1716_991,stimulusRORE28_2IFCnew_2019_Jun_11_1716_992,2019_Jun_11_1716,2IFCnew,2,RORE28,
2IFCnew,46,0,46,0,-1,3,No,3,-1,Correct Rejection,0.734119588044,False,True,stimulusRORE28_2IFCnew_2019_Jun_11_1716_993,stimulusRORE28_2IFCnew_2019_Jun_11_1716_994,2019_Jun_11_1716,2IFCnew,2,RORE28,
2IFCnew,47,0,47,0,-1,3,No,3,-1,Correct Rejection,0.567876332905,False,True,stimulusRORE28_2IFCnew_2019_Jun_11_1716_995,stimulusRORE28_2IFCnew_2019_Jun_11_1716_996,2019_Jun_11_1716,2IFCnew,2,RORE28,
2IFCnew,48,0,48,0,0.566154083703,8,No,3,-1,Correct Rejection,0.565669225994,False,True,stimulusRORE28_2IFCnew_2019_Jun_11_1716_997,stimulusRORE28_2IFCnew_2019_Jun_11_1716_998,2019_Jun_11_1716,2IFCnew,2,RORE28,
2IFCnew,49,0,49,0,-1,3,No,3,-1,Correct Rejection,0.5350349457,False,True,stimulusRORE28_2IFCnew_2019_Jun_11_1716_999,stimulusRORE28_2IFCnew_2019_Jun_11_1716_1000,2019_Jun_11_1716,2IFCnew,2,RORE28,
2IFCnew,50,0,50,0,-1,2,No,3,-1,False Alarm,0.603003241587,False,True,stimulusRORE28_2IFCnew_2019_Jun_11_1716_1001,stimulusRORE28_2IFCnew_2019_Jun_11_1716_1002,2019_Jun_11_1716,2IFCnew,2,RORE28,
2IFCnew,51,0,51,0,-1,3,No,3,-1,Correct Rejection,0.503440803848,False,True,stimulusRORE28_2IFCnew_2019_Jun_11_1716_1003,stimulusRORE28_2IFCnew_2019_Jun_11_1716_1004,2019_Jun_11_1716,2IFCnew,2,RORE28,
2IFCnew,52,0,52,0,-1,4,No,3,-1,Miss,0.765801997855,True,False,stimulusRORE28_2IFCnew_2019_Jun_11_1716_1005,stimulusRORE28_2IFCnew_2019_Jun_11_1716_1006,2019_Jun_11_1716,2IFCnew,2,RORE28,
2IFCnew,53,0,53,0,-1,4,No,3,-1,Miss,0.668082099874,True,False,stimulusRORE28_2IFCnew_2019_Jun_11_1716_1007,stimulusRORE28_2IFCnew_2019_Jun_11_1716_1008,2019_Jun_11_1716,2IFCnew,2,RORE28,
2IFCnew,54,0,54,0,-1,1,No,3,-1,Hit,0.735041678883,True,False,stimulusRORE28_2IFCnew_2019_Jun_11_1716_1009,stimulusRORE28_2IFCnew_2019_Jun_11_1716_1010,2019_Jun_11_1716,2IFCnew,2,RORE28,
2IFCnew,55,0,55,0,-1,4,No,3,-1,Miss,0.498725248035,True,False,stimulusRORE28_2IFCnew_2019_Jun_11_1716_1011,stimulusRORE28_2IFCnew_2019_Jun_11_1716_1012,2019_Jun_11_1716,2IFCnew,2,RORE28,
2IFCnew,56,0,56,0,-1,4,No,3,-1,Miss,0.633440459147,True,False,stimulusRORE28_2IFCnew_2019_Jun_11_1716_1013,stimulusRORE28_2IFCnew_2019_Jun_11_1716_1014,2019_Jun_11_1716,2IFCnew,2,RORE28,
2IFCnew,57,0,57,0,-1,1,No,3,-1,Hit,0.535984543618,True,False,stimulusRORE28_2IFCnew_2019_Jun_11_1716_1015,stimulusRORE28_2IFCnew_2019_Jun_11_1716_1016,2019_Jun_11_1716,2IFCnew,2,RORE28,
2IFCnew,58,0,58,0,-1,1,No,3,-1,Hit,0.697552886792,True,False,stimulusRORE28_2IFCnew_2019_Jun_11_1716_1017,stimulusRORE28_2IFCnew_2019_Jun_11_1716_1018,2019_Jun_11_1716,2IFCnew,2,RORE28,
2IFCnew,59,0,59,0,-1,4,No,3,-1,Miss,0.501383136492,True,False,stimulusRORE28_2IFCnew_2019_Jun_11_1716_1019,stimulusRORE28_2IFCnew_2019_Jun_11_1716_1020,2019_Jun_11_1716,2IFCnew,2,RORE28,
2IFCnew,60,0,60,0,-1,2,No,3,-1,False Alarm,0.399961326737,False,True,stimulusRORE28_2IFCnew_2019_Jun_11_1716_1021,stimulusRORE28_2IFCnew_2019_Jun_11_1716_1022,2019_Jun_11_1716,2IFCnew,2,RORE28,
2IFCnew,61,0,61,0,-1,4,No,3,-1,Miss,0.501666004304,True,False,stimulusRORE28_2IFCnew_2019_Jun_11_1716_1023,stimulusRORE28_2IFCnew_2019_Jun_11_1716_1024,2019_Jun_11_1716,2IFCnew,2,RORE28,
2IFCnew,62,0,62,0,-1,2,No,3,-1,False Alarm,0.568963875063,False,True,stimulusRORE28_2IFCnew_2019_Jun_11_1716_1025,stimulusRORE28_2IFCnew_2019_Jun_11_1716_1026,2019_Jun_11_1716,2IFCnew,2,RORE28,
