Task,trials.thisRepN,trials.thisTrialN,trials.thisN,trials.thisIndex,time_response_second,response_2IFCnew,response_key2Interval_2IFCnew,signal_intensity,constant Value,response,time_response,signal_on_stimuluspos1,signal_on_stimuluspos2,stimulus_name_pos1,stimulus_name_pos2,random_intensity,date,expName,session,participant,
2IFCnew,0,0,0,0,-1,1,null,3.7,-1,Hit,0.637462100014,True,False,stimulusRORE28_2IFCnew_2019_Jun_12_1708_1,stimulusRORE28_2IFCnew_2019_Jun_12_1708_2,True,2019_Jun_12_1708,2IFCnew,3,RORE28,
2IFCnew,1,0,1,0,-1,2,null,4.4,-1,False Alarm,0.636353899958,False,True,stimulusRORE28_2IFCnew_2019_Jun_12_1708_3,stimulusRORE28_2IFCnew_2019_Jun_12_1708_4,True,2019_Jun_12_1708,2IFCnew,3,RORE28,
2IFCnew,2,0,2,0,0.69933740003,5,Yes,1.4,-1,False Alarm,0.668269799789,False,True,stimulusRORE28_2IFCnew_2019_Jun_12_1708_5,stimulusRORE28_2IFCnew_2019_Jun_12_1708_6,True,2019_Jun_12_1708,2IFCnew,3,RORE28,
2IFCnew,3,0,3,0,0.667447299929,2,Yes,3.7,-1,Correct Rejection,0.733482700074,False,True,stimulusRORE28_2IFCnew_2019_Jun_12_1708_7,stimulusRORE28_2IFCnew_2019_Jun_12_1708_8,True,2019_Jun_12_1708,2IFCnew,3,RORE28,
2IFCnew,4,0,4,0,0.733759799972,2,Yes,1.4,-1,Correct Rejection,0.73408850003,False,True,stimulusRORE28_2IFCnew_2019_Jun_12_1708_9,stimulusRORE28_2IFCnew_2019_Jun_12_1708_10,True,2019_Jun_12_1708,2IFCnew,3,RORE28,
2IFCnew,5,0,5,0,0.83423869987,5,Yes,5,-1,False Alarm,0.834243199788,False,True,stimulusRORE28_2IFCnew_2019_Jun_12_1708_11,stimulusRORE28_2IFCnew_2019_Jun_12_1708_12,True,2019_Jun_12_1708,2IFCnew,3,RORE28,
2IFCnew,6,0,6,0,0.66705769999,3,No,2.2,-1,False Alarm,0.835656199837,False,True,stimulusRORE28_2IFCnew_2019_Jun_12_1708_13,stimulusRORE28_2IFCnew_2019_Jun_12_1708_14,True,2019_Jun_12_1708,2IFCnew,3,RORE28,
2IFCnew,7,0,7,0,-1,0,No,3.7,-1,No Answer,-1,False,True,stimulusRORE28_2IFCnew_2019_Jun_12_1708_15,stimulusRORE28_2IFCnew_2019_Jun_12_1708_16,True,2019_Jun_12_1708,2IFCnew,3,RORE28,
2IFCnew,8,0,8,0,-1,1,No,5,-1,Hit,0.500515300082,True,False,stimulusRORE28_2IFCnew_2019_Jun_12_1708_17,stimulusRORE28_2IFCnew_2019_Jun_12_1708_18,True,2019_Jun_12_1708,2IFCnew,3,RORE28,
2IFCnew,9,0,9,0,-1,1,No,6.6,-1,Hit,0.500692399917,True,False,stimulusRORE28_2IFCnew_2019_Jun_12_1708_19,stimulusRORE28_2IFCnew_2019_Jun_12_1708_20,True,2019_Jun_12_1708,2IFCnew,3,RORE28,
2IFCnew,10,0,10,0,0.699572199956,3,No,5,-1,False Alarm,0.333884600084,False,True,stimulusRORE28_2IFCnew_2019_Jun_12_1708_21,stimulusRORE28_2IFCnew_2019_Jun_12_1708_22,True,2019_Jun_12_1708,2IFCnew,3,RORE28,
2IFCnew,11,0,11,0,-1,3,No,3.7,-1,Correct Rejection,0.901109799976,False,True,stimulusRORE28_2IFCnew_2019_Jun_12_1708_23,stimulusRORE28_2IFCnew_2019_Jun_12_1708_24,True,2019_Jun_12_1708,2IFCnew,3,RORE28,
2IFCnew,12,0,12,0,-1,3,No,3,-1,Correct Rejection,0.867103799945,False,True,stimulusRORE28_2IFCnew_2019_Jun_12_1708_25,stimulusRORE28_2IFCnew_2019_Jun_12_1708_26,True,2019_Jun_12_1708,2IFCnew,3,RORE28,
2IFCnew,13,0,13,0,0.767534699989,5,Yes,5,-1,False Alarm,0.668287100038,False,True,stimulusRORE28_2IFCnew_2019_Jun_12_1708_27,stimulusRORE28_2IFCnew_2019_Jun_12_1708_28,True,2019_Jun_12_1708,2IFCnew,3,RORE28,
2IFCnew,14,0,14,0,-1,1,Yes,2.2,-1,Hit,0.633621999994,True,False,stimulusRORE28_2IFCnew_2019_Jun_12_1708_29,stimulusRORE28_2IFCnew_2019_Jun_12_1708_30,True,2019_Jun_12_1708,2IFCnew,3,RORE28,
2IFCnew,15,0,15,0,-1,2,Yes,5.7,-1,False Alarm,0.56735609984,False,True,stimulusRORE28_2IFCnew_2019_Jun_12_1708_31,stimulusRORE28_2IFCnew_2019_Jun_12_1708_32,True,2019_Jun_12_1708,2IFCnew,3,RORE28,
2IFCnew,16,0,16,0,-1,3,Yes,5.7,-1,Correct Rejection,0.901219499996,False,True,stimulusRORE28_2IFCnew_2019_Jun_12_1708_33,stimulusRORE28_2IFCnew_2019_Jun_12_1708_34,True,2019_Jun_12_1708,2IFCnew,3,RORE28,
2IFCnew,17,0,17,0,0.700001700083,5,Yes,2.2,-1,False Alarm,0.567560099997,False,True,stimulusRORE28_2IFCnew_2019_Jun_12_1708_35,stimulusRORE28_2IFCnew_2019_Jun_12_1708_36,True,2019_Jun_12_1708,2IFCnew,3,RORE28,
2IFCnew,18,0,18,0,-1,0,Yes,2.2,-1,No Answer,-1,True,False,stimulusRORE28_2IFCnew_2019_Jun_12_1708_37,stimulusRORE28_2IFCnew_2019_Jun_12_1708_38,True,2019_Jun_12_1708,2IFCnew,3,RORE28,
2IFCnew,19,0,19,0,-1,1,Yes,4.4,-1,Hit,0.601281299954,True,False,stimulusRORE28_2IFCnew_2019_Jun_12_1708_39,stimulusRORE28_2IFCnew_2019_Jun_12_1708_40,True,2019_Jun_12_1708,2IFCnew,3,RORE28,
2IFCnew,20,0,20,0,-1,2,Yes,5.7,-1,False Alarm,0.533874500077,False,True,stimulusRORE28_2IFCnew_2019_Jun_12_1708_41,stimulusRORE28_2IFCnew_2019_Jun_12_1708_42,True,2019_Jun_12_1708,2IFCnew,3,RORE28,
2IFCnew,21,0,21,0,0.767310099909,6,No,2.2,-1,Miss,0.700770199997,True,False,stimulusRORE28_2IFCnew_2019_Jun_12_1708_43,stimulusRORE28_2IFCnew_2019_Jun_12_1708_44,True,2019_Jun_12_1708,2IFCnew,3,RORE28,
2IFCnew,22,0,22,0,-1,1,No,2.2,-1,Hit,0.601954899961,True,False,stimulusRORE28_2IFCnew_2019_Jun_12_1708_45,stimulusRORE28_2IFCnew_2019_Jun_12_1708_46,True,2019_Jun_12_1708,2IFCnew,3,RORE28,
2IFCnew,23,0,23,0,-1,1,No,6.6,-1,Hit,0.501135600032,True,False,stimulusRORE28_2IFCnew_2019_Jun_12_1708_47,stimulusRORE28_2IFCnew_2019_Jun_12_1708_48,True,2019_Jun_12_1708,2IFCnew,3,RORE28,
2IFCnew,24,0,24,0,-1,3,No,5,-1,Correct Rejection,0.665317900013,False,True,stimulusRORE28_2IFCnew_2019_Jun_12_1708_49,stimulusRORE28_2IFCnew_2019_Jun_12_1708_50,True,2019_Jun_12_1708,2IFCnew,3,RORE28,
2IFCnew,25,0,25,0,-1,3,No,6.6,-1,Correct Rejection,0.667582200142,False,True,stimulusRORE28_2IFCnew_2019_Jun_12_1708_51,stimulusRORE28_2IFCnew_2019_Jun_12_1708_52,True,2019_Jun_12_1708,2IFCnew,3,RORE28,
2IFCnew,26,0,26,0,0.76812579995,1,No,3,-1,Hit,0.567859200062,True,False,stimulusRORE28_2IFCnew_2019_Jun_12_1708_53,stimulusRORE28_2IFCnew_2019_Jun_12_1708_54,True,2019_Jun_12_1708,2IFCnew,3,RORE28,
2IFCnew,27,0,27,0,-1,2,No,4.4,-1,False Alarm,0.700883500045,False,True,stimulusRORE28_2IFCnew_2019_Jun_12_1708_55,stimulusRORE28_2IFCnew_2019_Jun_12_1708_56,True,2019_Jun_12_1708,2IFCnew,3,RORE28,
2IFCnew,28,0,28,0,-1,1,No,2.2,-1,Hit,0.6664301001,True,False,stimulusRORE28_2IFCnew_2019_Jun_12_1708_57,stimulusRORE28_2IFCnew_2019_Jun_12_1708_58,True,2019_Jun_12_1708,2IFCnew,3,RORE28,
2IFCnew,29,0,29,0,-1,3,No,3.7,-1,Correct Rejection,0.667392200092,False,True,stimulusRORE28_2IFCnew_2019_Jun_12_1708_59,stimulusRORE28_2IFCnew_2019_Jun_12_1708_60,True,2019_Jun_12_1708,2IFCnew,3,RORE28,
2IFCnew,30,0,30,0,-1,1,No,5,-1,Hit,0.567216799827,True,False,stimulusRORE28_2IFCnew_2019_Jun_12_1708_61,stimulusRORE28_2IFCnew_2019_Jun_12_1708_62,True,2019_Jun_12_1708,2IFCnew,3,RORE28,
2IFCnew,31,0,31,0,-1,1,No,2.2,-1,Hit,0.498207899975,True,False,stimulusRORE28_2IFCnew_2019_Jun_12_1708_63,stimulusRORE28_2IFCnew_2019_Jun_12_1708_64,True,2019_Jun_12_1708,2IFCnew,3,RORE28,
2IFCnew,32,0,32,0,-1,2,No,4.4,-1,False Alarm,0.467032200191,False,True,stimulusRORE28_2IFCnew_2019_Jun_12_1708_65,stimulusRORE28_2IFCnew_2019_Jun_12_1708_66,True,2019_Jun_12_1708,2IFCnew,3,RORE28,
2IFCnew,33,0,33,0,-1,1,No,4.4,-1,Hit,0.500304099871,True,False,stimulusRORE28_2IFCnew_2019_Jun_12_1708_67,stimulusRORE28_2IFCnew_2019_Jun_12_1708_68,True,2019_Jun_12_1708,2IFCnew,3,RORE28,
2IFCnew,34,0,34,0,-1,2,No,3,-1,False Alarm,0.468047699891,False,True,stimulusRORE28_2IFCnew_2019_Jun_12_1708_69,stimulusRORE28_2IFCnew_2019_Jun_12_1708_70,True,2019_Jun_12_1708,2IFCnew,3,RORE28,
2IFCnew,35,0,35,0,-1,4,No,3.7,-1,Miss,0.633961200016,True,False,stimulusRORE28_2IFCnew_2019_Jun_12_1708_71,stimulusRORE28_2IFCnew_2019_Jun_12_1708_72,True,2019_Jun_12_1708,2IFCnew,3,RORE28,
2IFCnew,36,0,36,0,-1,1,No,5,-1,Hit,0.468908300158,True,False,stimulusRORE28_2IFCnew_2019_Jun_12_1708_73,stimulusRORE28_2IFCnew_2019_Jun_12_1708_74,True,2019_Jun_12_1708,2IFCnew,3,RORE28,
2IFCnew,37,0,37,0,-1,2,No,6.6,-1,False Alarm,0.500633499818,False,True,stimulusRORE28_2IFCnew_2019_Jun_12_1708_75,stimulusRORE28_2IFCnew_2019_Jun_12_1708_76,True,2019_Jun_12_1708,2IFCnew,3,RORE28,
2IFCnew,38,0,38,0,-1,2,No,4.4,-1,False Alarm,0.532852899982,False,True,stimulusRORE28_2IFCnew_2019_Jun_12_1708_77,stimulusRORE28_2IFCnew_2019_Jun_12_1708_78,True,2019_Jun_12_1708,2IFCnew,3,RORE28,
2IFCnew,39,0,39,0,-1,0,No,5,-1,No Answer,-1,False,True,stimulusRORE28_2IFCnew_2019_Jun_12_1708_79,stimulusRORE28_2IFCnew_2019_Jun_12_1708_80,True,2019_Jun_12_1708,2IFCnew,3,RORE28,
2IFCnew,40,0,40,0,-1,4,No,1.4,-1,Miss,0.900566000026,True,False,stimulusRORE28_2IFCnew_2019_Jun_12_1708_81,stimulusRORE28_2IFCnew_2019_Jun_12_1708_82,True,2019_Jun_12_1708,2IFCnew,3,RORE28,
2IFCnew,41,0,41,0,-1,2,No,6.6,-1,False Alarm,0.56738940021,False,True,stimulusRORE28_2IFCnew_2019_Jun_12_1708_83,stimulusRORE28_2IFCnew_2019_Jun_12_1708_84,True,2019_Jun_12_1708,2IFCnew,3,RORE28,
2IFCnew,42,0,42,0,-1,1,No,3,-1,Hit,0.534057099838,True,False,stimulusRORE28_2IFCnew_2019_Jun_12_1708_85,stimulusRORE28_2IFCnew_2019_Jun_12_1708_86,True,2019_Jun_12_1708,2IFCnew,3,RORE28,
2IFCnew,43,0,43,0,-1,1,No,2.2,-1,Hit,0.500646699918,True,False,stimulusRORE28_2IFCnew_2019_Jun_12_1708_87,stimulusRORE28_2IFCnew_2019_Jun_12_1708_88,True,2019_Jun_12_1708,2IFCnew,3,RORE28,
2IFCnew,44,0,44,0,-1,3,No,5,-1,Correct Rejection,0.667833399959,False,True,stimulusRORE28_2IFCnew_2019_Jun_12_1708_89,stimulusRORE28_2IFCnew_2019_Jun_12_1708_90,True,2019_Jun_12_1708,2IFCnew,3,RORE28,
2IFCnew,45,0,45,0,-1,1,No,3,-1,Hit,0.834360500099,True,False,stimulusRORE28_2IFCnew_2019_Jun_12_1708_91,stimulusRORE28_2IFCnew_2019_Jun_12_1708_92,True,2019_Jun_12_1708,2IFCnew,3,RORE28,
2IFCnew,46,0,46,0,-1,4,No,2.2,-1,Miss,0.700284200022,True,False,stimulusRORE28_2IFCnew_2019_Jun_12_1708_93,stimulusRORE28_2IFCnew_2019_Jun_12_1708_94,True,2019_Jun_12_1708,2IFCnew,3,RORE28,
2IFCnew,47,0,47,0,-1,1,No,5,-1,Hit,0.534172900021,True,False,stimulusRORE28_2IFCnew_2019_Jun_12_1708_95,stimulusRORE28_2IFCnew_2019_Jun_12_1708_96,True,2019_Jun_12_1708,2IFCnew,3,RORE28,
2IFCnew,48,0,48,0,-1,1,No,5,-1,Hit,0.566978399875,True,False,stimulusRORE28_2IFCnew_2019_Jun_12_1708_97,stimulusRORE28_2IFCnew_2019_Jun_12_1708_98,True,2019_Jun_12_1708,2IFCnew,3,RORE28,
2IFCnew,49,0,49,0,-1,1,No,3.7,-1,Hit,0.567294600187,True,False,stimulusRORE28_2IFCnew_2019_Jun_12_1708_99,stimulusRORE28_2IFCnew_2019_Jun_12_1708_100,True,2019_Jun_12_1708,2IFCnew,3,RORE28,
2IFCnew,50,0,50,0,-1,3,No,2.2,-1,Correct Rejection,0.63385920017,False,True,stimulusRORE28_2IFCnew_2019_Jun_12_1708_101,stimulusRORE28_2IFCnew_2019_Jun_12_1708_102,True,2019_Jun_12_1708,2IFCnew,3,RORE28,
2IFCnew,51,0,51,0,-1,4,No,2.2,-1,Miss,0.567110899836,True,False,stimulusRORE28_2IFCnew_2019_Jun_12_1708_103,stimulusRORE28_2IFCnew_2019_Jun_12_1708_104,True,2019_Jun_12_1708,2IFCnew,3,RORE28,
2IFCnew,52,0,52,0,-1,1,No,6.6,-1,Hit,0.633029900026,True,False,stimulusRORE28_2IFCnew_2019_Jun_12_1708_105,stimulusRORE28_2IFCnew_2019_Jun_12_1708_106,True,2019_Jun_12_1708,2IFCnew,3,RORE28,
2IFCnew,53,0,53,0,0.467072000029,5,Yes,5,-1,False Alarm,0.600944699952,False,True,stimulusRORE28_2IFCnew_2019_Jun_12_1708_107,stimulusRORE28_2IFCnew_2019_Jun_12_1708_108,True,2019_Jun_12_1708,2IFCnew,3,RORE28,
2IFCnew,54,0,54,0,0.832793999929,2,Yes,3,-1,Correct Rejection,0.667507999809,False,True,stimulusRORE28_2IFCnew_2019_Jun_12_1708_109,stimulusRORE28_2IFCnew_2019_Jun_12_1708_110,True,2019_Jun_12_1708,2IFCnew,3,RORE28,
2IFCnew,55,0,55,0,-1,1,Yes,5.7,-1,Hit,0.567933500046,True,False,stimulusRORE28_2IFCnew_2019_Jun_12_1708_111,stimulusRORE28_2IFCnew_2019_Jun_12_1708_112,True,2019_Jun_12_1708,2IFCnew,3,RORE28,
2IFCnew,56,0,56,0,-1,1,Yes,6.6,-1,Hit,0.500738299917,True,False,stimulusRORE28_2IFCnew_2019_Jun_12_1708_113,stimulusRORE28_2IFCnew_2019_Jun_12_1708_114,True,2019_Jun_12_1708,2IFCnew,3,RORE28,
2IFCnew,57,0,57,0,-1,3,Yes,1.4,-1,Correct Rejection,0.734035099857,False,True,stimulusRORE28_2IFCnew_2019_Jun_12_1708_115,stimulusRORE28_2IFCnew_2019_Jun_12_1708_116,True,2019_Jun_12_1708,2IFCnew,3,RORE28,
2IFCnew,58,0,58,0,-1,1,Yes,3,-1,Hit,0.600347799947,True,False,stimulusRORE28_2IFCnew_2019_Jun_12_1708_117,stimulusRORE28_2IFCnew_2019_Jun_12_1708_118,True,2019_Jun_12_1708,2IFCnew,3,RORE28,
2IFCnew,59,0,59,0,-1,4,Yes,6.6,-1,Miss,0.632629900007,True,False,stimulusRORE28_2IFCnew_2019_Jun_12_1708_119,stimulusRORE28_2IFCnew_2019_Jun_12_1708_120,True,2019_Jun_12_1708,2IFCnew,3,RORE28,
2IFCnew,60,0,60,0,-1,2,Yes,5.7,-1,False Alarm,0.66739930003,False,True,stimulusRORE28_2IFCnew_2019_Jun_12_1708_121,stimulusRORE28_2IFCnew_2019_Jun_12_1708_122,True,2019_Jun_12_1708,2IFCnew,3,RORE28,
2IFCnew,61,0,61,0,0.0318996000569,3,No,1.4,-1,False Alarm,0.434026600095,False,True,stimulusRORE28_2IFCnew_2019_Jun_12_1708_123,stimulusRORE28_2IFCnew_2019_Jun_12_1708_124,True,2019_Jun_12_1708,2IFCnew,3,RORE28,
2IFCnew,62,0,62,0,-1,3,No,5.7,-1,Correct Rejection,0.667407899862,False,True,stimulusRORE28_2IFCnew_2019_Jun_12_1708_125,stimulusRORE28_2IFCnew_2019_Jun_12_1708_126,True,2019_Jun_12_1708,2IFCnew,3,RORE28,
2IFCnew,63,0,63,0,-1,3,No,5,-1,Correct Rejection,0.533544300124,False,True,stimulusRORE28_2IFCnew_2019_Jun_12_1708_127,stimulusRORE28_2IFCnew_2019_Jun_12_1708_128,True,2019_Jun_12_1708,2IFCnew,3,RORE28,
2IFCnew,64,0,64,0,-1,1,No,5.7,-1,Hit,0.600866700057,True,False,stimulusRORE28_2IFCnew_2019_Jun_12_1708_129,stimulusRORE28_2IFCnew_2019_Jun_12_1708_130,True,2019_Jun_12_1708,2IFCnew,3,RORE28,
2IFCnew,65,0,65,0,0.567930800142,6,No,2.2,-1,Miss,0.733452300075,True,False,stimulusRORE28_2IFCnew_2019_Jun_12_1708_131,stimulusRORE28_2IFCnew_2019_Jun_12_1708_132,True,2019_Jun_12_1708,2IFCnew,3,RORE28,
2IFCnew,66,0,66,0,-1,1,No,2.2,-1,Hit,0.634120000061,True,False,stimulusRORE28_2IFCnew_2019_Jun_12_1708_133,stimulusRORE28_2IFCnew_2019_Jun_12_1708_134,True,2019_Jun_12_1708,2IFCnew,3,RORE28,
2IFCnew,67,0,67,0,-1,4,No,5,-1,Miss,0.632907700026,True,False,stimulusRORE28_2IFCnew_2019_Jun_12_1708_135,stimulusRORE28_2IFCnew_2019_Jun_12_1708_136,True,2019_Jun_12_1708,2IFCnew,3,RORE28,
2IFCnew,68,0,68,0,-1,2,No,3,-1,False Alarm,0.667290300131,False,True,stimulusRORE28_2IFCnew_2019_Jun_12_1708_137,stimulusRORE28_2IFCnew_2019_Jun_12_1708_138,True,2019_Jun_12_1708,2IFCnew,3,RORE28,
2IFCnew,69,0,69,0,-1,1,No,3,-1,Hit,0.734267699998,True,False,stimulusRORE28_2IFCnew_2019_Jun_12_1708_139,stimulusRORE28_2IFCnew_2019_Jun_12_1708_140,True,2019_Jun_12_1708,2IFCnew,3,RORE28,
2IFCnew,70,0,70,0,-1,3,No,4.4,-1,Correct Rejection,0.668405100005,False,True,stimulusRORE28_2IFCnew_2019_Jun_12_1708_141,stimulusRORE28_2IFCnew_2019_Jun_12_1708_142,True,2019_Jun_12_1708,2IFCnew,3,RORE28,
2IFCnew,71,0,71,0,0.767548800213,7,Yes,2.2,-1,Hit,0.700813499978,True,False,stimulusRORE28_2IFCnew_2019_Jun_12_1708_143,stimulusRORE28_2IFCnew_2019_Jun_12_1708_144,True,2019_Jun_12_1708,2IFCnew,3,RORE28,
2IFCnew,72,0,72,0,-1,1,Yes,3,-1,Hit,0.566740700044,True,False,stimulusRORE28_2IFCnew_2019_Jun_12_1708_145,stimulusRORE28_2IFCnew_2019_Jun_12_1708_146,True,2019_Jun_12_1708,2IFCnew,3,RORE28,
2IFCnew,73,0,73,0,-1,1,Yes,5,-1,Hit,0.734468400013,True,False,stimulusRORE28_2IFCnew_2019_Jun_12_1708_147,stimulusRORE28_2IFCnew_2019_Jun_12_1708_148,True,2019_Jun_12_1708,2IFCnew,3,RORE28,
2IFCnew,74,0,74,0,-1,1,Yes,4.4,-1,Hit,0.533953600097,True,False,stimulusRORE28_2IFCnew_2019_Jun_12_1708_149,stimulusRORE28_2IFCnew_2019_Jun_12_1708_150,True,2019_Jun_12_1708,2IFCnew,3,RORE28,
