Task,trials.thisRepN,trials.thisTrialN,trials.thisN,trials.thisIndex,signal_intensity,constant Value,response,time_response,signal_on_stimuluspos1,signal_on_stimuluspos2,stimulus_name_pos1,stimulus_name_pos2,date,expName,session,participant,
2IFC,0,0,0,0,6.6,-1,correct answer,0.701023249887,True,False,stimulusRORE28_2IFC_2019_Jun_11_1818_1,stimulusRORE28_2IFC_2019_Jun_11_1818_2,2019_Jun_11_1818,2IFC,2,RORE28,
2IFC,1,0,1,0,6.6,-1,correct answer,0.599755395204,False,True,stimulusRORE28_2IFC_2019_Jun_11_1818_3,stimulusRORE28_2IFC_2019_Jun_11_1818_4,2019_Jun_11_1818,2IFC,2,RORE28,
2IFC,2,0,2,0,6.6,-1,correct answer,0.633717989549,False,True,stimulusRORE28_2IFC_2019_Jun_11_1818_5,stimulusRORE28_2IFC_2019_Jun_11_1818_6,2019_Jun_11_1818,2IFC,2,RORE28,
2IFC,3,0,3,0,6.6,-1,correct answer,0.568288112991,False,True,stimulusRORE28_2IFC_2019_Jun_11_1818_7,stimulusRORE28_2IFC_2019_Jun_11_1818_8,2019_Jun_11_1818,2IFC,2,RORE28,
2IFC,4,0,4,0,6.6,-1,correct answer,0.567412413657,True,False,stimulusRORE28_2IFC_2019_Jun_11_1818_9,stimulusRORE28_2IFC_2019_Jun_11_1818_10,2019_Jun_11_1818,2IFC,2,RORE28,
2IFC,5,0,5,0,6.6,-1,correct answer,0.533454335295,False,True,stimulusRORE28_2IFC_2019_Jun_11_1818_11,stimulusRORE28_2IFC_2019_Jun_11_1818_12,2019_Jun_11_1818,2IFC,2,RORE28,
2IFC,6,0,6,0,6.6,-1,correct answer,0.434076233767,False,True,stimulusRORE28_2IFC_2019_Jun_11_1818_13,stimulusRORE28_2IFC_2019_Jun_11_1818_14,2019_Jun_11_1818,2IFC,2,RORE28,
2IFC,7,0,7,0,6.6,-1,correct answer,0.399452656973,True,False,stimulusRORE28_2IFC_2019_Jun_11_1818_15,stimulusRORE28_2IFC_2019_Jun_11_1818_16,2019_Jun_11_1818,2IFC,2,RORE28,
2IFC,8,0,8,0,6.6,-1,correct answer,0.599946710747,True,False,stimulusRORE28_2IFC_2019_Jun_11_1818_17,stimulusRORE28_2IFC_2019_Jun_11_1818_18,2019_Jun_11_1818,2IFC,2,RORE28,
2IFC,9,0,9,0,6.6,-1,wrong answer,0.437072824687,True,False,stimulusRORE28_2IFC_2019_Jun_11_1818_19,stimulusRORE28_2IFC_2019_Jun_11_1818_20,2019_Jun_11_1818,2IFC,2,RORE28,
2IFC,10,0,10,0,6.6,-1,correct answer,0.568674849346,True,False,stimulusRORE28_2IFC_2019_Jun_11_1818_21,stimulusRORE28_2IFC_2019_Jun_11_1818_22,2019_Jun_11_1818,2IFC,2,RORE28,
2IFC,11,0,11,0,6.6,-1,correct answer,0.535967300646,False,True,stimulusRORE28_2IFC_2019_Jun_11_1818_23,stimulusRORE28_2IFC_2019_Jun_11_1818_24,2019_Jun_11_1818,2IFC,2,RORE28,
2IFC,12,0,12,0,6.6,-1,correct answer,0.535142099019,False,True,stimulusRORE28_2IFC_2019_Jun_11_1818_25,stimulusRORE28_2IFC_2019_Jun_11_1818_26,2019_Jun_11_1818,2IFC,2,RORE28,
2IFC,13,0,13,0,6.6,-1,wrong answer,0.467183656059,False,True,stimulusRORE28_2IFC_2019_Jun_11_1818_27,stimulusRORE28_2IFC_2019_Jun_11_1818_28,2019_Jun_11_1818,2IFC,2,RORE28,
2IFC,14,0,14,0,6.6,-1,correct answer,0.47283936711,True,False,stimulusRORE28_2IFC_2019_Jun_11_1818_29,stimulusRORE28_2IFC_2019_Jun_11_1818_30,2019_Jun_11_1818,2IFC,2,RORE28,
2IFC,15,0,15,0,6.6,-1,correct answer,0.568834963255,False,True,stimulusRORE28_2IFC_2019_Jun_11_1818_31,stimulusRORE28_2IFC_2019_Jun_11_1818_32,2019_Jun_11_1818,2IFC,2,RORE28,
2IFC,16,0,16,0,6.6,-1,correct answer,0.4362578867,True,False,stimulusRORE28_2IFC_2019_Jun_11_1818_33,stimulusRORE28_2IFC_2019_Jun_11_1818_34,2019_Jun_11_1818,2IFC,2,RORE28,
2IFC,17,0,17,0,6.6,-1,correct answer,0.499747512862,False,True,stimulusRORE28_2IFC_2019_Jun_11_1818_35,stimulusRORE28_2IFC_2019_Jun_11_1818_36,2019_Jun_11_1818,2IFC,2,RORE28,
2IFC,18,0,18,0,6.6,-1,correct answer,0.434683844913,True,False,stimulusRORE28_2IFC_2019_Jun_11_1818_37,stimulusRORE28_2IFC_2019_Jun_11_1818_38,2019_Jun_11_1818,2IFC,2,RORE28,
2IFC,19,0,19,0,6.6,-1,correct answer,0.503755283542,True,False,stimulusRORE28_2IFC_2019_Jun_11_1818_39,stimulusRORE28_2IFC_2019_Jun_11_1818_40,2019_Jun_11_1818,2IFC,2,RORE28,
2IFC,20,0,20,0,6.6,-1,correct answer,0.373315110337,True,False,stimulusRORE28_2IFC_2019_Jun_11_1818_41,stimulusRORE28_2IFC_2019_Jun_11_1818_42,2019_Jun_11_1818,2IFC,2,RORE28,
2IFC,21,0,21,0,6.6,-1,correct answer,0.499362829141,True,False,stimulusRORE28_2IFC_2019_Jun_11_1818_43,stimulusRORE28_2IFC_2019_Jun_11_1818_44,2019_Jun_11_1818,2IFC,2,RORE28,
2IFC,22,0,22,0,6.6,-1,correct answer,0.629704060499,False,True,stimulusRORE28_2IFC_2019_Jun_11_1818_45,stimulusRORE28_2IFC_2019_Jun_11_1818_46,2019_Jun_11_1818,2IFC,2,RORE28,
2IFC,23,0,23,0,6.6,-1,wrong answer,0.603397367988,False,True,stimulusRORE28_2IFC_2019_Jun_11_1818_47,stimulusRORE28_2IFC_2019_Jun_11_1818_48,2019_Jun_11_1818,2IFC,2,RORE28,
2IFC,24,0,24,0,6.6,-1,correct answer,0.567410771735,False,True,stimulusRORE28_2IFC_2019_Jun_11_1818_49,stimulusRORE28_2IFC_2019_Jun_11_1818_50,2019_Jun_11_1818,2IFC,2,RORE28,
2IFC,25,0,25,0,6.6,-1,correct answer,0.333007084206,True,False,stimulusRORE28_2IFC_2019_Jun_11_1818_51,stimulusRORE28_2IFC_2019_Jun_11_1818_52,2019_Jun_11_1818,2IFC,2,RORE28,
2IFC,26,0,26,0,6.6,-1,correct answer,0.633990183007,False,True,stimulusRORE28_2IFC_2019_Jun_11_1818_53,stimulusRORE28_2IFC_2019_Jun_11_1818_54,2019_Jun_11_1818,2IFC,2,RORE28,
2IFC,27,0,27,0,6.6,-1,correct answer,0.735161148477,True,False,stimulusRORE28_2IFC_2019_Jun_11_1818_55,stimulusRORE28_2IFC_2019_Jun_11_1818_56,2019_Jun_11_1818,2IFC,2,RORE28,
2IFC,28,0,28,0,6.6,-1,correct answer,0.534115318209,True,False,stimulusRORE28_2IFC_2019_Jun_11_1818_57,stimulusRORE28_2IFC_2019_Jun_11_1818_58,2019_Jun_11_1818,2IFC,2,RORE28,
2IFC,29,0,29,0,6.6,-1,correct answer,0.501913154498,False,True,stimulusRORE28_2IFC_2019_Jun_11_1818_59,stimulusRORE28_2IFC_2019_Jun_11_1818_60,2019_Jun_11_1818,2IFC,2,RORE28,
2IFC,30,0,30,0,6.6,-1,correct answer,0.566100301687,False,True,stimulusRORE28_2IFC_2019_Jun_11_1818_61,stimulusRORE28_2IFC_2019_Jun_11_1818_62,2019_Jun_11_1818,2IFC,2,RORE28,
2IFC,31,0,31,0,6.6,-1,correct answer,0.736580413301,False,True,stimulusRORE28_2IFC_2019_Jun_11_1818_63,stimulusRORE28_2IFC_2019_Jun_11_1818_64,2019_Jun_11_1818,2IFC,2,RORE28,
2IFC,32,0,32,0,6.6,-1,correct answer,0.60038887104,False,True,stimulusRORE28_2IFC_2019_Jun_11_1818_65,stimulusRORE28_2IFC_2019_Jun_11_1818_66,2019_Jun_11_1818,2IFC,2,RORE28,
2IFC,33,0,33,0,6.6,-1,correct answer,0.433841400314,True,False,stimulusRORE28_2IFC_2019_Jun_11_1818_67,stimulusRORE28_2IFC_2019_Jun_11_1818_68,2019_Jun_11_1818,2IFC,2,RORE28,
2IFC,34,0,34,0,6.6,-1,correct answer,0.50195092475,False,True,stimulusRORE28_2IFC_2019_Jun_11_1818_69,stimulusRORE28_2IFC_2019_Jun_11_1818_70,2019_Jun_11_1818,2IFC,2,RORE28,
2IFC,35,0,35,0,6.6,-1,correct answer,0.70135661494,False,True,stimulusRORE28_2IFC_2019_Jun_11_1818_71,stimulusRORE28_2IFC_2019_Jun_11_1818_72,2019_Jun_11_1818,2IFC,2,RORE28,
2IFC,36,0,36,0,6.6,-1,correct answer,0.402505082544,True,False,stimulusRORE28_2IFC_2019_Jun_11_1818_73,stimulusRORE28_2IFC_2019_Jun_11_1818_74,2019_Jun_11_1818,2IFC,2,RORE28,
2IFC,37,0,37,0,6.6,-1,correct answer,0.497875413392,False,True,stimulusRORE28_2IFC_2019_Jun_11_1818_75,stimulusRORE28_2IFC_2019_Jun_11_1818_76,2019_Jun_11_1818,2IFC,2,RORE28,
2IFC,38,0,38,0,6.6,-1,correct answer,0.633883440401,False,True,stimulusRORE28_2IFC_2019_Jun_11_1818_77,stimulusRORE28_2IFC_2019_Jun_11_1818_78,2019_Jun_11_1818,2IFC,2,RORE28,
2IFC,39,0,39,0,6.6,-1,correct answer,0.566300649662,False,True,stimulusRORE28_2IFC_2019_Jun_11_1818_79,stimulusRORE28_2IFC_2019_Jun_11_1818_80,2019_Jun_11_1818,2IFC,2,RORE28,
2IFC,40,0,40,0,6.6,-1,wrong answer,0.636030196678,False,True,stimulusRORE28_2IFC_2019_Jun_11_1818_81,stimulusRORE28_2IFC_2019_Jun_11_1818_82,2019_Jun_11_1818,2IFC,2,RORE28,
2IFC,41,0,41,0,6.6,-1,wrong answer,0.467932085507,True,False,stimulusRORE28_2IFC_2019_Jun_11_1818_83,stimulusRORE28_2IFC_2019_Jun_11_1818_84,2019_Jun_11_1818,2IFC,2,RORE28,
2IFC,42,0,42,0,6.6,-1,correct answer,0.701627166476,False,True,stimulusRORE28_2IFC_2019_Jun_11_1818_85,stimulusRORE28_2IFC_2019_Jun_11_1818_86,2019_Jun_11_1818,2IFC,2,RORE28,
2IFC,43,0,43,0,6.6,-1,correct answer,0.466566191521,True,False,stimulusRORE28_2IFC_2019_Jun_11_1818_87,stimulusRORE28_2IFC_2019_Jun_11_1818_88,2019_Jun_11_1818,2IFC,2,RORE28,
2IFC,44,0,44,0,6.6,-1,correct answer,0.441284637898,True,False,stimulusRORE28_2IFC_2019_Jun_11_1818_89,stimulusRORE28_2IFC_2019_Jun_11_1818_90,2019_Jun_11_1818,2IFC,2,RORE28,
2IFC,45,0,45,0,6.6,-1,correct answer,0.537200998049,True,False,stimulusRORE28_2IFC_2019_Jun_11_1818_91,stimulusRORE28_2IFC_2019_Jun_11_1818_92,2019_Jun_11_1818,2IFC,2,RORE28,
2IFC,46,0,46,0,6.6,-1,correct answer,0.767392050475,False,True,stimulusRORE28_2IFC_2019_Jun_11_1818_93,stimulusRORE28_2IFC_2019_Jun_11_1818_94,2019_Jun_11_1818,2IFC,2,RORE28,
2IFC,47,0,47,0,6.6,-1,correct answer,0.603997999802,True,False,stimulusRORE28_2IFC_2019_Jun_11_1818_95,stimulusRORE28_2IFC_2019_Jun_11_1818_96,2019_Jun_11_1818,2IFC,2,RORE28,
2IFC,48,0,48,0,6.6,-1,correct answer,0.666056455113,False,True,stimulusRORE28_2IFC_2019_Jun_11_1818_97,stimulusRORE28_2IFC_2019_Jun_11_1818_98,2019_Jun_11_1818,2IFC,2,RORE28,
2IFC,49,0,49,0,6.6,-1,correct answer,0.507074154913,False,True,stimulusRORE28_2IFC_2019_Jun_11_1818_99,stimulusRORE28_2IFC_2019_Jun_11_1818_100,2019_Jun_11_1818,2IFC,2,RORE28,
2IFC,50,0,50,0,6.6,-1,correct answer,0.468118474353,True,False,stimulusRORE28_2IFC_2019_Jun_11_1818_101,stimulusRORE28_2IFC_2019_Jun_11_1818_102,2019_Jun_11_1818,2IFC,2,RORE28,
2IFC,51,0,51,0,6.6,-1,correct answer,0.468510548119,True,False,stimulusRORE28_2IFC_2019_Jun_11_1818_103,stimulusRORE28_2IFC_2019_Jun_11_1818_104,2019_Jun_11_1818,2IFC,2,RORE28,
2IFC,52,0,52,0,6.6,-1,correct answer,0.199438123498,True,False,stimulusRORE28_2IFC_2019_Jun_11_1818_105,stimulusRORE28_2IFC_2019_Jun_11_1818_106,2019_Jun_11_1818,2IFC,2,RORE28,
2IFC,53,0,53,0,6.6,-1,correct answer,0.802149876487,False,True,stimulusRORE28_2IFC_2019_Jun_11_1818_107,stimulusRORE28_2IFC_2019_Jun_11_1818_108,2019_Jun_11_1818,2IFC,2,RORE28,
2IFC,54,0,54,0,6.6,-1,correct answer,0.634776382241,False,True,stimulusRORE28_2IFC_2019_Jun_11_1818_109,stimulusRORE28_2IFC_2019_Jun_11_1818_110,2019_Jun_11_1818,2IFC,2,RORE28,
2IFC,55,0,55,0,6.6,-1,correct answer,0.535662263166,False,True,stimulusRORE28_2IFC_2019_Jun_11_1818_111,stimulusRORE28_2IFC_2019_Jun_11_1818_112,2019_Jun_11_1818,2IFC,2,RORE28,
2IFC,56,0,56,0,6.6,-1,correct answer,0.502051919233,False,True,stimulusRORE28_2IFC_2019_Jun_11_1818_113,stimulusRORE28_2IFC_2019_Jun_11_1818_114,2019_Jun_11_1818,2IFC,2,RORE28,
2IFC,57,0,57,0,6.6,-1,correct answer,0.466579329222,True,False,stimulusRORE28_2IFC_2019_Jun_11_1818_115,stimulusRORE28_2IFC_2019_Jun_11_1818_116,2019_Jun_11_1818,2IFC,2,RORE28,
2IFC,58,0,58,0,6.6,-1,wrong answer,0.573023375124,True,False,stimulusRORE28_2IFC_2019_Jun_11_1818_117,stimulusRORE28_2IFC_2019_Jun_11_1818_118,2019_Jun_11_1818,2IFC,2,RORE28,
2IFC,59,0,59,0,6.6,-1,correct answer,0.337772316299,True,False,stimulusRORE28_2IFC_2019_Jun_11_1818_119,stimulusRORE28_2IFC_2019_Jun_11_1818_120,2019_Jun_11_1818,2IFC,2,RORE28,
2IFC,60,0,60,0,6.6,-1,correct answer,0.43523110589,False,True,stimulusRORE28_2IFC_2019_Jun_11_1818_121,stimulusRORE28_2IFC_2019_Jun_11_1818_122,2019_Jun_11_1818,2IFC,2,RORE28,
2IFC,61,0,61,0,6.6,-1,correct answer,0.400158389471,True,False,stimulusRORE28_2IFC_2019_Jun_11_1818_123,stimulusRORE28_2IFC_2019_Jun_11_1818_124,2019_Jun_11_1818,2IFC,2,RORE28,
2IFC,62,0,62,0,6.6,-1,correct answer,0.435836253688,True,False,stimulusRORE28_2IFC_2019_Jun_11_1818_125,stimulusRORE28_2IFC_2019_Jun_11_1818_126,2019_Jun_11_1818,2IFC,2,RORE28,
2IFC,63,0,63,0,6.6,-1,wrong answer,0.367573184427,False,True,stimulusRORE28_2IFC_2019_Jun_11_1818_127,stimulusRORE28_2IFC_2019_Jun_11_1818_128,2019_Jun_11_1818,2IFC,2,RORE28,
2IFC,64,0,64,0,6.6,-1,correct answer,0.500276709441,False,True,stimulusRORE28_2IFC_2019_Jun_11_1818_129,stimulusRORE28_2IFC_2019_Jun_11_1818_130,2019_Jun_11_1818,2IFC,2,RORE28,
2IFC,65,0,65,0,6.6,-1,correct answer,0.731732660905,False,True,stimulusRORE28_2IFC_2019_Jun_11_1818_131,stimulusRORE28_2IFC_2019_Jun_11_1818_132,2019_Jun_11_1818,2IFC,2,RORE28,
2IFC,66,0,66,0,6.6,-1,correct answer,0.69917742582,False,True,stimulusRORE28_2IFC_2019_Jun_11_1818_133,stimulusRORE28_2IFC_2019_Jun_11_1818_134,2019_Jun_11_1818,2IFC,2,RORE28,
2IFC,67,0,67,0,6.6,-1,correct answer,0.367407733109,False,True,stimulusRORE28_2IFC_2019_Jun_11_1818_135,stimulusRORE28_2IFC_2019_Jun_11_1818_136,2019_Jun_11_1818,2IFC,2,RORE28,
2IFC,68,0,68,0,6.6,-1,correct answer,0.467976835091,False,True,stimulusRORE28_2IFC_2019_Jun_11_1818_137,stimulusRORE28_2IFC_2019_Jun_11_1818_138,2019_Jun_11_1818,2IFC,2,RORE28,
2IFC,69,0,69,0,6.6,-1,correct answer,0.366573910229,True,False,stimulusRORE28_2IFC_2019_Jun_11_1818_139,stimulusRORE28_2IFC_2019_Jun_11_1818_140,2019_Jun_11_1818,2IFC,2,RORE28,
2IFC,70,0,70,0,6.6,-1,wrong answer,0.401671259664,True,False,stimulusRORE28_2IFC_2019_Jun_11_1818_141,stimulusRORE28_2IFC_2019_Jun_11_1818_142,2019_Jun_11_1818,2IFC,2,RORE28,
2IFC,71,0,71,0,6.6,-1,correct answer,0.502206285484,True,False,stimulusRORE28_2IFC_2019_Jun_11_1818_143,stimulusRORE28_2IFC_2019_Jun_11_1818_144,2019_Jun_11_1818,2IFC,2,RORE28,
2IFC,72,0,72,0,6.6,-1,no answer,-1,False,True,stimulusRORE28_2IFC_2019_Jun_11_1818_145,stimulusRORE28_2IFC_2019_Jun_11_1818_146,2019_Jun_11_1818,2IFC,2,RORE28,
2IFC,73,0,73,0,6.6,-1,correct answer,0.368643483147,True,False,stimulusRORE28_2IFC_2019_Jun_11_1818_147,stimulusRORE28_2IFC_2019_Jun_11_1818_148,2019_Jun_11_1818,2IFC,2,RORE28,
2IFC,74,0,74,0,6.6,-1,correct answer,0.366816133726,True,False,stimulusRORE28_2IFC_2019_Jun_11_1818_149,stimulusRORE28_2IFC_2019_Jun_11_1818_150,2019_Jun_11_1818,2IFC,2,RORE28,
2IFC,0,0,0,0,5.7,-1,correct answer,0.632961349562,False,True,stimulusRORE28_2IFC_2019_Jun_11_1818_151,stimulusRORE28_2IFC_2019_Jun_11_1818_152,2019_Jun_11_1818,2IFC,2,RORE28,
2IFC,1,0,1,0,5.7,-1,correct answer,0.60147477081,False,True,stimulusRORE28_2IFC_2019_Jun_11_1818_153,stimulusRORE28_2IFC_2019_Jun_11_1818_154,2019_Jun_11_1818,2IFC,2,RORE28,
2IFC,2,0,2,0,5.7,-1,correct answer,0.600364238024,True,False,stimulusRORE28_2IFC_2019_Jun_11_1818_155,stimulusRORE28_2IFC_2019_Jun_11_1818_156,2019_Jun_11_1818,2IFC,2,RORE28,
2IFC,3,0,3,0,5.7,-1,correct answer,0.467922232579,True,False,stimulusRORE28_2IFC_2019_Jun_11_1818_157,stimulusRORE28_2IFC_2019_Jun_11_1818_158,2019_Jun_11_1818,2IFC,2,RORE28,
2IFC,4,0,4,0,5.7,-1,correct answer,0.469963067211,True,False,stimulusRORE28_2IFC_2019_Jun_11_1818_159,stimulusRORE28_2IFC_2019_Jun_11_1818_160,2019_Jun_11_1818,2IFC,2,RORE28,
2IFC,5,0,5,0,5.7,-1,correct answer,0.634025900625,True,False,stimulusRORE28_2IFC_2019_Jun_11_1818_161,stimulusRORE28_2IFC_2019_Jun_11_1818_162,2019_Jun_11_1818,2IFC,2,RORE28,
2IFC,6,0,6,0,5.7,-1,correct answer,0.366474146955,True,False,stimulusRORE28_2IFC_2019_Jun_11_1818_163,stimulusRORE28_2IFC_2019_Jun_11_1818_164,2019_Jun_11_1818,2IFC,2,RORE28,
2IFC,7,0,7,0,5.7,-1,correct answer,0.601990830153,True,False,stimulusRORE28_2IFC_2019_Jun_11_1818_165,stimulusRORE28_2IFC_2019_Jun_11_1818_166,2019_Jun_11_1818,2IFC,2,RORE28,
2IFC,8,0,8,0,5.7,-1,correct answer,0.437078572344,True,False,stimulusRORE28_2IFC_2019_Jun_11_1818_167,stimulusRORE28_2IFC_2019_Jun_11_1818_168,2019_Jun_11_1818,2IFC,2,RORE28,
2IFC,9,0,9,0,5.7,-1,correct answer,0.467099083122,True,False,stimulusRORE28_2IFC_2019_Jun_11_1818_169,stimulusRORE28_2IFC_2019_Jun_11_1818_170,2019_Jun_11_1818,2IFC,2,RORE28,
2IFC,10,0,10,0,5.7,-1,correct answer,0.334666930605,True,False,stimulusRORE28_2IFC_2019_Jun_11_1818_171,stimulusRORE28_2IFC_2019_Jun_11_1818_172,2019_Jun_11_1818,2IFC,2,RORE28,
2IFC,11,0,11,0,5.7,-1,wrong answer,0.52980333101,False,True,stimulusRORE28_2IFC_2019_Jun_11_1818_173,stimulusRORE28_2IFC_2019_Jun_11_1818_174,2019_Jun_11_1818,2IFC,2,RORE28,
2IFC,12,0,12,0,5.7,-1,wrong answer,0.568523767404,True,False,stimulusRORE28_2IFC_2019_Jun_11_1818_175,stimulusRORE28_2IFC_2019_Jun_11_1818_176,2019_Jun_11_1818,2IFC,2,RORE28,
2IFC,13,0,13,0,5.7,-1,correct answer,0.56683395151,False,True,stimulusRORE28_2IFC_2019_Jun_11_1818_177,stimulusRORE28_2IFC_2019_Jun_11_1818_178,2019_Jun_11_1818,2IFC,2,RORE28,
2IFC,14,0,14,0,5.7,-1,correct answer,0.500185567886,True,False,stimulusRORE28_2IFC_2019_Jun_11_1818_179,stimulusRORE28_2IFC_2019_Jun_11_1818_180,2019_Jun_11_1818,2IFC,2,RORE28,
2IFC,15,0,15,0,5.7,-1,correct answer,0.503281100653,False,True,stimulusRORE28_2IFC_2019_Jun_11_1818_181,stimulusRORE28_2IFC_2019_Jun_11_1818_182,2019_Jun_11_1818,2IFC,2,RORE28,
2IFC,16,0,16,0,5.7,-1,wrong answer,0.534358362667,False,True,stimulusRORE28_2IFC_2019_Jun_11_1818_183,stimulusRORE28_2IFC_2019_Jun_11_1818_184,2019_Jun_11_1818,2IFC,2,RORE28,
2IFC,17,0,17,0,5.7,-1,correct answer,0.500681099482,False,True,stimulusRORE28_2IFC_2019_Jun_11_1818_185,stimulusRORE28_2IFC_2019_Jun_11_1818_186,2019_Jun_11_1818,2IFC,2,RORE28,
2IFC,18,0,18,0,5.7,-1,correct answer,0.433014966547,True,False,stimulusRORE28_2IFC_2019_Jun_11_1818_187,stimulusRORE28_2IFC_2019_Jun_11_1818_188,2019_Jun_11_1818,2IFC,2,RORE28,
2IFC,19,0,19,0,5.7,-1,correct answer,0.543280804995,True,False,stimulusRORE28_2IFC_2019_Jun_11_1818_189,stimulusRORE28_2IFC_2019_Jun_11_1818_190,2019_Jun_11_1818,2IFC,2,RORE28,
2IFC,20,0,20,0,5.7,-1,correct answer,0.60157863982,False,True,stimulusRORE28_2IFC_2019_Jun_11_1818_191,stimulusRORE28_2IFC_2019_Jun_11_1818_192,2019_Jun_11_1818,2IFC,2,RORE28,
2IFC,21,0,21,0,5.7,-1,correct answer,0.538910930976,False,True,stimulusRORE28_2IFC_2019_Jun_11_1818_193,stimulusRORE28_2IFC_2019_Jun_11_1818_194,2019_Jun_11_1818,2IFC,2,RORE28,
2IFC,22,0,22,0,5.7,-1,correct answer,0.636719096452,False,True,stimulusRORE28_2IFC_2019_Jun_11_1818_195,stimulusRORE28_2IFC_2019_Jun_11_1818_196,2019_Jun_11_1818,2IFC,2,RORE28,
2IFC,23,0,23,0,5.7,-1,correct answer,0.767715562601,False,True,stimulusRORE28_2IFC_2019_Jun_11_1818_197,stimulusRORE28_2IFC_2019_Jun_11_1818_198,2019_Jun_11_1818,2IFC,2,RORE28,
2IFC,24,0,24,0,5.7,-1,wrong answer,0.601030147169,True,False,stimulusRORE28_2IFC_2019_Jun_11_1818_199,stimulusRORE28_2IFC_2019_Jun_11_1818_200,2019_Jun_11_1818,2IFC,2,RORE28,
2IFC,25,0,25,0,5.7,-1,wrong answer,0.49924910767,False,True,stimulusRORE28_2IFC_2019_Jun_11_1818_201,stimulusRORE28_2IFC_2019_Jun_11_1818_202,2019_Jun_11_1818,2IFC,2,RORE28,
2IFC,26,0,26,0,5.7,-1,correct answer,0.366559951566,False,True,stimulusRORE28_2IFC_2019_Jun_11_1818_203,stimulusRORE28_2IFC_2019_Jun_11_1818_204,2019_Jun_11_1818,2IFC,2,RORE28,
2IFC,27,0,27,0,5.7,-1,correct answer,0.602380850352,False,True,stimulusRORE28_2IFC_2019_Jun_11_1818_205,stimulusRORE28_2IFC_2019_Jun_11_1818_206,2019_Jun_11_1818,2IFC,2,RORE28,
2IFC,28,0,28,0,5.7,-1,correct answer,0.535042745993,False,True,stimulusRORE28_2IFC_2019_Jun_11_1818_207,stimulusRORE28_2IFC_2019_Jun_11_1818_208,2019_Jun_11_1818,2IFC,2,RORE28,
2IFC,29,0,29,0,5.7,-1,wrong answer,0.467791267205,True,False,stimulusRORE28_2IFC_2019_Jun_11_1818_209,stimulusRORE28_2IFC_2019_Jun_11_1818_210,2019_Jun_11_1818,2IFC,2,RORE28,
2IFC,30,0,30,0,5.7,-1,correct answer,0.66757466225,True,False,stimulusRORE28_2IFC_2019_Jun_11_1818_211,stimulusRORE28_2IFC_2019_Jun_11_1818_212,2019_Jun_11_1818,2IFC,2,RORE28,
2IFC,31,0,31,0,5.7,-1,correct answer,0.500307089649,False,True,stimulusRORE28_2IFC_2019_Jun_11_1818_213,stimulusRORE28_2IFC_2019_Jun_11_1818_214,2019_Jun_11_1818,2IFC,2,RORE28,
2IFC,32,0,32,0,5.7,-1,correct answer,0.599300097674,True,False,stimulusRORE28_2IFC_2019_Jun_11_1818_215,stimulusRORE28_2IFC_2019_Jun_11_1818_216,2019_Jun_11_1818,2IFC,2,RORE28,
2IFC,33,0,33,0,5.7,-1,correct answer,0.534315665253,False,True,stimulusRORE28_2IFC_2019_Jun_11_1818_217,stimulusRORE28_2IFC_2019_Jun_11_1818_218,2019_Jun_11_1818,2IFC,2,RORE28,
2IFC,34,0,34,0,5.7,-1,correct answer,0.641332836356,True,False,stimulusRORE28_2IFC_2019_Jun_11_1818_219,stimulusRORE28_2IFC_2019_Jun_11_1818_220,2019_Jun_11_1818,2IFC,2,RORE28,
2IFC,35,0,35,0,5.7,-1,correct answer,0.668848593254,True,False,stimulusRORE28_2IFC_2019_Jun_11_1818_221,stimulusRORE28_2IFC_2019_Jun_11_1818_222,2019_Jun_11_1818,2IFC,2,RORE28,
2IFC,36,0,36,0,5.7,-1,no answer,-1,True,False,stimulusRORE28_2IFC_2019_Jun_11_1818_223,stimulusRORE28_2IFC_2019_Jun_11_1818_224,2019_Jun_11_1818,2IFC,2,RORE28,
2IFC,37,0,37,0,5.7,-1,correct answer,0.100302245934,False,True,stimulusRORE28_2IFC_2019_Jun_11_1818_225,stimulusRORE28_2IFC_2019_Jun_11_1818_226,2019_Jun_11_1818,2IFC,2,RORE28,
2IFC,38,0,38,0,5.7,-1,wrong answer,0.132719126064,True,False,stimulusRORE28_2IFC_2019_Jun_11_1818_227,stimulusRORE28_2IFC_2019_Jun_11_1818_228,2019_Jun_11_1818,2IFC,2,RORE28,
2IFC,39,0,39,0,5.7,-1,correct answer,0.534658883698,True,False,stimulusRORE28_2IFC_2019_Jun_11_1818_229,stimulusRORE28_2IFC_2019_Jun_11_1818_230,2019_Jun_11_1818,2IFC,2,RORE28,
2IFC,40,0,40,0,5.7,-1,no answer,-1,True,False,stimulusRORE28_2IFC_2019_Jun_11_1818_231,stimulusRORE28_2IFC_2019_Jun_11_1818_232,2019_Jun_11_1818,2IFC,2,RORE28,
2IFC,41,0,41,0,5.7,-1,correct answer,0.600149110891,True,False,stimulusRORE28_2IFC_2019_Jun_11_1818_233,stimulusRORE28_2IFC_2019_Jun_11_1818_234,2019_Jun_11_1818,2IFC,2,RORE28,
2IFC,42,0,42,0,5.7,-1,correct answer,0.70190223353,True,False,stimulusRORE28_2IFC_2019_Jun_11_1818_235,stimulusRORE28_2IFC_2019_Jun_11_1818_236,2019_Jun_11_1818,2IFC,2,RORE28,
2IFC,43,0,43,0,5.7,-1,correct answer,0.637905991171,False,True,stimulusRORE28_2IFC_2019_Jun_11_1818_237,stimulusRORE28_2IFC_2019_Jun_11_1818_238,2019_Jun_11_1818,2IFC,2,RORE28,
2IFC,44,0,44,0,5.7,-1,wrong answer,0.438750735018,True,False,stimulusRORE28_2IFC_2019_Jun_11_1818_239,stimulusRORE28_2IFC_2019_Jun_11_1818_240,2019_Jun_11_1818,2IFC,2,RORE28,
2IFC,45,0,45,0,5.7,-1,wrong answer,0.467044480145,False,True,stimulusRORE28_2IFC_2019_Jun_11_1818_241,stimulusRORE28_2IFC_2019_Jun_11_1818_242,2019_Jun_11_1818,2IFC,2,RORE28,
2IFC,46,0,46,0,5.7,-1,correct answer,0.500683562364,False,True,stimulusRORE28_2IFC_2019_Jun_11_1818_243,stimulusRORE28_2IFC_2019_Jun_11_1818_244,2019_Jun_11_1818,2IFC,2,RORE28,
2IFC,47,0,47,0,5.7,-1,correct answer,0.535264852457,False,True,stimulusRORE28_2IFC_2019_Jun_11_1818_245,stimulusRORE28_2IFC_2019_Jun_11_1818_246,2019_Jun_11_1818,2IFC,2,RORE28,
2IFC,48,0,48,0,5.7,-1,wrong answer,0.735244079027,False,True,stimulusRORE28_2IFC_2019_Jun_11_1818_247,stimulusRORE28_2IFC_2019_Jun_11_1818_248,2019_Jun_11_1818,2IFC,2,RORE28,
2IFC,49,0,49,0,5.7,-1,correct answer,0.468754002824,False,True,stimulusRORE28_2IFC_2019_Jun_11_1818_249,stimulusRORE28_2IFC_2019_Jun_11_1818_250,2019_Jun_11_1818,2IFC,2,RORE28,
2IFC,50,0,50,0,5.7,-1,correct answer,0.571554844268,False,True,stimulusRORE28_2IFC_2019_Jun_11_1818_251,stimulusRORE28_2IFC_2019_Jun_11_1818_252,2019_Jun_11_1818,2IFC,2,RORE28,
2IFC,51,0,51,0,5.7,-1,correct answer,0.603613726795,False,True,stimulusRORE28_2IFC_2019_Jun_11_1818_253,stimulusRORE28_2IFC_2019_Jun_11_1818_254,2019_Jun_11_1818,2IFC,2,RORE28,
2IFC,52,0,52,0,5.7,-1,correct answer,0.701543414965,True,False,stimulusRORE28_2IFC_2019_Jun_11_1818_255,stimulusRORE28_2IFC_2019_Jun_11_1818_256,2019_Jun_11_1818,2IFC,2,RORE28,
2IFC,53,0,53,0,5.7,-1,correct answer,0.56759839179,False,True,stimulusRORE28_2IFC_2019_Jun_11_1818_257,stimulusRORE28_2IFC_2019_Jun_11_1818_258,2019_Jun_11_1818,2IFC,2,RORE28,
2IFC,54,0,54,0,5.7,-1,correct answer,0.567413645331,True,False,stimulusRORE28_2IFC_2019_Jun_11_1818_259,stimulusRORE28_2IFC_2019_Jun_11_1818_260,2019_Jun_11_1818,2IFC,2,RORE28,
2IFC,55,0,55,0,5.7,-1,wrong answer,0.535575226881,True,False,stimulusRORE28_2IFC_2019_Jun_11_1818_261,stimulusRORE28_2IFC_2019_Jun_11_1818_262,2019_Jun_11_1818,2IFC,2,RORE28,
2IFC,56,0,56,0,5.7,-1,wrong answer,0.470249629579,False,True,stimulusRORE28_2IFC_2019_Jun_11_1818_263,stimulusRORE28_2IFC_2019_Jun_11_1818_264,2019_Jun_11_1818,2IFC,2,RORE28,
2IFC,57,0,57,0,5.7,-1,wrong answer,0.400456857868,True,False,stimulusRORE28_2IFC_2019_Jun_11_1818_265,stimulusRORE28_2IFC_2019_Jun_11_1818_266,2019_Jun_11_1818,2IFC,2,RORE28,
2IFC,58,0,58,0,5.7,-1,correct answer,0.467696430627,True,False,stimulusRORE28_2IFC_2019_Jun_11_1818_267,stimulusRORE28_2IFC_2019_Jun_11_1818_268,2019_Jun_11_1818,2IFC,2,RORE28,
2IFC,59,0,59,0,5.7,-1,correct answer,0.567681733519,False,True,stimulusRORE28_2IFC_2019_Jun_11_1818_269,stimulusRORE28_2IFC_2019_Jun_11_1818_270,2019_Jun_11_1818,2IFC,2,RORE28,
2IFC,60,0,60,0,5.7,-1,correct answer,0.702844031155,True,False,stimulusRORE28_2IFC_2019_Jun_11_1818_271,stimulusRORE28_2IFC_2019_Jun_11_1818_272,2019_Jun_11_1818,2IFC,2,RORE28,
2IFC,61,0,61,0,5.7,-1,correct answer,0.595778415911,False,True,stimulusRORE28_2IFC_2019_Jun_11_1818_273,stimulusRORE28_2IFC_2019_Jun_11_1818_274,2019_Jun_11_1818,2IFC,2,RORE28,
2IFC,62,0,62,0,5.7,-1,wrong answer,0.366756604053,True,False,stimulusRORE28_2IFC_2019_Jun_11_1818_275,stimulusRORE28_2IFC_2019_Jun_11_1818_276,2019_Jun_11_1818,2IFC,2,RORE28,
2IFC,63,0,63,0,5.7,-1,wrong answer,0.532440692186,False,True,stimulusRORE28_2IFC_2019_Jun_11_1818_277,stimulusRORE28_2IFC_2019_Jun_11_1818_278,2019_Jun_11_1818,2IFC,2,RORE28,
2IFC,64,0,64,0,5.7,-1,wrong answer,0.535726719536,True,False,stimulusRORE28_2IFC_2019_Jun_11_1818_279,stimulusRORE28_2IFC_2019_Jun_11_1818_280,2019_Jun_11_1818,2IFC,2,RORE28,
2IFC,65,0,65,0,5.7,-1,wrong answer,0.565705765039,False,True,stimulusRORE28_2IFC_2019_Jun_11_1818_281,stimulusRORE28_2IFC_2019_Jun_11_1818_282,2019_Jun_11_1818,2IFC,2,RORE28,
2IFC,66,0,66,0,5.7,-1,correct answer,0.29989514593,False,True,stimulusRORE28_2IFC_2019_Jun_11_1818_283,stimulusRORE28_2IFC_2019_Jun_11_1818_284,2019_Jun_11_1818,2IFC,2,RORE28,
2IFC,67,0,67,0,5.7,-1,wrong answer,0.501539966092,True,False,stimulusRORE28_2IFC_2019_Jun_11_1818_285,stimulusRORE28_2IFC_2019_Jun_11_1818_286,2019_Jun_11_1818,2IFC,2,RORE28,
2IFC,68,0,68,0,5.7,-1,correct answer,0.568568516988,True,False,stimulusRORE28_2IFC_2019_Jun_11_1818_287,stimulusRORE28_2IFC_2019_Jun_11_1818_288,2019_Jun_11_1818,2IFC,2,RORE28,
2IFC,69,0,69,0,5.7,-1,correct answer,0.472322487272,False,True,stimulusRORE28_2IFC_2019_Jun_11_1818_289,stimulusRORE28_2IFC_2019_Jun_11_1818_290,2019_Jun_11_1818,2IFC,2,RORE28,
2IFC,70,0,70,0,5.7,-1,correct answer,0.499632559251,False,True,stimulusRORE28_2IFC_2019_Jun_11_1818_291,stimulusRORE28_2IFC_2019_Jun_11_1818_292,2019_Jun_11_1818,2IFC,2,RORE28,
2IFC,71,0,71,0,5.7,-1,wrong answer,0.536007534247,True,False,stimulusRORE28_2IFC_2019_Jun_11_1818_293,stimulusRORE28_2IFC_2019_Jun_11_1818_294,2019_Jun_11_1818,2IFC,2,RORE28,
2IFC,72,0,72,0,5.7,-1,correct answer,0.300093851518,True,False,stimulusRORE28_2IFC_2019_Jun_11_1818_295,stimulusRORE28_2IFC_2019_Jun_11_1818_296,2019_Jun_11_1818,2IFC,2,RORE28,
2IFC,73,0,73,0,5.7,-1,correct answer,0.533793448005,True,False,stimulusRORE28_2IFC_2019_Jun_11_1818_297,stimulusRORE28_2IFC_2019_Jun_11_1818_298,2019_Jun_11_1818,2IFC,2,RORE28,
2IFC,74,0,74,0,5.7,-1,correct answer,0.467023131903,False,True,stimulusRORE28_2IFC_2019_Jun_11_1818_299,stimulusRORE28_2IFC_2019_Jun_11_1818_300,2019_Jun_11_1818,2IFC,2,RORE28,
2IFC,0,0,0,0,1.4,-1,wrong answer,0.766960974783,False,True,stimulusRORE28_2IFC_2019_Jun_11_1818_301,stimulusRORE28_2IFC_2019_Jun_11_1818_302,2019_Jun_11_1818,2IFC,2,RORE28,
2IFC,1,0,1,0,1.4,-1,correct answer,0.600893435068,False,True,stimulusRORE28_2IFC_2019_Jun_11_1818_303,stimulusRORE28_2IFC_2019_Jun_11_1818_304,2019_Jun_11_1818,2IFC,2,RORE28,
2IFC,2,0,2,0,1.4,-1,correct answer,0.534976647701,False,True,stimulusRORE28_2IFC_2019_Jun_11_1818_305,stimulusRORE28_2IFC_2019_Jun_11_1818_306,2019_Jun_11_1818,2IFC,2,RORE28,
2IFC,3,0,3,0,1.4,-1,correct answer,0.566774011124,False,True,stimulusRORE28_2IFC_2019_Jun_11_1818_307,stimulusRORE28_2IFC_2019_Jun_11_1818_308,2019_Jun_11_1818,2IFC,2,RORE28,
2IFC,4,0,4,0,1.4,-1,wrong answer,0.542566040996,True,False,stimulusRORE28_2IFC_2019_Jun_11_1818_309,stimulusRORE28_2IFC_2019_Jun_11_1818_310,2019_Jun_11_1818,2IFC,2,RORE28,
2IFC,5,0,5,0,1.4,-1,wrong answer,0.06713159848,False,True,stimulusRORE28_2IFC_2019_Jun_11_1818_311,stimulusRORE28_2IFC_2019_Jun_11_1818_312,2019_Jun_11_1818,2IFC,2,RORE28,
2IFC,6,0,6,0,1.4,-1,correct answer,0.571104883682,False,True,stimulusRORE28_2IFC_2019_Jun_11_1818_313,stimulusRORE28_2IFC_2019_Jun_11_1818_314,2019_Jun_11_1818,2IFC,2,RORE28,
2IFC,7,0,7,0,1.4,-1,correct answer,0.604016884696,False,True,stimulusRORE28_2IFC_2019_Jun_11_1818_315,stimulusRORE28_2IFC_2019_Jun_11_1818_316,2019_Jun_11_1818,2IFC,2,RORE28,
2IFC,8,0,8,0,1.4,-1,wrong answer,0.502406633459,True,False,stimulusRORE28_2IFC_2019_Jun_11_1818_317,stimulusRORE28_2IFC_2019_Jun_11_1818_318,2019_Jun_11_1818,2IFC,2,RORE28,
2IFC,9,0,9,0,1.4,-1,wrong answer,0.566034614109,True,False,stimulusRORE28_2IFC_2019_Jun_11_1818_319,stimulusRORE28_2IFC_2019_Jun_11_1818_320,2019_Jun_11_1818,2IFC,2,RORE28,
2IFC,10,0,10,0,1.4,-1,wrong answer,0.600224651862,True,False,stimulusRORE28_2IFC_2019_Jun_11_1818_321,stimulusRORE28_2IFC_2019_Jun_11_1818_322,2019_Jun_11_1818,2IFC,2,RORE28,
2IFC,11,0,11,0,1.4,-1,no answer,-1,True,False,stimulusRORE28_2IFC_2019_Jun_11_1818_323,stimulusRORE28_2IFC_2019_Jun_11_1818_324,2019_Jun_11_1818,2IFC,2,RORE28,
2IFC,12,0,12,0,1.4,-1,wrong answer,0.596630713902,True,False,stimulusRORE28_2IFC_2019_Jun_11_1818_325,stimulusRORE28_2IFC_2019_Jun_11_1818_326,2019_Jun_11_1818,2IFC,2,RORE28,
2IFC,13,0,13,0,1.4,-1,correct answer,0.564064393751,False,True,stimulusRORE28_2IFC_2019_Jun_11_1818_327,stimulusRORE28_2IFC_2019_Jun_11_1818_328,2019_Jun_11_1818,2IFC,2,RORE28,
2IFC,14,0,14,0,1.4,-1,correct answer,0.602913331706,False,True,stimulusRORE28_2IFC_2019_Jun_11_1818_329,stimulusRORE28_2IFC_2019_Jun_11_1818_330,2019_Jun_11_1818,2IFC,2,RORE28,
2IFC,15,0,15,0,1.4,-1,no answer,-1,False,True,stimulusRORE28_2IFC_2019_Jun_11_1818_331,stimulusRORE28_2IFC_2019_Jun_11_1818_332,2019_Jun_11_1818,2IFC,2,RORE28,
2IFC,16,0,16,0,1.4,-1,wrong answer,0.600750153419,False,True,stimulusRORE28_2IFC_2019_Jun_11_1818_333,stimulusRORE28_2IFC_2019_Jun_11_1818_334,2019_Jun_11_1818,2IFC,2,RORE28,
2IFC,17,0,17,0,1.4,-1,correct answer,0.543435992207,False,True,stimulusRORE28_2IFC_2019_Jun_11_1818_335,stimulusRORE28_2IFC_2019_Jun_11_1818_336,2019_Jun_11_1818,2IFC,2,RORE28,
2IFC,18,0,18,0,1.4,-1,correct answer,0.568075449206,False,True,stimulusRORE28_2IFC_2019_Jun_11_1818_337,stimulusRORE28_2IFC_2019_Jun_11_1818_338,2019_Jun_11_1818,2IFC,2,RORE28,
2IFC,19,0,19,0,1.4,-1,correct answer,0.568589865696,False,True,stimulusRORE28_2IFC_2019_Jun_11_1818_339,stimulusRORE28_2IFC_2019_Jun_11_1818_340,2019_Jun_11_1818,2IFC,2,RORE28,
2IFC,20,0,20,0,1.4,-1,correct answer,0.83503190754,False,True,stimulusRORE28_2IFC_2019_Jun_11_1818_341,stimulusRORE28_2IFC_2019_Jun_11_1818_342,2019_Jun_11_1818,2IFC,2,RORE28,
2IFC,21,0,21,0,1.4,-1,correct answer,0.769939091057,False,True,stimulusRORE28_2IFC_2019_Jun_11_1818_343,stimulusRORE28_2IFC_2019_Jun_11_1818_344,2019_Jun_11_1818,2IFC,2,RORE28,
2IFC,22,0,22,0,1.4,-1,wrong answer,0.734644268174,True,False,stimulusRORE28_2IFC_2019_Jun_11_1818_345,stimulusRORE28_2IFC_2019_Jun_11_1818_346,2019_Jun_11_1818,2IFC,2,RORE28,
2IFC,23,0,23,0,1.4,-1,no answer,-1,True,False,stimulusRORE28_2IFC_2019_Jun_11_1818_347,stimulusRORE28_2IFC_2019_Jun_11_1818_348,2019_Jun_11_1818,2IFC,2,RORE28,
2IFC,24,0,24,0,1.4,-1,correct answer,0.568626404274,False,True,stimulusRORE28_2IFC_2019_Jun_11_1818_349,stimulusRORE28_2IFC_2019_Jun_11_1818_350,2019_Jun_11_1818,2IFC,2,RORE28,
2IFC,25,0,25,0,1.4,-1,correct answer,0.635028869845,True,False,stimulusRORE28_2IFC_2019_Jun_11_1818_351,stimulusRORE28_2IFC_2019_Jun_11_1818_352,2019_Jun_11_1818,2IFC,2,RORE28,
2IFC,26,0,26,0,1.4,-1,correct answer,0.601461633574,False,True,stimulusRORE28_2IFC_2019_Jun_11_1818_353,stimulusRORE28_2IFC_2019_Jun_11_1818_354,2019_Jun_11_1818,2IFC,2,RORE28,
2IFC,27,0,27,0,1.4,-1,wrong answer,0.53489289619,False,True,stimulusRORE28_2IFC_2019_Jun_11_1818_355,stimulusRORE28_2IFC_2019_Jun_11_1818_356,2019_Jun_11_1818,2IFC,2,RORE28,
2IFC,28,0,28,0,1.4,-1,wrong answer,0.834577431437,False,True,stimulusRORE28_2IFC_2019_Jun_11_1818_357,stimulusRORE28_2IFC_2019_Jun_11_1818_358,2019_Jun_11_1818,2IFC,2,RORE28,
2IFC,29,0,29,0,1.4,-1,correct answer,0.76903095888,True,False,stimulusRORE28_2IFC_2019_Jun_11_1818_359,stimulusRORE28_2IFC_2019_Jun_11_1818_360,2019_Jun_11_1818,2IFC,2,RORE28,
2IFC,30,0,30,0,1.4,-1,correct answer,0.567612350453,False,True,stimulusRORE28_2IFC_2019_Jun_11_1818_361,stimulusRORE28_2IFC_2019_Jun_11_1818_362,2019_Jun_11_1818,2IFC,2,RORE28,
2IFC,31,0,31,0,1.4,-1,wrong answer,0.562849170994,True,False,stimulusRORE28_2IFC_2019_Jun_11_1818_363,stimulusRORE28_2IFC_2019_Jun_11_1818_364,2019_Jun_11_1818,2IFC,2,RORE28,
2IFC,32,0,32,0,1.4,-1,correct answer,0.600846222136,True,False,stimulusRORE28_2IFC_2019_Jun_11_1818_365,stimulusRORE28_2IFC_2019_Jun_11_1818_366,2019_Jun_11_1818,2IFC,2,RORE28,
2IFC,33,0,33,0,1.4,-1,correct answer,0.776475838386,False,True,stimulusRORE28_2IFC_2019_Jun_11_1818_367,stimulusRORE28_2IFC_2019_Jun_11_1818_368,2019_Jun_11_1818,2IFC,2,RORE28,
2IFC,34,0,34,0,1.4,-1,correct answer,0.700912402477,False,True,stimulusRORE28_2IFC_2019_Jun_11_1818_369,stimulusRORE28_2IFC_2019_Jun_11_1818_370,2019_Jun_11_1818,2IFC,2,RORE28,
2IFC,35,0,35,0,1.4,-1,wrong answer,0.73531715665,True,False,stimulusRORE28_2IFC_2019_Jun_11_1818_371,stimulusRORE28_2IFC_2019_Jun_11_1818_372,2019_Jun_11_1818,2IFC,2,RORE28,
2IFC,36,0,36,0,1.4,-1,correct answer,0.469438386615,True,False,stimulusRORE28_2IFC_2019_Jun_11_1818_373,stimulusRORE28_2IFC_2019_Jun_11_1818_374,2019_Jun_11_1818,2IFC,2,RORE28,
2IFC,37,0,37,0,1.4,-1,wrong answer,0.63531091623,False,True,stimulusRORE28_2IFC_2019_Jun_11_1818_375,stimulusRORE28_2IFC_2019_Jun_11_1818_376,2019_Jun_11_1818,2IFC,2,RORE28,
2IFC,38,0,38,0,1.4,-1,correct answer,0.700877916068,False,True,stimulusRORE28_2IFC_2019_Jun_11_1818_377,stimulusRORE28_2IFC_2019_Jun_11_1818_378,2019_Jun_11_1818,2IFC,2,RORE28,
2IFC,39,0,39,0,1.4,-1,correct answer,0.670613539405,False,True,stimulusRORE28_2IFC_2019_Jun_11_1818_379,stimulusRORE28_2IFC_2019_Jun_11_1818_380,2019_Jun_11_1818,2IFC,2,RORE28,
2IFC,40,0,40,0,1.4,-1,wrong answer,0.70159432292,False,True,stimulusRORE28_2IFC_2019_Jun_11_1818_381,stimulusRORE28_2IFC_2019_Jun_11_1818_382,2019_Jun_11_1818,2IFC,2,RORE28,
2IFC,41,0,41,0,1.4,-1,wrong answer,0.802246354986,True,False,stimulusRORE28_2IFC_2019_Jun_11_1818_383,stimulusRORE28_2IFC_2019_Jun_11_1818_384,2019_Jun_11_1818,2IFC,2,RORE28,
2IFC,42,0,42,0,1.4,-1,correct answer,0.401366222184,False,True,stimulusRORE28_2IFC_2019_Jun_11_1818_385,stimulusRORE28_2IFC_2019_Jun_11_1818_386,2019_Jun_11_1818,2IFC,2,RORE28,
2IFC,43,0,43,0,1.4,-1,correct answer,0.634147422854,True,False,stimulusRORE28_2IFC_2019_Jun_11_1818_387,stimulusRORE28_2IFC_2019_Jun_11_1818_388,2019_Jun_11_1818,2IFC,2,RORE28,
2IFC,44,0,44,0,1.4,-1,correct answer,0.568221603986,False,True,stimulusRORE28_2IFC_2019_Jun_11_1818_389,stimulusRORE28_2IFC_2019_Jun_11_1818_390,2019_Jun_11_1818,2IFC,2,RORE28,
2IFC,45,0,45,0,1.4,-1,correct answer,0.333821201231,False,True,stimulusRORE28_2IFC_2019_Jun_11_1818_391,stimulusRORE28_2IFC_2019_Jun_11_1818_392,2019_Jun_11_1818,2IFC,2,RORE28,
2IFC,46,0,46,0,1.4,-1,correct answer,0.534642872401,True,False,stimulusRORE28_2IFC_2019_Jun_11_1818_393,stimulusRORE28_2IFC_2019_Jun_11_1818_394,2019_Jun_11_1818,2IFC,2,RORE28,
2IFC,47,0,47,0,1.4,-1,correct answer,0.465980750509,False,True,stimulusRORE28_2IFC_2019_Jun_11_1818_395,stimulusRORE28_2IFC_2019_Jun_11_1818_396,2019_Jun_11_1818,2IFC,2,RORE28,
2IFC,48,0,48,0,1.4,-1,wrong answer,0.464093049988,False,True,stimulusRORE28_2IFC_2019_Jun_11_1818_397,stimulusRORE28_2IFC_2019_Jun_11_1818_398,2019_Jun_11_1818,2IFC,2,RORE28,
2IFC,49,0,49,0,1.4,-1,wrong answer,0.402208256535,True,False,stimulusRORE28_2IFC_2019_Jun_11_1818_399,stimulusRORE28_2IFC_2019_Jun_11_1818_400,2019_Jun_11_1818,2IFC,2,RORE28,
2IFC,50,0,50,0,1.4,-1,wrong answer,0.400971685536,True,False,stimulusRORE28_2IFC_2019_Jun_11_1818_401,stimulusRORE28_2IFC_2019_Jun_11_1818_402,2019_Jun_11_1818,2IFC,2,RORE28,
2IFC,51,0,51,0,1.4,-1,correct answer,0.443288112991,False,True,stimulusRORE28_2IFC_2019_Jun_11_1818_403,stimulusRORE28_2IFC_2019_Jun_11_1818_404,2019_Jun_11_1818,2IFC,2,RORE28,
2IFC,52,0,52,0,1.4,-1,wrong answer,0.668246319052,True,False,stimulusRORE28_2IFC_2019_Jun_11_1818_405,stimulusRORE28_2IFC_2019_Jun_11_1818_406,2019_Jun_11_1818,2IFC,2,RORE28,
2IFC,53,0,53,0,1.4,-1,correct answer,0.636682146695,False,True,stimulusRORE28_2IFC_2019_Jun_11_1818_407,stimulusRORE28_2IFC_2019_Jun_11_1818_408,2019_Jun_11_1818,2IFC,2,RORE28,
2IFC,54,0,54,0,1.4,-1,wrong answer,0.502698532771,True,False,stimulusRORE28_2IFC_2019_Jun_11_1818_409,stimulusRORE28_2IFC_2019_Jun_11_1818_410,2019_Jun_11_1818,2IFC,2,RORE28,
2IFC,55,0,55,0,1.4,-1,correct answer,0.676582498476,True,False,stimulusRORE28_2IFC_2019_Jun_11_1818_411,stimulusRORE28_2IFC_2019_Jun_11_1818_412,2019_Jun_11_1818,2IFC,2,RORE28,
2IFC,56,0,56,0,1.4,-1,wrong answer,0.602322142106,False,True,stimulusRORE28_2IFC_2019_Jun_11_1818_413,stimulusRORE28_2IFC_2019_Jun_11_1818_414,2019_Jun_11_1818,2IFC,2,RORE28,
2IFC,57,0,57,0,1.4,-1,correct answer,0.43160596583,True,False,stimulusRORE28_2IFC_2019_Jun_11_1818_415,stimulusRORE28_2IFC_2019_Jun_11_1818_416,2019_Jun_11_1818,2IFC,2,RORE28,
2IFC,58,0,58,0,1.4,-1,correct answer,0.632605814841,False,True,stimulusRORE28_2IFC_2019_Jun_11_1818_417,stimulusRORE28_2IFC_2019_Jun_11_1818_418,2019_Jun_11_1818,2IFC,2,RORE28,
2IFC,59,0,59,0,1.4,-1,wrong answer,0.603666276671,True,False,stimulusRORE28_2IFC_2019_Jun_11_1818_419,stimulusRORE28_2IFC_2019_Jun_11_1818_420,2019_Jun_11_1818,2IFC,2,RORE28,
2IFC,60,0,60,0,1.4,-1,correct answer,0.502836066298,True,False,stimulusRORE28_2IFC_2019_Jun_11_1818_421,stimulusRORE28_2IFC_2019_Jun_11_1818_422,2019_Jun_11_1818,2IFC,2,RORE28,
2IFC,61,0,61,0,1.4,-1,correct answer,0.63348438777,True,False,stimulusRORE28_2IFC_2019_Jun_11_1818_423,stimulusRORE28_2IFC_2019_Jun_11_1818_424,2019_Jun_11_1818,2IFC,2,RORE28,
2IFC,62,0,62,0,1.4,-1,wrong answer,0.704996535089,False,True,stimulusRORE28_2IFC_2019_Jun_11_1818_425,stimulusRORE28_2IFC_2019_Jun_11_1818_426,2019_Jun_11_1818,2IFC,2,RORE28,
2IFC,63,0,63,0,1.4,-1,wrong answer,0.601292897947,True,False,stimulusRORE28_2IFC_2019_Jun_11_1818_427,stimulusRORE28_2IFC_2019_Jun_11_1818_428,2019_Jun_11_1818,2IFC,2,RORE28,
2IFC,64,0,64,0,1.4,-1,correct answer,0.566716945264,True,False,stimulusRORE28_2IFC_2019_Jun_11_1818_429,stimulusRORE28_2IFC_2019_Jun_11_1818_430,2019_Jun_11_1818,2IFC,2,RORE28,
2IFC,65,0,65,0,1.4,-1,correct answer,0.533708875068,True,False,stimulusRORE28_2IFC_2019_Jun_11_1818_431,stimulusRORE28_2IFC_2019_Jun_11_1818_432,2019_Jun_11_1818,2IFC,2,RORE28,
2IFC,66,0,66,0,1.4,-1,wrong answer,0.734334715176,True,False,stimulusRORE28_2IFC_2019_Jun_11_1818_433,stimulusRORE28_2IFC_2019_Jun_11_1818_434,2019_Jun_11_1818,2IFC,2,RORE28,
2IFC,67,0,67,0,1.4,-1,correct answer,0.563035970554,True,False,stimulusRORE28_2IFC_2019_Jun_11_1818_435,stimulusRORE28_2IFC_2019_Jun_11_1818_436,2019_Jun_11_1818,2IFC,2,RORE28,
2IFC,68,0,68,0,1.4,-1,correct answer,0.696996594314,False,True,stimulusRORE28_2IFC_2019_Jun_11_1818_437,stimulusRORE28_2IFC_2019_Jun_11_1818_438,2019_Jun_11_1818,2IFC,2,RORE28,
2IFC,69,0,69,0,1.4,-1,no answer,-1,True,False,stimulusRORE28_2IFC_2019_Jun_11_1818_439,stimulusRORE28_2IFC_2019_Jun_11_1818_440,2019_Jun_11_1818,2IFC,2,RORE28,
2IFC,70,0,70,0,1.4,-1,wrong answer,0.800808615517,False,True,stimulusRORE28_2IFC_2019_Jun_11_1818_441,stimulusRORE28_2IFC_2019_Jun_11_1818_442,2019_Jun_11_1818,2IFC,2,RORE28,
2IFC,71,0,71,0,1.4,-1,wrong answer,0.534256136045,True,False,stimulusRORE28_2IFC_2019_Jun_11_1818_443,stimulusRORE28_2IFC_2019_Jun_11_1818_444,2019_Jun_11_1818,2IFC,2,RORE28,
2IFC,72,0,72,0,1.4,-1,wrong answer,0.767695856281,False,True,stimulusRORE28_2IFC_2019_Jun_11_1818_445,stimulusRORE28_2IFC_2019_Jun_11_1818_446,2019_Jun_11_1818,2IFC,2,RORE28,
2IFC,73,0,73,0,1.4,-1,wrong answer,0.600550627336,False,True,stimulusRORE28_2IFC_2019_Jun_11_1818_447,stimulusRORE28_2IFC_2019_Jun_11_1818_448,2019_Jun_11_1818,2IFC,2,RORE28,
2IFC,74,0,74,0,1.4,-1,no answer,-1,False,True,stimulusRORE28_2IFC_2019_Jun_11_1818_449,stimulusRORE28_2IFC_2019_Jun_11_1818_450,2019_Jun_11_1818,2IFC,2,RORE28,
2IFC,0,0,0,0,3.7,-1,correct answer,0.801518042572,True,False,stimulusRORE28_2IFC_2019_Jun_11_1818_451,stimulusRORE28_2IFC_2019_Jun_11_1818_452,2019_Jun_11_1818,2IFC,2,RORE28,
2IFC,1,0,1,0,3.7,-1,correct answer,0.500573125202,True,False,stimulusRORE28_2IFC_2019_Jun_11_1818_453,stimulusRORE28_2IFC_2019_Jun_11_1818_454,2019_Jun_11_1818,2IFC,2,RORE28,
2IFC,2,0,2,0,3.7,-1,wrong answer,0.537770427763,False,True,stimulusRORE28_2IFC_2019_Jun_11_1818_455,stimulusRORE28_2IFC_2019_Jun_11_1818_456,2019_Jun_11_1818,2IFC,2,RORE28,
2IFC,3,0,3,0,3.7,-1,wrong answer,0.567535988521,False,True,stimulusRORE28_2IFC_2019_Jun_11_1818_457,stimulusRORE28_2IFC_2019_Jun_11_1818_458,2019_Jun_11_1818,2IFC,2,RORE28,
2IFC,4,0,4,0,3.7,-1,correct answer,0.434062275104,True,False,stimulusRORE28_2IFC_2019_Jun_11_1818_459,stimulusRORE28_2IFC_2019_Jun_11_1818_460,2019_Jun_11_1818,2IFC,2,RORE28,
2IFC,5,0,5,0,3.7,-1,correct answer,0.63367118733,False,True,stimulusRORE28_2IFC_2019_Jun_11_1818_461,stimulusRORE28_2IFC_2019_Jun_11_1818_462,2019_Jun_11_1818,2IFC,2,RORE28,
2IFC,6,0,6,0,3.7,-1,correct answer,0.534723340068,True,False,stimulusRORE28_2IFC_2019_Jun_11_1818_463,stimulusRORE28_2IFC_2019_Jun_11_1818_464,2019_Jun_11_1818,2IFC,2,RORE28,
2IFC,7,0,7,0,3.7,-1,correct answer,0.603835012298,False,True,stimulusRORE28_2IFC_2019_Jun_11_1818_465,stimulusRORE28_2IFC_2019_Jun_11_1818_466,2019_Jun_11_1818,2IFC,2,RORE28,
2IFC,8,0,8,0,3.7,-1,correct answer,0.50277448399,True,False,stimulusRORE28_2IFC_2019_Jun_11_1818_467,stimulusRORE28_2IFC_2019_Jun_11_1818_468,2019_Jun_11_1818,2IFC,2,RORE28,
2IFC,9,0,9,0,3.7,-1,correct answer,0.467763760593,True,False,stimulusRORE28_2IFC_2019_Jun_11_1818_469,stimulusRORE28_2IFC_2019_Jun_11_1818_470,2019_Jun_11_1818,2IFC,2,RORE28,
2IFC,10,0,10,0,3.7,-1,correct answer,0.46744065918,True,False,stimulusRORE28_2IFC_2019_Jun_11_1818_471,stimulusRORE28_2IFC_2019_Jun_11_1818_472,2019_Jun_11_1818,2IFC,2,RORE28,
2IFC,11,0,11,0,3.7,-1,wrong answer,0.702430609148,True,False,stimulusRORE28_2IFC_2019_Jun_11_1818_473,stimulusRORE28_2IFC_2019_Jun_11_1818_474,2019_Jun_11_1818,2IFC,2,RORE28,
2IFC,12,0,12,0,3.7,-1,wrong answer,0.56751546124,True,False,stimulusRORE28_2IFC_2019_Jun_11_1818_475,stimulusRORE28_2IFC_2019_Jun_11_1818_476,2019_Jun_11_1818,2IFC,2,RORE28,
2IFC,13,0,13,0,3.7,-1,correct answer,0.668892521411,False,True,stimulusRORE28_2IFC_2019_Jun_11_1818_477,stimulusRORE28_2IFC_2019_Jun_11_1818_478,2019_Jun_11_1818,2IFC,2,RORE28,
2IFC,14,0,14,0,3.7,-1,wrong answer,0.634811279364,False,True,stimulusRORE28_2IFC_2019_Jun_11_1818_479,stimulusRORE28_2IFC_2019_Jun_11_1818_480,2019_Jun_11_1818,2IFC,2,RORE28,
2IFC,15,0,15,0,3.7,-1,correct answer,0.535731645767,False,True,stimulusRORE28_2IFC_2019_Jun_11_1818_481,stimulusRORE28_2IFC_2019_Jun_11_1818_482,2019_Jun_11_1818,2IFC,2,RORE28,
2IFC,16,0,16,0,3.7,-1,correct answer,0.434024915565,True,False,stimulusRORE28_2IFC_2019_Jun_11_1818_483,stimulusRORE28_2IFC_2019_Jun_11_1818_484,2019_Jun_11_1818,2IFC,2,RORE28,
2IFC,17,0,17,0,3.7,-1,correct answer,0.398709154688,True,False,stimulusRORE28_2IFC_2019_Jun_11_1818_485,stimulusRORE28_2IFC_2019_Jun_11_1818_486,2019_Jun_11_1818,2IFC,2,RORE28,
2IFC,18,0,18,0,3.7,-1,correct answer,0.542860403657,False,True,stimulusRORE28_2IFC_2019_Jun_11_1818_487,stimulusRORE28_2IFC_2019_Jun_11_1818_488,2019_Jun_11_1818,2IFC,2,RORE28,
2IFC,19,0,19,0,3.7,-1,correct answer,0.468585267197,True,False,stimulusRORE28_2IFC_2019_Jun_11_1818_489,stimulusRORE28_2IFC_2019_Jun_11_1818_490,2019_Jun_11_1818,2IFC,2,RORE28,
2IFC,20,0,20,0,3.7,-1,wrong answer,0.533574215602,False,True,stimulusRORE28_2IFC_2019_Jun_11_1818_491,stimulusRORE28_2IFC_2019_Jun_11_1818_492,2019_Jun_11_1818,2IFC,2,RORE28,
2IFC,21,0,21,0,3.7,-1,correct answer,0.635698062833,False,True,stimulusRORE28_2IFC_2019_Jun_11_1818_493,stimulusRORE28_2IFC_2019_Jun_11_1818_494,2019_Jun_11_1818,2IFC,2,RORE28,
2IFC,22,0,22,0,3.7,-1,correct answer,0.435941354372,True,False,stimulusRORE28_2IFC_2019_Jun_11_1818_495,stimulusRORE28_2IFC_2019_Jun_11_1818_496,2019_Jun_11_1818,2IFC,2,RORE28,
2IFC,23,0,23,0,3.7,-1,correct answer,0.73515540082,False,True,stimulusRORE28_2IFC_2019_Jun_11_1818_497,stimulusRORE28_2IFC_2019_Jun_11_1818_498,2019_Jun_11_1818,2IFC,2,RORE28,
2IFC,24,0,24,0,3.7,-1,wrong answer,0.568453563377,False,True,stimulusRORE28_2IFC_2019_Jun_11_1818_499,stimulusRORE28_2IFC_2019_Jun_11_1818_500,2019_Jun_11_1818,2IFC,2,RORE28,
2IFC,25,0,25,0,3.7,-1,wrong answer,0.635863924865,True,False,stimulusRORE28_2IFC_2019_Jun_11_1818_501,stimulusRORE28_2IFC_2019_Jun_11_1818_502,2019_Jun_11_1818,2IFC,2,RORE28,
2IFC,26,0,26,0,3.7,-1,wrong answer,0.366608396173,False,True,stimulusRORE28_2IFC_2019_Jun_11_1818_503,stimulusRORE28_2IFC_2019_Jun_11_1818_504,2019_Jun_11_1818,2IFC,2,RORE28,
2IFC,27,0,27,0,3.7,-1,correct answer,0.441332261544,True,False,stimulusRORE28_2IFC_2019_Jun_11_1818_505,stimulusRORE28_2IFC_2019_Jun_11_1818_506,2019_Jun_11_1818,2IFC,2,RORE28,
2IFC,28,0,28,0,3.7,-1,wrong answer,0.668260277715,False,True,stimulusRORE28_2IFC_2019_Jun_11_1818_507,stimulusRORE28_2IFC_2019_Jun_11_1818_508,2019_Jun_11_1818,2IFC,2,RORE28,
2IFC,29,0,29,0,3.7,-1,correct answer,0.576193216722,False,True,stimulusRORE28_2IFC_2019_Jun_11_1818_509,stimulusRORE28_2IFC_2019_Jun_11_1818_510,2019_Jun_11_1818,2IFC,2,RORE28,
2IFC,30,0,30,0,3.7,-1,correct answer,0.533749109134,True,False,stimulusRORE28_2IFC_2019_Jun_11_1818_511,stimulusRORE28_2IFC_2019_Jun_11_1818_512,2019_Jun_11_1818,2IFC,2,RORE28,
2IFC,31,0,31,0,3.7,-1,wrong answer,0.462221361231,False,True,stimulusRORE28_2IFC_2019_Jun_11_1818_513,stimulusRORE28_2IFC_2019_Jun_11_1818_514,2019_Jun_11_1818,2IFC,2,RORE28,
2IFC,32,0,32,0,3.7,-1,correct answer,0.468339759856,True,False,stimulusRORE28_2IFC_2019_Jun_11_1818_515,stimulusRORE28_2IFC_2019_Jun_11_1818_516,2019_Jun_11_1818,2IFC,2,RORE28,
2IFC,33,0,33,0,3.7,-1,correct answer,0.572682209313,False,True,stimulusRORE28_2IFC_2019_Jun_11_1818_517,stimulusRORE28_2IFC_2019_Jun_11_1818_518,2019_Jun_11_1818,2IFC,2,RORE28,
2IFC,34,0,34,0,3.7,-1,correct answer,0.703877380583,False,True,stimulusRORE28_2IFC_2019_Jun_11_1818_519,stimulusRORE28_2IFC_2019_Jun_11_1818_520,2019_Jun_11_1818,2IFC,2,RORE28,
2IFC,35,0,35,0,3.7,-1,wrong answer,0.677486525849,False,True,stimulusRORE28_2IFC_2019_Jun_11_1818_521,stimulusRORE28_2IFC_2019_Jun_11_1818_522,2019_Jun_11_1818,2IFC,2,RORE28,
2IFC,36,0,36,0,3.7,-1,correct answer,0.466319452506,False,True,stimulusRORE28_2IFC_2019_Jun_11_1818_523,stimulusRORE28_2IFC_2019_Jun_11_1818_524,2019_Jun_11_1818,2IFC,2,RORE28,
2IFC,37,0,37,0,3.7,-1,correct answer,0.767160090618,True,False,stimulusRORE28_2IFC_2019_Jun_11_1818_525,stimulusRORE28_2IFC_2019_Jun_11_1818_526,2019_Jun_11_1818,2IFC,2,RORE28,
2IFC,38,0,38,0,3.7,-1,no answer,-1,True,False,stimulusRORE28_2IFC_2019_Jun_11_1818_527,stimulusRORE28_2IFC_2019_Jun_11_1818_528,2019_Jun_11_1818,2IFC,2,RORE28,
2IFC,39,0,39,0,3.7,-1,correct answer,0.667402642779,False,True,stimulusRORE28_2IFC_2019_Jun_11_1818_529,stimulusRORE28_2IFC_2019_Jun_11_1818_530,2019_Jun_11_1818,2IFC,2,RORE28,
2IFC,40,0,40,0,3.7,-1,correct answer,0.670210381504,True,False,stimulusRORE28_2IFC_2019_Jun_11_1818_531,stimulusRORE28_2IFC_2019_Jun_11_1818_532,2019_Jun_11_1818,2IFC,2,RORE28,
2IFC,41,0,41,0,3.7,-1,correct answer,0.704935774207,False,True,stimulusRORE28_2IFC_2019_Jun_11_1818_533,stimulusRORE28_2IFC_2019_Jun_11_1818_534,2019_Jun_11_1818,2IFC,2,RORE28,
2IFC,42,0,42,0,3.7,-1,correct answer,0.56777574867,False,True,stimulusRORE28_2IFC_2019_Jun_11_1818_535,stimulusRORE28_2IFC_2019_Jun_11_1818_536,2019_Jun_11_1818,2IFC,2,RORE28,
2IFC,43,0,43,0,3.7,-1,no answer,-1,False,True,stimulusRORE28_2IFC_2019_Jun_11_1818_537,stimulusRORE28_2IFC_2019_Jun_11_1818_538,2019_Jun_11_1818,2IFC,2,RORE28,
2IFC,44,0,44,0,3.7,-1,wrong answer,0.5344458092,True,False,stimulusRORE28_2IFC_2019_Jun_11_1818_539,stimulusRORE28_2IFC_2019_Jun_11_1818_540,2019_Jun_11_1818,2IFC,2,RORE28,
2IFC,45,0,45,0,3.7,-1,wrong answer,0.502076962963,False,True,stimulusRORE28_2IFC_2019_Jun_11_1818_541,stimulusRORE28_2IFC_2019_Jun_11_1818_542,2019_Jun_11_1818,2IFC,2,RORE28,
2IFC,46,0,46,0,3.7,-1,correct answer,0.435240137856,True,False,stimulusRORE28_2IFC_2019_Jun_11_1818_543,stimulusRORE28_2IFC_2019_Jun_11_1818_544,2019_Jun_11_1818,2IFC,2,RORE28,
2IFC,47,0,47,0,3.7,-1,correct answer,0.406562940218,True,False,stimulusRORE28_2IFC_2019_Jun_11_1818_545,stimulusRORE28_2IFC_2019_Jun_11_1818_546,2019_Jun_11_1818,2IFC,2,RORE28,
2IFC,48,0,48,0,3.7,-1,correct answer,0.868095811922,False,True,stimulusRORE28_2IFC_2019_Jun_11_1818_547,stimulusRORE28_2IFC_2019_Jun_11_1818_548,2019_Jun_11_1818,2IFC,2,RORE28,
2IFC,49,0,49,0,3.7,-1,correct answer,0.703150299843,False,True,stimulusRORE28_2IFC_2019_Jun_11_1818_549,stimulusRORE28_2IFC_2019_Jun_11_1818_550,2019_Jun_11_1818,2IFC,2,RORE28,
2IFC,50,0,50,0,3.7,-1,correct answer,0.433106109034,True,False,stimulusRORE28_2IFC_2019_Jun_11_1818_551,stimulusRORE28_2IFC_2019_Jun_11_1818_552,2019_Jun_11_1818,2IFC,2,RORE28,
2IFC,51,0,51,0,3.7,-1,wrong answer,0.501465656795,True,False,stimulusRORE28_2IFC_2019_Jun_11_1818_553,stimulusRORE28_2IFC_2019_Jun_11_1818_554,2019_Jun_11_1818,2IFC,2,RORE28,
2IFC,52,0,52,0,3.7,-1,correct answer,0.4361885041,True,False,stimulusRORE28_2IFC_2019_Jun_11_1818_555,stimulusRORE28_2IFC_2019_Jun_11_1818_556,2019_Jun_11_1818,2IFC,2,RORE28,
2IFC,53,0,53,0,3.7,-1,correct answer,0.498916973826,False,True,stimulusRORE28_2IFC_2019_Jun_11_1818_557,stimulusRORE28_2IFC_2019_Jun_11_1818_558,2019_Jun_11_1818,2IFC,2,RORE28,
2IFC,54,0,54,0,3.7,-1,wrong answer,0.333280920051,True,False,stimulusRORE28_2IFC_2019_Jun_11_1818_559,stimulusRORE28_2IFC_2019_Jun_11_1818_560,2019_Jun_11_1818,2IFC,2,RORE28,
2IFC,55,0,55,0,3.7,-1,correct answer,0.535349425394,False,True,stimulusRORE28_2IFC_2019_Jun_11_1818_561,stimulusRORE28_2IFC_2019_Jun_11_1818_562,2019_Jun_11_1818,2IFC,2,RORE28,
2IFC,56,0,56,0,3.7,-1,wrong answer,0.569608025253,True,False,stimulusRORE28_2IFC_2019_Jun_11_1818_563,stimulusRORE28_2IFC_2019_Jun_11_1818_564,2019_Jun_11_1818,2IFC,2,RORE28,
2IFC,57,0,57,0,3.7,-1,correct answer,0.334353271406,True,False,stimulusRORE28_2IFC_2019_Jun_11_1818_565,stimulusRORE28_2IFC_2019_Jun_11_1818_566,2019_Jun_11_1818,2IFC,2,RORE28,
2IFC,58,0,58,0,3.7,-1,correct answer,0.296543020755,True,False,stimulusRORE28_2IFC_2019_Jun_11_1818_567,stimulusRORE28_2IFC_2019_Jun_11_1818_568,2019_Jun_11_1818,2IFC,2,RORE28,
2IFC,59,0,59,0,3.7,-1,wrong answer,0.503033950459,False,True,stimulusRORE28_2IFC_2019_Jun_11_1818_569,stimulusRORE28_2IFC_2019_Jun_11_1818_570,2019_Jun_11_1818,2IFC,2,RORE28,
2IFC,60,0,60,0,3.7,-1,wrong answer,0.535229546018,True,False,stimulusRORE28_2IFC_2019_Jun_11_1818_571,stimulusRORE28_2IFC_2019_Jun_11_1818_572,2019_Jun_11_1818,2IFC,2,RORE28,
2IFC,61,0,61,0,3.7,-1,wrong answer,0.504369874019,False,True,stimulusRORE28_2IFC_2019_Jun_11_1818_573,stimulusRORE28_2IFC_2019_Jun_11_1818_574,2019_Jun_11_1818,2IFC,2,RORE28,
2IFC,62,0,62,0,3.7,-1,correct answer,0.800864860881,False,True,stimulusRORE28_2IFC_2019_Jun_11_1818_575,stimulusRORE28_2IFC_2019_Jun_11_1818_576,2019_Jun_11_1818,2IFC,2,RORE28,
2IFC,63,0,63,0,3.7,-1,correct answer,0.599663021974,True,False,stimulusRORE28_2IFC_2019_Jun_11_1818_577,stimulusRORE28_2IFC_2019_Jun_11_1818_578,2019_Jun_11_1818,2IFC,2,RORE28,
2IFC,64,0,64,0,3.7,-1,correct answer,0.665335122496,False,True,stimulusRORE28_2IFC_2019_Jun_11_1818_579,stimulusRORE28_2IFC_2019_Jun_11_1818_580,2019_Jun_11_1818,2IFC,2,RORE28,
2IFC,65,0,65,0,3.7,-1,wrong answer,0.666049065534,True,False,stimulusRORE28_2IFC_2019_Jun_11_1818_581,stimulusRORE28_2IFC_2019_Jun_11_1818_582,2019_Jun_11_1818,2IFC,2,RORE28,
2IFC,66,0,66,0,3.7,-1,wrong answer,0.501814622432,False,True,stimulusRORE28_2IFC_2019_Jun_11_1818_583,stimulusRORE28_2IFC_2019_Jun_11_1818_584,2019_Jun_11_1818,2IFC,2,RORE28,
2IFC,67,0,67,0,3.7,-1,wrong answer,0.338839741424,True,False,stimulusRORE28_2IFC_2019_Jun_11_1818_585,stimulusRORE28_2IFC_2019_Jun_11_1818_586,2019_Jun_11_1818,2IFC,2,RORE28,
2IFC,68,0,68,0,3.7,-1,wrong answer,0.530906884465,False,True,stimulusRORE28_2IFC_2019_Jun_11_1818_587,stimulusRORE28_2IFC_2019_Jun_11_1818_588,2019_Jun_11_1818,2IFC,2,RORE28,
2IFC,69,0,69,0,3.7,-1,correct answer,0.366435144562,False,True,stimulusRORE28_2IFC_2019_Jun_11_1818_589,stimulusRORE28_2IFC_2019_Jun_11_1818_590,2019_Jun_11_1818,2IFC,2,RORE28,
2IFC,70,0,70,0,3.7,-1,wrong answer,0.601465738844,True,False,stimulusRORE28_2IFC_2019_Jun_11_1818_591,stimulusRORE28_2IFC_2019_Jun_11_1818_592,2019_Jun_11_1818,2IFC,2,RORE28,
2IFC,71,0,71,0,3.7,-1,wrong answer,0.636676399503,True,False,stimulusRORE28_2IFC_2019_Jun_11_1818_593,stimulusRORE28_2IFC_2019_Jun_11_1818_594,2019_Jun_11_1818,2IFC,2,RORE28,
2IFC,72,0,72,0,3.7,-1,wrong answer,0.67660056334,False,True,stimulusRORE28_2IFC_2019_Jun_11_1818_595,stimulusRORE28_2IFC_2019_Jun_11_1818_596,2019_Jun_11_1818,2IFC,2,RORE28,
2IFC,73,0,73,0,3.7,-1,correct answer,0.637342308648,False,True,stimulusRORE28_2IFC_2019_Jun_11_1818_597,stimulusRORE28_2IFC_2019_Jun_11_1818_598,2019_Jun_11_1818,2IFC,2,RORE28,
2IFC,74,0,74,0,3.7,-1,correct answer,0.37520116847,True,False,stimulusRORE28_2IFC_2019_Jun_11_1818_599,stimulusRORE28_2IFC_2019_Jun_11_1818_600,2019_Jun_11_1818,2IFC,2,RORE28,
2IFC,0,0,0,0,5,-1,correct answer,0.665757576469,False,True,stimulusRORE28_2IFC_2019_Jun_11_1818_601,stimulusRORE28_2IFC_2019_Jun_11_1818_602,2019_Jun_11_1818,2IFC,2,RORE28,
2IFC,1,0,1,0,5,-1,wrong answer,0.500961914193,False,True,stimulusRORE28_2IFC_2019_Jun_11_1818_603,stimulusRORE28_2IFC_2019_Jun_11_1818_604,2019_Jun_11_1818,2IFC,2,RORE28,
2IFC,2,0,2,0,5,-1,correct answer,0.86733178189,False,True,stimulusRORE28_2IFC_2019_Jun_11_1818_605,stimulusRORE28_2IFC_2019_Jun_11_1818_606,2019_Jun_11_1818,2IFC,2,RORE28,
2IFC,3,0,3,0,5,-1,correct answer,0.634301378392,False,True,stimulusRORE28_2IFC_2019_Jun_11_1818_607,stimulusRORE28_2IFC_2019_Jun_11_1818_608,2019_Jun_11_1818,2IFC,2,RORE28,
2IFC,4,0,4,0,5,-1,correct answer,0.736232678872,False,True,stimulusRORE28_2IFC_2019_Jun_11_1818_609,stimulusRORE28_2IFC_2019_Jun_11_1818_610,2019_Jun_11_1818,2IFC,2,RORE28,
2IFC,5,0,5,0,5,-1,correct answer,0.701318433974,False,True,stimulusRORE28_2IFC_2019_Jun_11_1818_611,stimulusRORE28_2IFC_2019_Jun_11_1818_612,2019_Jun_11_1818,2IFC,2,RORE28,
2IFC,6,0,6,0,5,-1,wrong answer,0.73315028334,True,False,stimulusRORE28_2IFC_2019_Jun_11_1818_613,stimulusRORE28_2IFC_2019_Jun_11_1818_614,2019_Jun_11_1818,2IFC,2,RORE28,
2IFC,7,0,7,0,5,-1,correct answer,0.702224924229,False,True,stimulusRORE28_2IFC_2019_Jun_11_1818_615,stimulusRORE28_2IFC_2019_Jun_11_1818_616,2019_Jun_11_1818,2IFC,2,RORE28,
2IFC,8,0,8,0,5,-1,correct answer,0.499118142761,True,False,stimulusRORE28_2IFC_2019_Jun_11_1818_617,stimulusRORE28_2IFC_2019_Jun_11_1818_618,2019_Jun_11_1818,2IFC,2,RORE28,
2IFC,9,0,9,0,5,-1,correct answer,0.599875275511,True,False,stimulusRORE28_2IFC_2019_Jun_11_1818_619,stimulusRORE28_2IFC_2019_Jun_11_1818_620,2019_Jun_11_1818,2IFC,2,RORE28,
2IFC,10,0,10,0,5,-1,correct answer,0.534641230013,False,True,stimulusRORE28_2IFC_2019_Jun_11_1818_621,stimulusRORE28_2IFC_2019_Jun_11_1818_622,2019_Jun_11_1818,2IFC,2,RORE28,
2IFC,11,0,11,0,5,-1,wrong answer,0.402150369249,False,True,stimulusRORE28_2IFC_2019_Jun_11_1818_623,stimulusRORE28_2IFC_2019_Jun_11_1818_624,2019_Jun_11_1818,2IFC,2,RORE28,
2IFC,12,0,12,0,5,-1,correct answer,0.267206071876,False,True,stimulusRORE28_2IFC_2019_Jun_11_1818_625,stimulusRORE28_2IFC_2019_Jun_11_1818_626,2019_Jun_11_1818,2IFC,2,RORE28,
2IFC,13,0,13,0,5,-1,wrong answer,0.466348190792,True,False,stimulusRORE28_2IFC_2019_Jun_11_1818_627,stimulusRORE28_2IFC_2019_Jun_11_1818_628,2019_Jun_11_1818,2IFC,2,RORE28,
2IFC,14,0,14,0,5,-1,correct answer,0.604272656143,False,True,stimulusRORE28_2IFC_2019_Jun_11_1818_629,stimulusRORE28_2IFC_2019_Jun_11_1818_630,2019_Jun_11_1818,2IFC,2,RORE28,
2IFC,15,0,15,0,5,-1,wrong answer,0.702739341184,False,True,stimulusRORE28_2IFC_2019_Jun_11_1818_631,stimulusRORE28_2IFC_2019_Jun_11_1818_632,2019_Jun_11_1818,2IFC,2,RORE28,
2IFC,16,0,16,0,5,-1,correct answer,0.571432911791,False,True,stimulusRORE28_2IFC_2019_Jun_11_1818_633,stimulusRORE28_2IFC_2019_Jun_11_1818_634,2019_Jun_11_1818,2IFC,2,RORE28,
2IFC,17,0,17,0,5,-1,correct answer,0.801473703235,False,True,stimulusRORE28_2IFC_2019_Jun_11_1818_635,stimulusRORE28_2IFC_2019_Jun_11_1818_636,2019_Jun_11_1818,2IFC,2,RORE28,
2IFC,18,0,18,0,5,-1,wrong answer,0.544469752349,True,False,stimulusRORE28_2IFC_2019_Jun_11_1818_637,stimulusRORE28_2IFC_2019_Jun_11_1818_638,2019_Jun_11_1818,2IFC,2,RORE28,
2IFC,19,0,19,0,5,-1,correct answer,0.567080690525,False,True,stimulusRORE28_2IFC_2019_Jun_11_1818_639,stimulusRORE28_2IFC_2019_Jun_11_1818_640,2019_Jun_11_1818,2IFC,2,RORE28,
2IFC,20,0,20,0,5,-1,correct answer,0.600094507914,False,True,stimulusRORE28_2IFC_2019_Jun_11_1818_641,stimulusRORE28_2IFC_2019_Jun_11_1818_642,2019_Jun_11_1818,2IFC,2,RORE28,
2IFC,21,0,21,0,5,-1,wrong answer,0.73439917108,False,True,stimulusRORE28_2IFC_2019_Jun_11_1818_643,stimulusRORE28_2IFC_2019_Jun_11_1818_644,2019_Jun_11_1818,2IFC,2,RORE28,
2IFC,22,0,22,0,5,-1,correct answer,0.408733508084,False,True,stimulusRORE28_2IFC_2019_Jun_11_1818_645,stimulusRORE28_2IFC_2019_Jun_11_1818_646,2019_Jun_11_1818,2IFC,2,RORE28,
2IFC,23,0,23,0,5,-1,correct answer,0.73462333018,False,True,stimulusRORE28_2IFC_2019_Jun_11_1818_647,stimulusRORE28_2IFC_2019_Jun_11_1818_648,2019_Jun_11_1818,2IFC,2,RORE28,
2IFC,24,0,24,0,5,-1,correct answer,0.567698155064,True,False,stimulusRORE28_2IFC_2019_Jun_11_1818_649,stimulusRORE28_2IFC_2019_Jun_11_1818_650,2019_Jun_11_1818,2IFC,2,RORE28,
2IFC,25,0,25,0,5,-1,correct answer,0.733519366477,False,True,stimulusRORE28_2IFC_2019_Jun_11_1818_651,stimulusRORE28_2IFC_2019_Jun_11_1818_652,2019_Jun_11_1818,2IFC,2,RORE28,
2IFC,26,0,26,0,5,-1,correct answer,0.567203034181,True,False,stimulusRORE28_2IFC_2019_Jun_11_1818_653,stimulusRORE28_2IFC_2019_Jun_11_1818_654,2019_Jun_11_1818,2IFC,2,RORE28,
2IFC,27,0,27,0,5,-1,no answer,-1,False,True,stimulusRORE28_2IFC_2019_Jun_11_1818_655,stimulusRORE28_2IFC_2019_Jun_11_1818_656,2019_Jun_11_1818,2IFC,2,RORE28,
2IFC,28,0,28,0,5,-1,correct answer,0.632848858833,False,True,stimulusRORE28_2IFC_2019_Jun_11_1818_657,stimulusRORE28_2IFC_2019_Jun_11_1818_658,2019_Jun_11_1818,2IFC,2,RORE28,
2IFC,29,0,29,0,5,-1,correct answer,0.500945902895,True,False,stimulusRORE28_2IFC_2019_Jun_11_1818_659,stimulusRORE28_2IFC_2019_Jun_11_1818_660,2019_Jun_11_1818,2IFC,2,RORE28,
2IFC,30,0,30,0,5,-1,correct answer,0.633815289475,True,False,stimulusRORE28_2IFC_2019_Jun_11_1818_661,stimulusRORE28_2IFC_2019_Jun_11_1818_662,2019_Jun_11_1818,2IFC,2,RORE28,
2IFC,31,0,31,0,5,-1,correct answer,0.432848284487,True,False,stimulusRORE28_2IFC_2019_Jun_11_1818_663,stimulusRORE28_2IFC_2019_Jun_11_1818_664,2019_Jun_11_1818,2IFC,2,RORE28,
2IFC,32,0,32,0,5,-1,correct answer,0.667735597119,False,True,stimulusRORE28_2IFC_2019_Jun_11_1818_665,stimulusRORE28_2IFC_2019_Jun_11_1818_666,2019_Jun_11_1818,2IFC,2,RORE28,
2IFC,33,0,33,0,5,-1,wrong answer,0.434862433467,False,True,stimulusRORE28_2IFC_2019_Jun_11_1818_667,stimulusRORE28_2IFC_2019_Jun_11_1818_668,2019_Jun_11_1818,2IFC,2,RORE28,
2IFC,34,0,34,0,5,-1,correct answer,0.634289062116,True,False,stimulusRORE28_2IFC_2019_Jun_11_1818_669,stimulusRORE28_2IFC_2019_Jun_11_1818_670,2019_Jun_11_1818,2IFC,2,RORE28,
2IFC,35,0,35,0,5,-1,correct answer,0.466492293403,True,False,stimulusRORE28_2IFC_2019_Jun_11_1818_671,stimulusRORE28_2IFC_2019_Jun_11_1818_672,2019_Jun_11_1818,2IFC,2,RORE28,
2IFC,36,0,36,0,5,-1,wrong answer,0.733393327799,True,False,stimulusRORE28_2IFC_2019_Jun_11_1818_673,stimulusRORE28_2IFC_2019_Jun_11_1818_674,2019_Jun_11_1818,2IFC,2,RORE28,
2IFC,37,0,37,0,5,-1,correct answer,0.800183760934,False,True,stimulusRORE28_2IFC_2019_Jun_11_1818_675,stimulusRORE28_2IFC_2019_Jun_11_1818_676,2019_Jun_11_1818,2IFC,2,RORE28,
2IFC,38,0,38,0,5,-1,correct answer,0.442755221389,True,False,stimulusRORE28_2IFC_2019_Jun_11_1818_677,stimulusRORE28_2IFC_2019_Jun_11_1818_678,2019_Jun_11_1818,2IFC,2,RORE28,
2IFC,39,0,39,0,5,-1,correct answer,0.665833527688,False,True,stimulusRORE28_2IFC_2019_Jun_11_1818_679,stimulusRORE28_2IFC_2019_Jun_11_1818_680,2019_Jun_11_1818,2IFC,2,RORE28,
2IFC,40,0,40,0,5,-1,wrong answer,0.601950185839,False,True,stimulusRORE28_2IFC_2019_Jun_11_1818_681,stimulusRORE28_2IFC_2019_Jun_11_1818_682,2019_Jun_11_1818,2IFC,2,RORE28,
2IFC,41,0,41,0,5,-1,correct answer,0.47738249274,False,True,stimulusRORE28_2IFC_2019_Jun_11_1818_683,stimulusRORE28_2IFC_2019_Jun_11_1818_684,2019_Jun_11_1818,2IFC,2,RORE28,
2IFC,42,0,42,0,5,-1,correct answer,0.399586906191,True,False,stimulusRORE28_2IFC_2019_Jun_11_1818_685,stimulusRORE28_2IFC_2019_Jun_11_1818_686,2019_Jun_11_1818,2IFC,2,RORE28,
2IFC,43,0,43,0,5,-1,wrong answer,0.762463830877,True,False,stimulusRORE28_2IFC_2019_Jun_11_1818_687,stimulusRORE28_2IFC_2019_Jun_11_1818_688,2019_Jun_11_1818,2IFC,2,RORE28,
2IFC,44,0,44,0,5,-1,correct answer,0.640425114427,False,True,stimulusRORE28_2IFC_2019_Jun_11_1818_689,stimulusRORE28_2IFC_2019_Jun_11_1818_690,2019_Jun_11_1818,2IFC,2,RORE28,
2IFC,45,0,45,0,5,-1,correct answer,0.434976155404,True,False,stimulusRORE28_2IFC_2019_Jun_11_1818_691,stimulusRORE28_2IFC_2019_Jun_11_1818_692,2019_Jun_11_1818,2IFC,2,RORE28,
2IFC,46,0,46,0,5,-1,correct answer,0.502161946148,True,False,stimulusRORE28_2IFC_2019_Jun_11_1818_693,stimulusRORE28_2IFC_2019_Jun_11_1818_694,2019_Jun_11_1818,2IFC,2,RORE28,
2IFC,47,0,47,0,5,-1,correct answer,0.834965809714,False,True,stimulusRORE28_2IFC_2019_Jun_11_1818_695,stimulusRORE28_2IFC_2019_Jun_11_1818_696,2019_Jun_11_1818,2IFC,2,RORE28,
2IFC,48,0,48,0,5,-1,correct answer,0.602209651843,True,False,stimulusRORE28_2IFC_2019_Jun_11_1818_697,stimulusRORE28_2IFC_2019_Jun_11_1818_698,2019_Jun_11_1818,2IFC,2,RORE28,
2IFC,49,0,49,0,5,-1,correct answer,0.533148888033,False,True,stimulusRORE28_2IFC_2019_Jun_11_1818_699,stimulusRORE28_2IFC_2019_Jun_11_1818_700,2019_Jun_11_1818,2IFC,2,RORE28,
2IFC,50,0,50,0,5,-1,correct answer,0.534292264376,True,False,stimulusRORE28_2IFC_2019_Jun_11_1818_701,stimulusRORE28_2IFC_2019_Jun_11_1818_702,2019_Jun_11_1818,2IFC,2,RORE28,
2IFC,51,0,51,0,5,-1,correct answer,0.563321712427,False,True,stimulusRORE28_2IFC_2019_Jun_11_1818_703,stimulusRORE28_2IFC_2019_Jun_11_1818_704,2019_Jun_11_1818,2IFC,2,RORE28,
2IFC,52,0,52,0,5,-1,correct answer,0.435754965059,True,False,stimulusRORE28_2IFC_2019_Jun_11_1818_705,stimulusRORE28_2IFC_2019_Jun_11_1818_706,2019_Jun_11_1818,2IFC,2,RORE28,
2IFC,53,0,53,0,5,-1,wrong answer,0.533651398495,False,True,stimulusRORE28_2IFC_2019_Jun_11_1818_707,stimulusRORE28_2IFC_2019_Jun_11_1818_708,2019_Jun_11_1818,2IFC,2,RORE28,
2IFC,54,0,54,0,5,-1,correct answer,0.432107245084,False,True,stimulusRORE28_2IFC_2019_Jun_11_1818_709,stimulusRORE28_2IFC_2019_Jun_11_1818_710,2019_Jun_11_1818,2IFC,2,RORE28,
2IFC,55,0,55,0,5,-1,correct answer,0.369495370891,True,False,stimulusRORE28_2IFC_2019_Jun_11_1818_711,stimulusRORE28_2IFC_2019_Jun_11_1818_712,2019_Jun_11_1818,2IFC,2,RORE28,
2IFC,56,0,56,0,5,-1,correct answer,0.602556154598,False,True,stimulusRORE28_2IFC_2019_Jun_11_1818_713,stimulusRORE28_2IFC_2019_Jun_11_1818_714,2019_Jun_11_1818,2IFC,2,RORE28,
2IFC,57,0,57,0,5,-1,wrong answer,0.635100715328,False,True,stimulusRORE28_2IFC_2019_Jun_11_1818_715,stimulusRORE28_2IFC_2019_Jun_11_1818_716,2019_Jun_11_1818,2IFC,2,RORE28,
2IFC,58,0,58,0,5,-1,correct answer,0.400316450279,True,False,stimulusRORE28_2IFC_2019_Jun_11_1818_717,stimulusRORE28_2IFC_2019_Jun_11_1818_718,2019_Jun_11_1818,2IFC,2,RORE28,
2IFC,59,0,59,0,5,-1,correct answer,0.499541828409,True,False,stimulusRORE28_2IFC_2019_Jun_11_1818_719,stimulusRORE28_2IFC_2019_Jun_11_1818_720,2019_Jun_11_1818,2IFC,2,RORE28,
2IFC,60,0,60,0,5,-1,correct answer,0.402449248359,True,False,stimulusRORE28_2IFC_2019_Jun_11_1818_721,stimulusRORE28_2IFC_2019_Jun_11_1818_722,2019_Jun_11_1818,2IFC,2,RORE28,
2IFC,61,0,61,0,5,-1,no answer,-1,True,False,stimulusRORE28_2IFC_2019_Jun_11_1818_723,stimulusRORE28_2IFC_2019_Jun_11_1818_724,2019_Jun_11_1818,2IFC,2,RORE28,
2IFC,62,0,62,0,5,-1,correct answer,0.336156398989,True,False,stimulusRORE28_2IFC_2019_Jun_11_1818_725,stimulusRORE28_2IFC_2019_Jun_11_1818_726,2019_Jun_11_1818,2IFC,2,RORE28,
2IFC,63,0,63,0,5,-1,no answer,-1,True,False,stimulusRORE28_2IFC_2019_Jun_11_1818_727,stimulusRORE28_2IFC_2019_Jun_11_1818_728,2019_Jun_11_1818,2IFC,2,RORE28,
2IFC,64,0,64,0,5,-1,wrong answer,0.0670893122442,True,False,stimulusRORE28_2IFC_2019_Jun_11_1818_729,stimulusRORE28_2IFC_2019_Jun_11_1818_730,2019_Jun_11_1818,2IFC,2,RORE28,
2IFC,65,0,65,0,5,-1,correct answer,0.600803935435,True,False,stimulusRORE28_2IFC_2019_Jun_11_1818_731,stimulusRORE28_2IFC_2019_Jun_11_1818_732,2019_Jun_11_1818,2IFC,2,RORE28,
2IFC,66,0,66,0,5,-1,wrong answer,0.534946677741,False,True,stimulusRORE28_2IFC_2019_Jun_11_1818_733,stimulusRORE28_2IFC_2019_Jun_11_1818_734,2019_Jun_11_1818,2IFC,2,RORE28,
2IFC,67,0,67,0,5,-1,wrong answer,0.603462644853,True,False,stimulusRORE28_2IFC_2019_Jun_11_1818_735,stimulusRORE28_2IFC_2019_Jun_11_1818_736,2019_Jun_11_1818,2IFC,2,RORE28,
2IFC,68,0,68,0,5,-1,correct answer,0.732507776003,False,True,stimulusRORE28_2IFC_2019_Jun_11_1818_737,stimulusRORE28_2IFC_2019_Jun_11_1818_738,2019_Jun_11_1818,2IFC,2,RORE28,
2IFC,69,0,69,0,5,-1,correct answer,0.538607125171,False,True,stimulusRORE28_2IFC_2019_Jun_11_1818_739,stimulusRORE28_2IFC_2019_Jun_11_1818_740,2019_Jun_11_1818,2IFC,2,RORE28,
2IFC,70,0,70,0,5,-1,wrong answer,0.6334490804,True,False,stimulusRORE28_2IFC_2019_Jun_11_1818_741,stimulusRORE28_2IFC_2019_Jun_11_1818_742,2019_Jun_11_1818,2IFC,2,RORE28,
2IFC,71,0,71,0,5,-1,correct answer,0.567426372319,False,True,stimulusRORE28_2IFC_2019_Jun_11_1818_743,stimulusRORE28_2IFC_2019_Jun_11_1818_744,2019_Jun_11_1818,2IFC,2,RORE28,
2IFC,72,0,72,0,5,-1,correct answer,0.643889319617,True,False,stimulusRORE28_2IFC_2019_Jun_11_1818_745,stimulusRORE28_2IFC_2019_Jun_11_1818_746,2019_Jun_11_1818,2IFC,2,RORE28,
2IFC,73,0,73,0,5,-1,wrong answer,0.537081527989,True,False,stimulusRORE28_2IFC_2019_Jun_11_1818_747,stimulusRORE28_2IFC_2019_Jun_11_1818_748,2019_Jun_11_1818,2IFC,2,RORE28,
2IFC,74,0,74,0,5,-1,correct answer,0.702597291674,True,False,stimulusRORE28_2IFC_2019_Jun_11_1818_749,stimulusRORE28_2IFC_2019_Jun_11_1818_750,2019_Jun_11_1818,2IFC,2,RORE28,
2IFC,0,0,0,0,2.2,-1,no answer,-1,True,False,stimulusRORE28_2IFC_2019_Jun_11_1818_751,stimulusRORE28_2IFC_2019_Jun_11_1818_752,2019_Jun_11_1818,2IFC,2,RORE28,
2IFC,1,0,1,0,2.2,-1,wrong answer,0.468633712269,True,False,stimulusRORE28_2IFC_2019_Jun_11_1818_753,stimulusRORE28_2IFC_2019_Jun_11_1818_754,2019_Jun_11_1818,2IFC,2,RORE28,
2IFC,2,0,2,0,2.2,-1,correct answer,0.132127936464,True,False,stimulusRORE28_2IFC_2019_Jun_11_1818_755,stimulusRORE28_2IFC_2019_Jun_11_1818_756,2019_Jun_11_1818,2IFC,2,RORE28,
2IFC,3,0,3,0,2.2,-1,correct answer,0.538504077587,False,True,stimulusRORE28_2IFC_2019_Jun_11_1818_757,stimulusRORE28_2IFC_2019_Jun_11_1818_758,2019_Jun_11_1818,2IFC,2,RORE28,
2IFC,4,0,4,0,2.2,-1,correct answer,0.537249852903,False,True,stimulusRORE28_2IFC_2019_Jun_11_1818_759,stimulusRORE28_2IFC_2019_Jun_11_1818_760,2019_Jun_11_1818,2IFC,2,RORE28,
2IFC,5,0,5,0,2.2,-1,correct answer,0.771057424136,False,True,stimulusRORE28_2IFC_2019_Jun_11_1818_761,stimulusRORE28_2IFC_2019_Jun_11_1818_762,2019_Jun_11_1818,2IFC,2,RORE28,
2IFC,6,0,6,0,2.2,-1,correct answer,0.60120011447,False,True,stimulusRORE28_2IFC_2019_Jun_11_1818_763,stimulusRORE28_2IFC_2019_Jun_11_1818_764,2019_Jun_11_1818,2IFC,2,RORE28,
2IFC,7,0,7,0,2.2,-1,wrong answer,0.600351511035,True,False,stimulusRORE28_2IFC_2019_Jun_11_1818_765,stimulusRORE28_2IFC_2019_Jun_11_1818_766,2019_Jun_11_1818,2IFC,2,RORE28,
2IFC,8,0,8,0,2.2,-1,wrong answer,0.567312239669,False,True,stimulusRORE28_2IFC_2019_Jun_11_1818_767,stimulusRORE28_2IFC_2019_Jun_11_1818_768,2019_Jun_11_1818,2IFC,2,RORE28,
2IFC,9,0,9,0,2.2,-1,correct answer,0.46858075168,False,True,stimulusRORE28_2IFC_2019_Jun_11_1818_769,stimulusRORE28_2IFC_2019_Jun_11_1818_770,2019_Jun_11_1818,2IFC,2,RORE28,
2IFC,10,0,10,0,2.2,-1,wrong answer,0.579188575968,True,False,stimulusRORE28_2IFC_2019_Jun_11_1818_771,stimulusRORE28_2IFC_2019_Jun_11_1818_772,2019_Jun_11_1818,2IFC,2,RORE28,
2IFC,11,0,11,0,2.2,-1,wrong answer,0.533759372775,False,True,stimulusRORE28_2IFC_2019_Jun_11_1818_773,stimulusRORE28_2IFC_2019_Jun_11_1818_774,2019_Jun_11_1818,2IFC,2,RORE28,
2IFC,12,0,12,0,2.2,-1,correct answer,0.433374196757,False,True,stimulusRORE28_2IFC_2019_Jun_11_1818_775,stimulusRORE28_2IFC_2019_Jun_11_1818_776,2019_Jun_11_1818,2IFC,2,RORE28,
2IFC,13,0,13,0,2.2,-1,wrong answer,0.768553491216,True,False,stimulusRORE28_2IFC_2019_Jun_11_1818_777,stimulusRORE28_2IFC_2019_Jun_11_1818_778,2019_Jun_11_1818,2IFC,2,RORE28,
2IFC,14,0,14,0,2.2,-1,correct answer,0.502576600295,True,False,stimulusRORE28_2IFC_2019_Jun_11_1818_779,stimulusRORE28_2IFC_2019_Jun_11_1818_780,2019_Jun_11_1818,2IFC,2,RORE28,
2IFC,15,0,15,0,2.2,-1,no answer,-1,True,False,stimulusRORE28_2IFC_2019_Jun_11_1818_781,stimulusRORE28_2IFC_2019_Jun_11_1818_782,2019_Jun_11_1818,2IFC,2,RORE28,
2IFC,16,0,16,0,2.2,-1,wrong answer,0.598514308687,True,False,stimulusRORE28_2IFC_2019_Jun_11_1818_783,stimulusRORE28_2IFC_2019_Jun_11_1818_784,2019_Jun_11_1818,2IFC,2,RORE28,
2IFC,17,0,17,0,2.2,-1,correct answer,0.601079823449,True,False,stimulusRORE28_2IFC_2019_Jun_11_1818_785,stimulusRORE28_2IFC_2019_Jun_11_1818_786,2019_Jun_11_1818,2IFC,2,RORE28,
2IFC,18,0,18,0,2.2,-1,correct answer,0.734787960071,False,True,stimulusRORE28_2IFC_2019_Jun_11_1818_787,stimulusRORE28_2IFC_2019_Jun_11_1818_788,2019_Jun_11_1818,2IFC,2,RORE28,
2IFC,19,0,19,0,2.2,-1,correct answer,0.501160619315,True,False,stimulusRORE28_2IFC_2019_Jun_11_1818_789,stimulusRORE28_2IFC_2019_Jun_11_1818_790,2019_Jun_11_1818,2IFC,2,RORE28,
2IFC,20,0,20,0,2.2,-1,wrong answer,0.470160540659,True,False,stimulusRORE28_2IFC_2019_Jun_11_1818_791,stimulusRORE28_2IFC_2019_Jun_11_1818_792,2019_Jun_11_1818,2IFC,2,RORE28,
2IFC,21,0,21,0,2.2,-1,correct answer,0.565597790759,True,False,stimulusRORE28_2IFC_2019_Jun_11_1818_793,stimulusRORE28_2IFC_2019_Jun_11_1818_794,2019_Jun_11_1818,2IFC,2,RORE28,
2IFC,22,0,22,0,2.2,-1,correct answer,0.567611939739,False,True,stimulusRORE28_2IFC_2019_Jun_11_1818_795,stimulusRORE28_2IFC_2019_Jun_11_1818_796,2019_Jun_11_1818,2IFC,2,RORE28,
2IFC,23,0,23,0,2.2,-1,wrong answer,0.63553589629,False,True,stimulusRORE28_2IFC_2019_Jun_11_1818_797,stimulusRORE28_2IFC_2019_Jun_11_1818_798,2019_Jun_11_1818,2IFC,2,RORE28,
2IFC,24,0,24,0,2.2,-1,correct answer,0.635856945533,False,True,stimulusRORE28_2IFC_2019_Jun_11_1818_799,stimulusRORE28_2IFC_2019_Jun_11_1818_800,2019_Jun_11_1818,2IFC,2,RORE28,
2IFC,25,0,25,0,2.2,-1,wrong answer,0.67343072081,False,True,stimulusRORE28_2IFC_2019_Jun_11_1818_801,stimulusRORE28_2IFC_2019_Jun_11_1818_802,2019_Jun_11_1818,2IFC,2,RORE28,
2IFC,26,0,26,0,2.2,-1,correct answer,0.600535847712,False,True,stimulusRORE28_2IFC_2019_Jun_11_1818_803,stimulusRORE28_2IFC_2019_Jun_11_1818_804,2019_Jun_11_1818,2IFC,2,RORE28,
2IFC,27,0,27,0,2.2,-1,wrong answer,0.733863816131,False,True,stimulusRORE28_2IFC_2019_Jun_11_1818_805,stimulusRORE28_2IFC_2019_Jun_11_1818_806,2019_Jun_11_1818,2IFC,2,RORE28,
2IFC,28,0,28,0,2.2,-1,wrong answer,0.540325679351,True,False,stimulusRORE28_2IFC_2019_Jun_11_1818_807,stimulusRORE28_2IFC_2019_Jun_11_1818_808,2019_Jun_11_1818,2IFC,2,RORE28,
2IFC,29,0,29,0,2.2,-1,wrong answer,0.779108272865,True,False,stimulusRORE28_2IFC_2019_Jun_11_1818_809,stimulusRORE28_2IFC_2019_Jun_11_1818_810,2019_Jun_11_1818,2IFC,2,RORE28,
2IFC,30,0,30,0,2.2,-1,no answer,-1,True,False,stimulusRORE28_2IFC_2019_Jun_11_1818_811,stimulusRORE28_2IFC_2019_Jun_11_1818_812,2019_Jun_11_1818,2IFC,2,RORE28,
2IFC,31,0,31,0,2.2,-1,correct answer,0.640583175234,False,True,stimulusRORE28_2IFC_2019_Jun_11_1818_813,stimulusRORE28_2IFC_2019_Jun_11_1818_814,2019_Jun_11_1818,2IFC,2,RORE28,
2IFC,32,0,32,0,2.2,-1,wrong answer,0.600202482194,True,False,stimulusRORE28_2IFC_2019_Jun_11_1818_815,stimulusRORE28_2IFC_2019_Jun_11_1818_816,2019_Jun_11_1818,2IFC,2,RORE28,
2IFC,33,0,33,0,2.2,-1,no answer,-1,False,True,stimulusRORE28_2IFC_2019_Jun_11_1818_817,stimulusRORE28_2IFC_2019_Jun_11_1818_818,2019_Jun_11_1818,2IFC,2,RORE28,
2IFC,34,0,34,0,2.2,-1,correct answer,0.635896768421,False,True,stimulusRORE28_2IFC_2019_Jun_11_1818_819,stimulusRORE28_2IFC_2019_Jun_11_1818_820,2019_Jun_11_1818,2IFC,2,RORE28,
2IFC,35,0,35,0,2.2,-1,correct answer,0.672352621332,True,False,stimulusRORE28_2IFC_2019_Jun_11_1818_821,stimulusRORE28_2IFC_2019_Jun_11_1818_822,2019_Jun_11_1818,2IFC,2,RORE28,
2IFC,36,0,36,0,2.2,-1,correct answer,0.567773695569,False,True,stimulusRORE28_2IFC_2019_Jun_11_1818_823,stimulusRORE28_2IFC_2019_Jun_11_1818_824,2019_Jun_11_1818,2IFC,2,RORE28,
2IFC,37,0,37,0,2.2,-1,no answer,-1,True,False,stimulusRORE28_2IFC_2019_Jun_11_1818_825,stimulusRORE28_2IFC_2019_Jun_11_1818_826,2019_Jun_11_1818,2IFC,2,RORE28,
2IFC,38,0,38,0,2.2,-1,wrong answer,0.843306094874,False,True,stimulusRORE28_2IFC_2019_Jun_11_1818_827,stimulusRORE28_2IFC_2019_Jun_11_1818_828,2019_Jun_11_1818,2IFC,2,RORE28,
2IFC,39,0,39,0,2.2,-1,correct answer,0.369062242564,False,True,stimulusRORE28_2IFC_2019_Jun_11_1818_829,stimulusRORE28_2IFC_2019_Jun_11_1818_830,2019_Jun_11_1818,2IFC,2,RORE28,
2IFC,40,0,40,0,2.2,-1,correct answer,0.499705636874,False,True,stimulusRORE28_2IFC_2019_Jun_11_1818_831,stimulusRORE28_2IFC_2019_Jun_11_1818_832,2019_Jun_11_1818,2IFC,2,RORE28,
2IFC,41,0,41,0,2.2,-1,correct answer,0.501994443126,False,True,stimulusRORE28_2IFC_2019_Jun_11_1818_833,stimulusRORE28_2IFC_2019_Jun_11_1818_834,2019_Jun_11_1818,2IFC,2,RORE28,
2IFC,42,0,42,0,2.2,-1,correct answer,0.635960814077,False,True,stimulusRORE28_2IFC_2019_Jun_11_1818_835,stimulusRORE28_2IFC_2019_Jun_11_1818_836,2019_Jun_11_1818,2IFC,2,RORE28,
2IFC,43,0,43,0,2.2,-1,wrong answer,0.567313471343,True,False,stimulusRORE28_2IFC_2019_Jun_11_1818_837,stimulusRORE28_2IFC_2019_Jun_11_1818_838,2019_Jun_11_1818,2IFC,2,RORE28,
2IFC,44,0,44,0,2.2,-1,correct answer,0.532251019031,True,False,stimulusRORE28_2IFC_2019_Jun_11_1818_839,stimulusRORE28_2IFC_2019_Jun_11_1818_840,2019_Jun_11_1818,2IFC,2,RORE28,
2IFC,45,0,45,0,2.2,-1,correct answer,0.500995168928,True,False,stimulusRORE28_2IFC_2019_Jun_11_1818_841,stimulusRORE28_2IFC_2019_Jun_11_1818_842,2019_Jun_11_1818,2IFC,2,RORE28,
2IFC,46,0,46,0,2.2,-1,correct answer,0.469041797332,False,True,stimulusRORE28_2IFC_2019_Jun_11_1818_843,stimulusRORE28_2IFC_2019_Jun_11_1818_844,2019_Jun_11_1818,2IFC,2,RORE28,
2IFC,47,0,47,0,2.2,-1,correct answer,0.602704773191,False,True,stimulusRORE28_2IFC_2019_Jun_11_1818_845,stimulusRORE28_2IFC_2019_Jun_11_1818_846,2019_Jun_11_1818,2IFC,2,RORE28,
2IFC,48,0,48,0,2.2,-1,correct answer,0.538899845909,True,False,stimulusRORE28_2IFC_2019_Jun_11_1818_847,stimulusRORE28_2IFC_2019_Jun_11_1818_848,2019_Jun_11_1818,2IFC,2,RORE28,
2IFC,49,0,49,0,2.2,-1,correct answer,0.369609503075,False,True,stimulusRORE28_2IFC_2019_Jun_11_1818_849,stimulusRORE28_2IFC_2019_Jun_11_1818_850,2019_Jun_11_1818,2IFC,2,RORE28,
2IFC,50,0,50,0,2.2,-1,correct answer,0.46869365219,True,False,stimulusRORE28_2IFC_2019_Jun_11_1818_851,stimulusRORE28_2IFC_2019_Jun_11_1818_852,2019_Jun_11_1818,2IFC,2,RORE28,
2IFC,51,0,51,0,2.2,-1,correct answer,0.535432767123,False,True,stimulusRORE28_2IFC_2019_Jun_11_1818_853,stimulusRORE28_2IFC_2019_Jun_11_1818_854,2019_Jun_11_1818,2IFC,2,RORE28,
2IFC,52,0,52,0,2.2,-1,correct answer,0.538609588519,False,True,stimulusRORE28_2IFC_2019_Jun_11_1818_855,stimulusRORE28_2IFC_2019_Jun_11_1818_856,2019_Jun_11_1818,2IFC,2,RORE28,
2IFC,53,0,53,0,2.2,-1,wrong answer,0.468112315983,True,False,stimulusRORE28_2IFC_2019_Jun_11_1818_857,stimulusRORE28_2IFC_2019_Jun_11_1818_858,2019_Jun_11_1818,2IFC,2,RORE28,
2IFC,54,0,54,0,2.2,-1,correct answer,0.500906900968,False,True,stimulusRORE28_2IFC_2019_Jun_11_1818_859,stimulusRORE28_2IFC_2019_Jun_11_1818_860,2019_Jun_11_1818,2IFC,2,RORE28,
2IFC,55,0,55,0,2.2,-1,wrong answer,0.57095996011,True,False,stimulusRORE28_2IFC_2019_Jun_11_1818_861,stimulusRORE28_2IFC_2019_Jun_11_1818_862,2019_Jun_11_1818,2IFC,2,RORE28,
2IFC,56,0,56,0,2.2,-1,correct answer,0.476998630445,True,False,stimulusRORE28_2IFC_2019_Jun_11_1818_863,stimulusRORE28_2IFC_2019_Jun_11_1818_864,2019_Jun_11_1818,2IFC,2,RORE28,
2IFC,57,0,57,0,2.2,-1,wrong answer,0.499548397027,True,False,stimulusRORE28_2IFC_2019_Jun_11_1818_865,stimulusRORE28_2IFC_2019_Jun_11_1818_866,2019_Jun_11_1818,2IFC,2,RORE28,
2IFC,58,0,58,0,2.2,-1,wrong answer,0.666922711767,True,False,stimulusRORE28_2IFC_2019_Jun_11_1818_867,stimulusRORE28_2IFC_2019_Jun_11_1818_868,2019_Jun_11_1818,2IFC,2,RORE28,
2IFC,59,0,59,0,2.2,-1,correct answer,0.565489816479,False,True,stimulusRORE28_2IFC_2019_Jun_11_1818_869,stimulusRORE28_2IFC_2019_Jun_11_1818_870,2019_Jun_11_1818,2IFC,2,RORE28,
2IFC,60,0,60,0,2.2,-1,wrong answer,0.869284349028,True,False,stimulusRORE28_2IFC_2019_Jun_11_1818_871,stimulusRORE28_2IFC_2019_Jun_11_1818_872,2019_Jun_11_1818,2IFC,2,RORE28,
2IFC,61,0,61,0,2.2,-1,wrong answer,0.366809564643,False,True,stimulusRORE28_2IFC_2019_Jun_11_1818_873,stimulusRORE28_2IFC_2019_Jun_11_1818_874,2019_Jun_11_1818,2IFC,2,RORE28,
2IFC,62,0,62,0,2.2,-1,wrong answer,0.369049104862,True,False,stimulusRORE28_2IFC_2019_Jun_11_1818_875,stimulusRORE28_2IFC_2019_Jun_11_1818_876,2019_Jun_11_1818,2IFC,2,RORE28,
2IFC,63,0,63,0,2.2,-1,wrong answer,0.433053969406,True,False,stimulusRORE28_2IFC_2019_Jun_11_1818_877,stimulusRORE28_2IFC_2019_Jun_11_1818_878,2019_Jun_11_1818,2IFC,2,RORE28,
2IFC,64,0,64,0,2.2,-1,correct answer,0.797161716502,False,True,stimulusRORE28_2IFC_2019_Jun_11_1818_879,stimulusRORE28_2IFC_2019_Jun_11_1818_880,2019_Jun_11_1818,2IFC,2,RORE28,
2IFC,65,0,65,0,2.2,-1,correct answer,0.434598861728,False,True,stimulusRORE28_2IFC_2019_Jun_11_1818_881,stimulusRORE28_2IFC_2019_Jun_11_1818_882,2019_Jun_11_1818,2IFC,2,RORE28,
2IFC,66,0,66,0,2.2,-1,wrong answer,0.597960479092,True,False,stimulusRORE28_2IFC_2019_Jun_11_1818_883,stimulusRORE28_2IFC_2019_Jun_11_1818_884,2019_Jun_11_1818,2IFC,2,RORE28,
2IFC,67,0,67,0,2.2,-1,wrong answer,0.435524237342,True,False,stimulusRORE28_2IFC_2019_Jun_11_1818_885,stimulusRORE28_2IFC_2019_Jun_11_1818_886,2019_Jun_11_1818,2IFC,2,RORE28,
2IFC,68,0,68,0,2.2,-1,correct answer,0.500362513587,False,True,stimulusRORE28_2IFC_2019_Jun_11_1818_887,stimulusRORE28_2IFC_2019_Jun_11_1818_888,2019_Jun_11_1818,2IFC,2,RORE28,
2IFC,69,0,69,0,2.2,-1,wrong answer,0.700385668781,True,False,stimulusRORE28_2IFC_2019_Jun_11_1818_889,stimulusRORE28_2IFC_2019_Jun_11_1818_890,2019_Jun_11_1818,2IFC,2,RORE28,
2IFC,70,0,70,0,2.2,-1,wrong answer,0.50997590879,True,False,stimulusRORE28_2IFC_2019_Jun_11_1818_891,stimulusRORE28_2IFC_2019_Jun_11_1818_892,2019_Jun_11_1818,2IFC,2,RORE28,
2IFC,71,0,71,0,2.2,-1,correct answer,0.469805826899,False,True,stimulusRORE28_2IFC_2019_Jun_11_1818_893,stimulusRORE28_2IFC_2019_Jun_11_1818_894,2019_Jun_11_1818,2IFC,2,RORE28,
2IFC,72,0,72,0,2.2,-1,wrong answer,0.569942211267,True,False,stimulusRORE28_2IFC_2019_Jun_11_1818_895,stimulusRORE28_2IFC_2019_Jun_11_1818_896,2019_Jun_11_1818,2IFC,2,RORE28,
2IFC,73,0,73,0,2.2,-1,correct answer,0.500862150919,False,True,stimulusRORE28_2IFC_2019_Jun_11_1818_897,stimulusRORE28_2IFC_2019_Jun_11_1818_898,2019_Jun_11_1818,2IFC,2,RORE28,
2IFC,74,0,74,0,2.2,-1,correct answer,0.533177215606,False,True,stimulusRORE28_2IFC_2019_Jun_11_1818_899,stimulusRORE28_2IFC_2019_Jun_11_1818_900,2019_Jun_11_1818,2IFC,2,RORE28,
2IFC,0,0,0,0,3,-1,wrong answer,0.0672679007985,True,False,stimulusRORE28_2IFC_2019_Jun_11_1818_901,stimulusRORE28_2IFC_2019_Jun_11_1818_902,2019_Jun_11_1818,2IFC,2,RORE28,
2IFC,1,0,1,0,3,-1,correct answer,0.633802562486,False,True,stimulusRORE28_2IFC_2019_Jun_11_1818_903,stimulusRORE28_2IFC_2019_Jun_11_1818_904,2019_Jun_11_1818,2IFC,2,RORE28,
2IFC,2,0,2,0,3,-1,wrong answer,0.611234321259,True,False,stimulusRORE28_2IFC_2019_Jun_11_1818_905,stimulusRORE28_2IFC_2019_Jun_11_1818_906,2019_Jun_11_1818,2IFC,2,RORE28,
2IFC,3,0,3,0,3,-1,correct answer,0.443864932749,False,True,stimulusRORE28_2IFC_2019_Jun_11_1818_907,stimulusRORE28_2IFC_2019_Jun_11_1818_908,2019_Jun_11_1818,2IFC,2,RORE28,
2IFC,4,0,4,0,3,-1,correct answer,0.671868995763,False,True,stimulusRORE28_2IFC_2019_Jun_11_1818_909,stimulusRORE28_2IFC_2019_Jun_11_1818_910,2019_Jun_11_1818,2IFC,2,RORE28,
2IFC,5,0,5,0,3,-1,wrong answer,0.833826127928,False,True,stimulusRORE28_2IFC_2019_Jun_11_1818_911,stimulusRORE28_2IFC_2019_Jun_11_1818_912,2019_Jun_11_1818,2IFC,2,RORE28,
2IFC,6,0,6,0,3,-1,correct answer,0.574085052125,False,True,stimulusRORE28_2IFC_2019_Jun_11_1818_913,stimulusRORE28_2IFC_2019_Jun_11_1818_914,2019_Jun_11_1818,2IFC,2,RORE28,
2IFC,7,0,7,0,3,-1,wrong answer,0.700194763951,True,False,stimulusRORE28_2IFC_2019_Jun_11_1818_915,stimulusRORE28_2IFC_2019_Jun_11_1818_916,2019_Jun_11_1818,2IFC,2,RORE28,
2IFC,8,0,8,0,3,-1,correct answer,0.537047863472,False,True,stimulusRORE28_2IFC_2019_Jun_11_1818_917,stimulusRORE28_2IFC_2019_Jun_11_1818_918,2019_Jun_11_1818,2IFC,2,RORE28,
2IFC,9,0,9,0,3,-1,no answer,-1,True,False,stimulusRORE28_2IFC_2019_Jun_11_1818_919,stimulusRORE28_2IFC_2019_Jun_11_1818_920,2019_Jun_11_1818,2IFC,2,RORE28,
2IFC,10,0,10,0,3,-1,correct answer,0.600002956111,False,True,stimulusRORE28_2IFC_2019_Jun_11_1818_921,stimulusRORE28_2IFC_2019_Jun_11_1818_922,2019_Jun_11_1818,2IFC,2,RORE28,
2IFC,11,0,11,0,3,-1,wrong answer,0.404999162536,True,False,stimulusRORE28_2IFC_2019_Jun_11_1818_923,stimulusRORE28_2IFC_2019_Jun_11_1818_924,2019_Jun_11_1818,2IFC,2,RORE28,
2IFC,12,0,12,0,3,-1,correct answer,0.440350641031,False,True,stimulusRORE28_2IFC_2019_Jun_11_1818_925,stimulusRORE28_2IFC_2019_Jun_11_1818_926,2019_Jun_11_1818,2IFC,2,RORE28,
2IFC,13,0,13,0,3,-1,correct answer,0.501677499618,True,False,stimulusRORE28_2IFC_2019_Jun_11_1818_927,stimulusRORE28_2IFC_2019_Jun_11_1818_928,2019_Jun_11_1818,2IFC,2,RORE28,
2IFC,14,0,14,0,3,-1,correct answer,0.333255055826,False,True,stimulusRORE28_2IFC_2019_Jun_11_1818_929,stimulusRORE28_2IFC_2019_Jun_11_1818_930,2019_Jun_11_1818,2IFC,2,RORE28,
2IFC,15,0,15,0,3,-1,correct answer,0.50209831167,False,True,stimulusRORE28_2IFC_2019_Jun_11_1818_931,stimulusRORE28_2IFC_2019_Jun_11_1818_932,2019_Jun_11_1818,2IFC,2,RORE28,
2IFC,16,0,16,0,3,-1,correct answer,0.433295781724,False,True,stimulusRORE28_2IFC_2019_Jun_11_1818_933,stimulusRORE28_2IFC_2019_Jun_11_1818_934,2019_Jun_11_1818,2IFC,2,RORE28,
2IFC,17,0,17,0,3,-1,correct answer,0.402205382474,False,True,stimulusRORE28_2IFC_2019_Jun_11_1818_935,stimulusRORE28_2IFC_2019_Jun_11_1818_936,2019_Jun_11_1818,2IFC,2,RORE28,
2IFC,18,0,18,0,3,-1,wrong answer,0.599807534833,False,True,stimulusRORE28_2IFC_2019_Jun_11_1818_937,stimulusRORE28_2IFC_2019_Jun_11_1818_938,2019_Jun_11_1818,2IFC,2,RORE28,
2IFC,19,0,19,0,3,-1,wrong answer,0.400082438253,True,False,stimulusRORE28_2IFC_2019_Jun_11_1818_939,stimulusRORE28_2IFC_2019_Jun_11_1818_940,2019_Jun_11_1818,2IFC,2,RORE28,
2IFC,20,0,20,0,3,-1,correct answer,0.437771577854,False,True,stimulusRORE28_2IFC_2019_Jun_11_1818_941,stimulusRORE28_2IFC_2019_Jun_11_1818_942,2019_Jun_11_1818,2IFC,2,RORE28,
2IFC,21,0,21,0,3,-1,wrong answer,0.433451379649,True,False,stimulusRORE28_2IFC_2019_Jun_11_1818_943,stimulusRORE28_2IFC_2019_Jun_11_1818_944,2019_Jun_11_1818,2IFC,2,RORE28,
2IFC,22,0,22,0,3,-1,wrong answer,0.370442915708,False,True,stimulusRORE28_2IFC_2019_Jun_11_1818_945,stimulusRORE28_2IFC_2019_Jun_11_1818_946,2019_Jun_11_1818,2IFC,2,RORE28,
2IFC,23,0,23,0,3,-1,correct answer,0.500199526548,False,True,stimulusRORE28_2IFC_2019_Jun_11_1818_947,stimulusRORE28_2IFC_2019_Jun_11_1818_948,2019_Jun_11_1818,2IFC,2,RORE28,
2IFC,24,0,24,0,3,-1,wrong answer,0.399378348142,True,False,stimulusRORE28_2IFC_2019_Jun_11_1818_949,stimulusRORE28_2IFC_2019_Jun_11_1818_950,2019_Jun_11_1818,2IFC,2,RORE28,
2IFC,25,0,25,0,3,-1,correct answer,0.469100915827,False,True,stimulusRORE28_2IFC_2019_Jun_11_1818_951,stimulusRORE28_2IFC_2019_Jun_11_1818_952,2019_Jun_11_1818,2IFC,2,RORE28,
2IFC,26,0,26,0,3,-1,correct answer,0.303675062954,False,True,stimulusRORE28_2IFC_2019_Jun_11_1818_953,stimulusRORE28_2IFC_2019_Jun_11_1818_954,2019_Jun_11_1818,2IFC,2,RORE28,
2IFC,27,0,27,0,3,-1,correct answer,0.535337519832,True,False,stimulusRORE28_2IFC_2019_Jun_11_1818_955,stimulusRORE28_2IFC_2019_Jun_11_1818_956,2019_Jun_11_1818,2IFC,2,RORE28,
2IFC,28,0,28,0,3,-1,correct answer,0.4353731554,False,True,stimulusRORE28_2IFC_2019_Jun_11_1818_957,stimulusRORE28_2IFC_2019_Jun_11_1818_958,2019_Jun_11_1818,2IFC,2,RORE28,
2IFC,29,0,29,0,3,-1,correct answer,0.57005552249,True,False,stimulusRORE28_2IFC_2019_Jun_11_1818_959,stimulusRORE28_2IFC_2019_Jun_11_1818_960,2019_Jun_11_1818,2IFC,2,RORE28,
2IFC,30,0,30,0,3,-1,correct answer,0.666737964842,True,False,stimulusRORE28_2IFC_2019_Jun_11_1818_961,stimulusRORE28_2IFC_2019_Jun_11_1818_962,2019_Jun_11_1818,2IFC,2,RORE28,
2IFC,31,0,31,0,3,-1,correct answer,0.570321968291,False,True,stimulusRORE28_2IFC_2019_Jun_11_1818_963,stimulusRORE28_2IFC_2019_Jun_11_1818_964,2019_Jun_11_1818,2IFC,2,RORE28,
2IFC,32,0,32,0,3,-1,wrong answer,0.77657970693,False,True,stimulusRORE28_2IFC_2019_Jun_11_1818_965,stimulusRORE28_2IFC_2019_Jun_11_1818_966,2019_Jun_11_1818,2IFC,2,RORE28,
2IFC,33,0,33,0,3,-1,wrong answer,0.333435286302,True,False,stimulusRORE28_2IFC_2019_Jun_11_1818_967,stimulusRORE28_2IFC_2019_Jun_11_1818_968,2019_Jun_11_1818,2IFC,2,RORE28,
2IFC,34,0,34,0,3,-1,correct answer,0.435568165965,False,True,stimulusRORE28_2IFC_2019_Jun_11_1818_969,stimulusRORE28_2IFC_2019_Jun_11_1818_970,2019_Jun_11_1818,2IFC,2,RORE28,
2IFC,35,0,35,0,3,-1,correct answer,0.768291561399,False,True,stimulusRORE28_2IFC_2019_Jun_11_1818_971,stimulusRORE28_2IFC_2019_Jun_11_1818_972,2019_Jun_11_1818,2IFC,2,RORE28,
2IFC,36,0,36,0,3,-1,correct answer,0.502358188387,True,False,stimulusRORE28_2IFC_2019_Jun_11_1818_973,stimulusRORE28_2IFC_2019_Jun_11_1818_974,2019_Jun_11_1818,2IFC,2,RORE28,
2IFC,37,0,37,0,3,-1,correct answer,0.633803793695,False,True,stimulusRORE28_2IFC_2019_Jun_11_1818_975,stimulusRORE28_2IFC_2019_Jun_11_1818_976,2019_Jun_11_1818,2IFC,2,RORE28,
2IFC,38,0,38,0,3,-1,wrong answer,0.468227680307,True,False,stimulusRORE28_2IFC_2019_Jun_11_1818_977,stimulusRORE28_2IFC_2019_Jun_11_1818_978,2019_Jun_11_1818,2IFC,2,RORE28,
2IFC,39,0,39,0,3,-1,correct answer,0.402500155848,True,False,stimulusRORE28_2IFC_2019_Jun_11_1818_979,stimulusRORE28_2IFC_2019_Jun_11_1818_980,2019_Jun_11_1818,2IFC,2,RORE28,
2IFC,40,0,40,0,3,-1,correct answer,0.369097138755,True,False,stimulusRORE28_2IFC_2019_Jun_11_1818_981,stimulusRORE28_2IFC_2019_Jun_11_1818_982,2019_Jun_11_1818,2IFC,2,RORE28,
2IFC,41,0,41,0,3,-1,correct answer,0.633381339721,True,False,stimulusRORE28_2IFC_2019_Jun_11_1818_983,stimulusRORE28_2IFC_2019_Jun_11_1818_984,2019_Jun_11_1818,2IFC,2,RORE28,
2IFC,42,0,42,0,3,-1,correct answer,0.368317508139,False,True,stimulusRORE28_2IFC_2019_Jun_11_1818_985,stimulusRORE28_2IFC_2019_Jun_11_1818_986,2019_Jun_11_1818,2IFC,2,RORE28,
2IFC,43,0,43,0,3,-1,wrong answer,0.334107353352,False,True,stimulusRORE28_2IFC_2019_Jun_11_1818_987,stimulusRORE28_2IFC_2019_Jun_11_1818_988,2019_Jun_11_1818,2IFC,2,RORE28,
2IFC,44,0,44,0,3,-1,correct answer,0.333991989493,False,True,stimulusRORE28_2IFC_2019_Jun_11_1818_989,stimulusRORE28_2IFC_2019_Jun_11_1818_990,2019_Jun_11_1818,2IFC,2,RORE28,
2IFC,45,0,45,0,3,-1,correct answer,0.40182028804,True,False,stimulusRORE28_2IFC_2019_Jun_11_1818_991,stimulusRORE28_2IFC_2019_Jun_11_1818_992,2019_Jun_11_1818,2IFC,2,RORE28,
2IFC,46,0,46,0,3,-1,correct answer,0.365366077516,False,True,stimulusRORE28_2IFC_2019_Jun_11_1818_993,stimulusRORE28_2IFC_2019_Jun_11_1818_994,2019_Jun_11_1818,2IFC,2,RORE28,
2IFC,47,0,47,0,3,-1,correct answer,0.404314778745,False,True,stimulusRORE28_2IFC_2019_Jun_11_1818_995,stimulusRORE28_2IFC_2019_Jun_11_1818_996,2019_Jun_11_1818,2IFC,2,RORE28,
2IFC,48,0,48,0,3,-1,no answer,-1,True,False,stimulusRORE28_2IFC_2019_Jun_11_1818_997,stimulusRORE28_2IFC_2019_Jun_11_1818_998,2019_Jun_11_1818,2IFC,2,RORE28,
2IFC,49,0,49,0,3,-1,correct answer,0.135192268062,False,True,stimulusRORE28_2IFC_2019_Jun_11_1818_999,stimulusRORE28_2IFC_2019_Jun_11_1818_1000,2019_Jun_11_1818,2IFC,2,RORE28,
2IFC,50,0,50,0,3,-1,wrong answer,0.366209343076,True,False,stimulusRORE28_2IFC_2019_Jun_11_1818_1001,stimulusRORE28_2IFC_2019_Jun_11_1818_1002,2019_Jun_11_1818,2IFC,2,RORE28,
2IFC,51,0,51,0,3,-1,wrong answer,0.335726144724,False,True,stimulusRORE28_2IFC_2019_Jun_11_1818_1003,stimulusRORE28_2IFC_2019_Jun_11_1818_1004,2019_Jun_11_1818,2IFC,2,RORE28,
2IFC,52,0,52,0,3,-1,correct answer,0.370990176685,False,True,stimulusRORE28_2IFC_2019_Jun_11_1818_1005,stimulusRORE28_2IFC_2019_Jun_11_1818_1006,2019_Jun_11_1818,2IFC,2,RORE28,
2IFC,53,0,53,0,3,-1,correct answer,0.560394504108,True,False,stimulusRORE28_2IFC_2019_Jun_11_1818_1007,stimulusRORE28_2IFC_2019_Jun_11_1818_1008,2019_Jun_11_1818,2IFC,2,RORE28,
2IFC,54,0,54,0,3,-1,wrong answer,0.633201109245,False,True,stimulusRORE28_2IFC_2019_Jun_11_1818_1009,stimulusRORE28_2IFC_2019_Jun_11_1818_1010,2019_Jun_11_1818,2IFC,2,RORE28,
2IFC,55,0,55,0,3,-1,correct answer,0.367548961658,False,True,stimulusRORE28_2IFC_2019_Jun_11_1818_1011,stimulusRORE28_2IFC_2019_Jun_11_1818_1012,2019_Jun_11_1818,2IFC,2,RORE28,
2IFC,56,0,56,0,3,-1,wrong answer,0.604257876985,False,True,stimulusRORE28_2IFC_2019_Jun_11_1818_1013,stimulusRORE28_2IFC_2019_Jun_11_1818_1014,2019_Jun_11_1818,2IFC,2,RORE28,
2IFC,57,0,57,0,3,-1,correct answer,0.33762287721,False,True,stimulusRORE28_2IFC_2019_Jun_11_1818_1015,stimulusRORE28_2IFC_2019_Jun_11_1818_1016,2019_Jun_11_1818,2IFC,2,RORE28,
2IFC,58,0,58,0,3,-1,wrong answer,0.564502038062,True,False,stimulusRORE28_2IFC_2019_Jun_11_1818_1017,stimulusRORE28_2IFC_2019_Jun_11_1818_1018,2019_Jun_11_1818,2IFC,2,RORE28,
2IFC,59,0,59,0,3,-1,wrong answer,0.801451534033,True,False,stimulusRORE28_2IFC_2019_Jun_11_1818_1019,stimulusRORE28_2IFC_2019_Jun_11_1818_1020,2019_Jun_11_1818,2IFC,2,RORE28,
2IFC,60,0,60,0,3,-1,correct answer,0.505409381818,True,False,stimulusRORE28_2IFC_2019_Jun_11_1818_1021,stimulusRORE28_2IFC_2019_Jun_11_1818_1022,2019_Jun_11_1818,2IFC,2,RORE28,
2IFC,61,0,61,0,3,-1,no answer,-1,True,False,stimulusRORE28_2IFC_2019_Jun_11_1818_1023,stimulusRORE28_2IFC_2019_Jun_11_1818_1024,2019_Jun_11_1818,2IFC,2,RORE28,
2IFC,62,0,62,0,3,-1,wrong answer,0.332656476647,True,False,stimulusRORE28_2IFC_2019_Jun_11_1818_1025,stimulusRORE28_2IFC_2019_Jun_11_1818_1026,2019_Jun_11_1818,2IFC,2,RORE28,
2IFC,63,0,63,0,3,-1,wrong answer,0.336713923607,True,False,stimulusRORE28_2IFC_2019_Jun_11_1818_1027,stimulusRORE28_2IFC_2019_Jun_11_1818_1028,2019_Jun_11_1818,2IFC,2,RORE28,
2IFC,64,0,64,0,3,-1,correct answer,0.467066239566,False,True,stimulusRORE28_2IFC_2019_Jun_11_1818_1029,stimulusRORE28_2IFC_2019_Jun_11_1818_1030,2019_Jun_11_1818,2IFC,2,RORE28,
2IFC,65,0,65,0,3,-1,correct answer,0.499679772649,True,False,stimulusRORE28_2IFC_2019_Jun_11_1818_1031,stimulusRORE28_2IFC_2019_Jun_11_1818_1032,2019_Jun_11_1818,2IFC,2,RORE28,
2IFC,66,0,66,0,3,-1,correct answer,0.667943745386,False,True,stimulusRORE28_2IFC_2019_Jun_11_1818_1033,stimulusRORE28_2IFC_2019_Jun_11_1818_1034,2019_Jun_11_1818,2IFC,2,RORE28,
2IFC,67,0,67,0,3,-1,correct answer,0.632665344048,True,False,stimulusRORE28_2IFC_2019_Jun_11_1818_1035,stimulusRORE28_2IFC_2019_Jun_11_1818_1036,2019_Jun_11_1818,2IFC,2,RORE28,
2IFC,68,0,68,0,3,-1,correct answer,0.369614429772,False,True,stimulusRORE28_2IFC_2019_Jun_11_1818_1037,stimulusRORE28_2IFC_2019_Jun_11_1818_1038,2019_Jun_11_1818,2IFC,2,RORE28,
2IFC,69,0,69,0,3,-1,wrong answer,0.433385691606,True,False,stimulusRORE28_2IFC_2019_Jun_11_1818_1039,stimulusRORE28_2IFC_2019_Jun_11_1818_1040,2019_Jun_11_1818,2IFC,2,RORE28,
2IFC,70,0,70,0,3,-1,no answer,-1,True,False,stimulusRORE28_2IFC_2019_Jun_11_1818_1041,stimulusRORE28_2IFC_2019_Jun_11_1818_1042,2019_Jun_11_1818,2IFC,2,RORE28,
2IFC,71,0,71,0,3,-1,correct answer,0.365874336101,False,True,stimulusRORE28_2IFC_2019_Jun_11_1818_1043,stimulusRORE28_2IFC_2019_Jun_11_1818_1044,2019_Jun_11_1818,2IFC,2,RORE28,
2IFC,72,0,72,0,3,-1,wrong answer,0.635892662685,True,False,stimulusRORE28_2IFC_2019_Jun_11_1818_1045,stimulusRORE28_2IFC_2019_Jun_11_1818_1046,2019_Jun_11_1818,2IFC,2,RORE28,
2IFC,73,0,73,0,3,-1,correct answer,0.340737294871,False,True,stimulusRORE28_2IFC_2019_Jun_11_1818_1047,stimulusRORE28_2IFC_2019_Jun_11_1818_1048,2019_Jun_11_1818,2IFC,2,RORE28,
2IFC,74,0,74,0,3,-1,wrong answer,0.468772888184,True,False,stimulusRORE28_2IFC_2019_Jun_11_1818_1049,stimulusRORE28_2IFC_2019_Jun_11_1818_1050,2019_Jun_11_1818,2IFC,2,RORE28,
2IFC,0,0,0,0,4.4,-1,correct answer,0.36680094339,False,True,stimulusRORE28_2IFC_2019_Jun_11_1818_1051,stimulusRORE28_2IFC_2019_Jun_11_1818_1052,2019_Jun_11_1818,2IFC,2,RORE28,
2IFC,1,0,1,0,4.4,-1,no answer,-1,False,True,stimulusRORE28_2IFC_2019_Jun_11_1818_1053,stimulusRORE28_2IFC_2019_Jun_11_1818_1054,2019_Jun_11_1818,2IFC,2,RORE28,
2IFC,2,0,2,0,4.4,-1,correct answer,0.729706195183,False,True,stimulusRORE28_2IFC_2019_Jun_11_1818_1055,stimulusRORE28_2IFC_2019_Jun_11_1818_1056,2019_Jun_11_1818,2IFC,2,RORE28,
2IFC,3,0,3,0,4.4,-1,correct answer,0.534329623915,False,True,stimulusRORE28_2IFC_2019_Jun_11_1818_1057,stimulusRORE28_2IFC_2019_Jun_11_1818_1058,2019_Jun_11_1818,2IFC,2,RORE28,
2IFC,4,0,4,0,4.4,-1,correct answer,0.468321695924,True,False,stimulusRORE28_2IFC_2019_Jun_11_1818_1059,stimulusRORE28_2IFC_2019_Jun_11_1818_1060,2019_Jun_11_1818,2IFC,2,RORE28,
2IFC,5,0,5,0,4.4,-1,correct answer,0.500601042528,False,True,stimulusRORE28_2IFC_2019_Jun_11_1818_1061,stimulusRORE28_2IFC_2019_Jun_11_1818_1062,2019_Jun_11_1818,2IFC,2,RORE28,
2IFC,6,0,6,0,4.4,-1,correct answer,0.566970253363,False,True,stimulusRORE28_2IFC_2019_Jun_11_1818_1063,stimulusRORE28_2IFC_2019_Jun_11_1818_1064,2019_Jun_11_1818,2IFC,2,RORE28,
2IFC,7,0,7,0,4.4,-1,correct answer,0.544122839347,True,False,stimulusRORE28_2IFC_2019_Jun_11_1818_1065,stimulusRORE28_2IFC_2019_Jun_11_1818_1066,2019_Jun_11_1818,2IFC,2,RORE28,
2IFC,8,0,8,0,4.4,-1,correct answer,0.473722456489,True,False,stimulusRORE28_2IFC_2019_Jun_11_1818_1067,stimulusRORE28_2IFC_2019_Jun_11_1818_1068,2019_Jun_11_1818,2IFC,2,RORE28,
2IFC,9,0,9,0,4.4,-1,correct answer,0.630898345262,False,True,stimulusRORE28_2IFC_2019_Jun_11_1818_1069,stimulusRORE28_2IFC_2019_Jun_11_1818_1070,2019_Jun_11_1818,2IFC,2,RORE28,
2IFC,10,0,10,0,4.4,-1,correct answer,0.399980621878,True,False,stimulusRORE28_2IFC_2019_Jun_11_1818_1071,stimulusRORE28_2IFC_2019_Jun_11_1818_1072,2019_Jun_11_1818,2IFC,2,RORE28,
2IFC,11,0,11,0,4.4,-1,correct answer,0.600863875356,True,False,stimulusRORE28_2IFC_2019_Jun_11_1818_1073,stimulusRORE28_2IFC_2019_Jun_11_1818_1074,2019_Jun_11_1818,2IFC,2,RORE28,
2IFC,12,0,12,0,4.4,-1,wrong answer,0.706502425484,False,True,stimulusRORE28_2IFC_2019_Jun_11_1818_1075,stimulusRORE28_2IFC_2019_Jun_11_1818_1076,2019_Jun_11_1818,2IFC,2,RORE28,
2IFC,13,0,13,0,4.4,-1,correct answer,0.47617096547,False,True,stimulusRORE28_2IFC_2019_Jun_11_1818_1077,stimulusRORE28_2IFC_2019_Jun_11_1818_1078,2019_Jun_11_1818,2IFC,2,RORE28,
2IFC,14,0,14,0,4.4,-1,correct answer,0.636312243063,False,True,stimulusRORE28_2IFC_2019_Jun_11_1818_1079,stimulusRORE28_2IFC_2019_Jun_11_1818_1080,2019_Jun_11_1818,2IFC,2,RORE28,
2IFC,15,0,15,0,4.4,-1,correct answer,0.796559032053,False,True,stimulusRORE28_2IFC_2019_Jun_11_1818_1081,stimulusRORE28_2IFC_2019_Jun_11_1818_1082,2019_Jun_11_1818,2IFC,2,RORE28,
2IFC,16,0,16,0,4.4,-1,correct answer,0.768631905783,False,True,stimulusRORE28_2IFC_2019_Jun_11_1818_1083,stimulusRORE28_2IFC_2019_Jun_11_1818_1084,2019_Jun_11_1818,2IFC,2,RORE28,
2IFC,17,0,17,0,4.4,-1,correct answer,0.401070216671,True,False,stimulusRORE28_2IFC_2019_Jun_11_1818_1085,stimulusRORE28_2IFC_2019_Jun_11_1818_1086,2019_Jun_11_1818,2IFC,2,RORE28,
2IFC,18,0,18,0,4.4,-1,correct answer,0.534559120424,True,False,stimulusRORE28_2IFC_2019_Jun_11_1818_1087,stimulusRORE28_2IFC_2019_Jun_11_1818_1088,2019_Jun_11_1818,2IFC,2,RORE28,
2IFC,19,0,19,0,4.4,-1,correct answer,0.669203717262,False,True,stimulusRORE28_2IFC_2019_Jun_11_1818_1089,stimulusRORE28_2IFC_2019_Jun_11_1818_1090,2019_Jun_11_1818,2IFC,2,RORE28,
2IFC,20,0,20,0,4.4,-1,wrong answer,0.499836191535,False,True,stimulusRORE28_2IFC_2019_Jun_11_1818_1091,stimulusRORE28_2IFC_2019_Jun_11_1818_1092,2019_Jun_11_1818,2IFC,2,RORE28,
2IFC,21,0,21,0,4.4,-1,correct answer,0.568092692178,False,True,stimulusRORE28_2IFC_2019_Jun_11_1818_1093,stimulusRORE28_2IFC_2019_Jun_11_1818_1094,2019_Jun_11_1818,2IFC,2,RORE28,
2IFC,22,0,22,0,4.4,-1,correct answer,0.568320956547,True,False,stimulusRORE28_2IFC_2019_Jun_11_1818_1095,stimulusRORE28_2IFC_2019_Jun_11_1818_1096,2019_Jun_11_1818,2IFC,2,RORE28,
2IFC,23,0,23,0,4.4,-1,wrong answer,0.634224195499,False,True,stimulusRORE28_2IFC_2019_Jun_11_1818_1097,stimulusRORE28_2IFC_2019_Jun_11_1818_1098,2019_Jun_11_1818,2IFC,2,RORE28,
2IFC,24,0,24,0,4.4,-1,wrong answer,0.502316723112,True,False,stimulusRORE28_2IFC_2019_Jun_11_1818_1099,stimulusRORE28_2IFC_2019_Jun_11_1818_1100,2019_Jun_11_1818,2IFC,2,RORE28,
2IFC,25,0,25,0,4.4,-1,correct answer,0.367269378621,True,False,stimulusRORE28_2IFC_2019_Jun_11_1818_1101,stimulusRORE28_2IFC_2019_Jun_11_1818_1102,2019_Jun_11_1818,2IFC,2,RORE28,
2IFC,26,0,26,0,4.4,-1,correct answer,0.601946080104,False,True,stimulusRORE28_2IFC_2019_Jun_11_1818_1103,stimulusRORE28_2IFC_2019_Jun_11_1818_1104,2019_Jun_11_1818,2IFC,2,RORE28,
2IFC,27,0,27,0,4.4,-1,correct answer,0.668588305358,False,True,stimulusRORE28_2IFC_2019_Jun_11_1818_1105,stimulusRORE28_2IFC_2019_Jun_11_1818_1106,2019_Jun_11_1818,2IFC,2,RORE28,
2IFC,28,0,28,0,4.4,-1,correct answer,0.434338984545,True,False,stimulusRORE28_2IFC_2019_Jun_11_1818_1107,stimulusRORE28_2IFC_2019_Jun_11_1818_1108,2019_Jun_11_1818,2IFC,2,RORE28,
2IFC,29,0,29,0,4.4,-1,correct answer,0.56815016875,False,True,stimulusRORE28_2IFC_2019_Jun_11_1818_1109,stimulusRORE28_2IFC_2019_Jun_11_1818_1110,2019_Jun_11_1818,2IFC,2,RORE28,
2IFC,30,0,30,0,4.4,-1,wrong answer,0.534071799833,False,True,stimulusRORE28_2IFC_2019_Jun_11_1818_1111,stimulusRORE28_2IFC_2019_Jun_11_1818_1112,2019_Jun_11_1818,2IFC,2,RORE28,
2IFC,31,0,31,0,4.4,-1,correct answer,0.32570425421,False,True,stimulusRORE28_2IFC_2019_Jun_11_1818_1113,stimulusRORE28_2IFC_2019_Jun_11_1818_1114,2019_Jun_11_1818,2IFC,2,RORE28,
2IFC,32,0,32,0,4.4,-1,correct answer,0.497264107224,True,False,stimulusRORE28_2IFC_2019_Jun_11_1818_1115,stimulusRORE28_2IFC_2019_Jun_11_1818_1116,2019_Jun_11_1818,2IFC,2,RORE28,
2IFC,33,0,33,0,4.4,-1,correct answer,0.399813939817,True,False,stimulusRORE28_2IFC_2019_Jun_11_1818_1117,stimulusRORE28_2IFC_2019_Jun_11_1818_1118,2019_Jun_11_1818,2IFC,2,RORE28,
2IFC,34,0,34,0,4.4,-1,correct answer,0.334652971942,True,False,stimulusRORE28_2IFC_2019_Jun_11_1818_1119,stimulusRORE28_2IFC_2019_Jun_11_1818_1120,2019_Jun_11_1818,2IFC,2,RORE28,
2IFC,35,0,35,0,4.4,-1,wrong answer,0.534139951225,True,False,stimulusRORE28_2IFC_2019_Jun_11_1818_1121,stimulusRORE28_2IFC_2019_Jun_11_1818_1122,2019_Jun_11_1818,2IFC,2,RORE28,
2IFC,36,0,36,0,4.4,-1,wrong answer,0.500765261706,False,True,stimulusRORE28_2IFC_2019_Jun_11_1818_1123,stimulusRORE28_2IFC_2019_Jun_11_1818_1124,2019_Jun_11_1818,2IFC,2,RORE28,
2IFC,37,0,37,0,4.4,-1,correct answer,0.433451379649,False,True,stimulusRORE28_2IFC_2019_Jun_11_1818_1125,stimulusRORE28_2IFC_2019_Jun_11_1818_1126,2019_Jun_11_1818,2IFC,2,RORE28,
2IFC,38,0,38,0,4.4,-1,correct answer,0.534880990162,True,False,stimulusRORE28_2IFC_2019_Jun_11_1818_1127,stimulusRORE28_2IFC_2019_Jun_11_1818_1128,2019_Jun_11_1818,2IFC,2,RORE28,
2IFC,39,0,39,0,4.4,-1,correct answer,0.468655060511,True,False,stimulusRORE28_2IFC_2019_Jun_11_1818_1129,stimulusRORE28_2IFC_2019_Jun_11_1818_1130,2019_Jun_11_1818,2IFC,2,RORE28,
2IFC,40,0,40,0,4.4,-1,correct answer,0.767923710402,False,True,stimulusRORE28_2IFC_2019_Jun_11_1818_1131,stimulusRORE28_2IFC_2019_Jun_11_1818_1132,2019_Jun_11_1818,2IFC,2,RORE28,
2IFC,41,0,41,0,4.4,-1,correct answer,0.375527143944,True,False,stimulusRORE28_2IFC_2019_Jun_11_1818_1133,stimulusRORE28_2IFC_2019_Jun_11_1818_1134,2019_Jun_11_1818,2IFC,2,RORE28,
2IFC,42,0,42,0,4.4,-1,correct answer,0.668250014074,True,False,stimulusRORE28_2IFC_2019_Jun_11_1818_1135,stimulusRORE28_2IFC_2019_Jun_11_1818_1136,2019_Jun_11_1818,2IFC,2,RORE28,
2IFC,43,0,43,0,4.4,-1,correct answer,0.610415277537,True,False,stimulusRORE28_2IFC_2019_Jun_11_1818_1137,stimulusRORE28_2IFC_2019_Jun_11_1818_1138,2019_Jun_11_1818,2IFC,2,RORE28,
2IFC,44,0,44,0,4.4,-1,wrong answer,0.80072609568,False,True,stimulusRORE28_2IFC_2019_Jun_11_1818_1139,stimulusRORE28_2IFC_2019_Jun_11_1818_1140,2019_Jun_11_1818,2IFC,2,RORE28,
