Task,trials.thisRepN,trials.thisTrialN,trials.thisN,trials.thisIndex,signal_intensity,constant Value,response,time_response,signal_on_stimuluspos1,signal_on_stimuluspos2,stimulus_name_pos1,stimulus_name_pos2,random_intensity,date,expName,session,participant,
2IFC,0,0,0,0,14.3,-1,correct answer,0.434267200064,True,False,stimulusWOAN27_2IFC_2019_Jun_13_1205_1,stimulusWOAN27_2IFC_2019_Jun_13_1205_2,False,2019_Jun_13_1205,2IFC,3,WOAN27,
2IFC,1,0,1,0,14.3,-1,correct answer,0.467018700205,True,False,stimulusWOAN27_2IFC_2019_Jun_13_1205_3,stimulusWOAN27_2IFC_2019_Jun_13_1205_4,False,2019_Jun_13_1205,2IFC,3,WOAN27,
2IFC,2,0,2,0,14.3,-1,correct answer,0.334753199946,True,False,stimulusWOAN27_2IFC_2019_Jun_13_1205_5,stimulusWOAN27_2IFC_2019_Jun_13_1205_6,False,2019_Jun_13_1205,2IFC,3,WOAN27,
2IFC,3,0,3,0,14.3,-1,correct answer,0.367320499849,False,True,stimulusWOAN27_2IFC_2019_Jun_13_1205_7,stimulusWOAN27_2IFC_2019_Jun_13_1205_8,False,2019_Jun_13_1205,2IFC,3,WOAN27,
2IFC,4,0,4,0,14.3,-1,correct answer,0.334647099953,True,False,stimulusWOAN27_2IFC_2019_Jun_13_1205_9,stimulusWOAN27_2IFC_2019_Jun_13_1205_10,False,2019_Jun_13_1205,2IFC,3,WOAN27,
2IFC,5,0,5,0,14.3,-1,correct answer,0.299855000107,True,False,stimulusWOAN27_2IFC_2019_Jun_13_1205_11,stimulusWOAN27_2IFC_2019_Jun_13_1205_12,False,2019_Jun_13_1205,2IFC,3,WOAN27,
2IFC,6,0,6,0,14.3,-1,correct answer,0.366113200085,False,True,stimulusWOAN27_2IFC_2019_Jun_13_1205_13,stimulusWOAN27_2IFC_2019_Jun_13_1205_14,False,2019_Jun_13_1205,2IFC,3,WOAN27,
2IFC,7,0,7,0,14.3,-1,correct answer,0.433786700014,False,True,stimulusWOAN27_2IFC_2019_Jun_13_1205_15,stimulusWOAN27_2IFC_2019_Jun_13_1205_16,False,2019_Jun_13_1205,2IFC,3,WOAN27,
2IFC,8,0,8,0,14.3,-1,correct answer,0.266960900044,True,False,stimulusWOAN27_2IFC_2019_Jun_13_1205_17,stimulusWOAN27_2IFC_2019_Jun_13_1205_18,False,2019_Jun_13_1205,2IFC,3,WOAN27,
2IFC,9,0,9,0,14.3,-1,correct answer,0.368179500103,False,True,stimulusWOAN27_2IFC_2019_Jun_13_1205_19,stimulusWOAN27_2IFC_2019_Jun_13_1205_20,False,2019_Jun_13_1205,2IFC,3,WOAN27,
2IFC,10,0,10,0,14.3,-1,correct answer,0.333908300148,True,False,stimulusWOAN27_2IFC_2019_Jun_13_1205_21,stimulusWOAN27_2IFC_2019_Jun_13_1205_22,False,2019_Jun_13_1205,2IFC,3,WOAN27,
2IFC,11,0,11,0,14.3,-1,correct answer,0.36679999996,False,True,stimulusWOAN27_2IFC_2019_Jun_13_1205_23,stimulusWOAN27_2IFC_2019_Jun_13_1205_24,False,2019_Jun_13_1205,2IFC,3,WOAN27,
2IFC,12,0,12,0,14.3,-1,correct answer,0.367170300102,False,True,stimulusWOAN27_2IFC_2019_Jun_13_1205_25,stimulusWOAN27_2IFC_2019_Jun_13_1205_26,False,2019_Jun_13_1205,2IFC,3,WOAN27,
2IFC,13,0,13,0,14.3,-1,correct answer,0.367370200111,False,True,stimulusWOAN27_2IFC_2019_Jun_13_1205_27,stimulusWOAN27_2IFC_2019_Jun_13_1205_28,False,2019_Jun_13_1205,2IFC,3,WOAN27,
2IFC,14,0,14,0,14.3,-1,correct answer,0.333763600094,False,True,stimulusWOAN27_2IFC_2019_Jun_13_1205_29,stimulusWOAN27_2IFC_2019_Jun_13_1205_30,False,2019_Jun_13_1205,2IFC,3,WOAN27,
2IFC,15,0,15,0,14.3,-1,correct answer,0.433591200039,False,True,stimulusWOAN27_2IFC_2019_Jun_13_1205_31,stimulusWOAN27_2IFC_2019_Jun_13_1205_32,False,2019_Jun_13_1205,2IFC,3,WOAN27,
2IFC,16,0,16,0,14.3,-1,correct answer,0.300824799808,True,False,stimulusWOAN27_2IFC_2019_Jun_13_1205_33,stimulusWOAN27_2IFC_2019_Jun_13_1205_34,False,2019_Jun_13_1205,2IFC,3,WOAN27,
2IFC,17,0,17,0,14.3,-1,correct answer,0.435017700074,True,False,stimulusWOAN27_2IFC_2019_Jun_13_1205_35,stimulusWOAN27_2IFC_2019_Jun_13_1205_36,False,2019_Jun_13_1205,2IFC,3,WOAN27,
2IFC,18,0,18,0,14.3,-1,correct answer,0.333721699892,True,False,stimulusWOAN27_2IFC_2019_Jun_13_1205_37,stimulusWOAN27_2IFC_2019_Jun_13_1205_38,False,2019_Jun_13_1205,2IFC,3,WOAN27,
2IFC,19,0,19,0,14.3,-1,correct answer,0.333583700005,False,True,stimulusWOAN27_2IFC_2019_Jun_13_1205_39,stimulusWOAN27_2IFC_2019_Jun_13_1205_40,False,2019_Jun_13_1205,2IFC,3,WOAN27,
2IFC,20,0,20,0,14.3,-1,correct answer,0.501028399915,False,True,stimulusWOAN27_2IFC_2019_Jun_13_1205_41,stimulusWOAN27_2IFC_2019_Jun_13_1205_42,False,2019_Jun_13_1205,2IFC,3,WOAN27,
2IFC,21,0,21,0,14.3,-1,correct answer,0.367002400104,False,True,stimulusWOAN27_2IFC_2019_Jun_13_1205_43,stimulusWOAN27_2IFC_2019_Jun_13_1205_44,False,2019_Jun_13_1205,2IFC,3,WOAN27,
2IFC,22,0,22,0,14.3,-1,correct answer,0.334025799995,True,False,stimulusWOAN27_2IFC_2019_Jun_13_1205_45,stimulusWOAN27_2IFC_2019_Jun_13_1205_46,False,2019_Jun_13_1205,2IFC,3,WOAN27,
2IFC,23,0,23,0,14.3,-1,correct answer,0.367125499994,False,True,stimulusWOAN27_2IFC_2019_Jun_13_1205_47,stimulusWOAN27_2IFC_2019_Jun_13_1205_48,False,2019_Jun_13_1205,2IFC,3,WOAN27,
2IFC,24,0,24,0,14.3,-1,correct answer,0.367376300041,False,True,stimulusWOAN27_2IFC_2019_Jun_13_1205_49,stimulusWOAN27_2IFC_2019_Jun_13_1205_50,False,2019_Jun_13_1205,2IFC,3,WOAN27,
2IFC,25,0,25,0,14.3,-1,correct answer,0.367003099993,False,True,stimulusWOAN27_2IFC_2019_Jun_13_1205_51,stimulusWOAN27_2IFC_2019_Jun_13_1205_52,False,2019_Jun_13_1205,2IFC,3,WOAN27,
2IFC,26,0,26,0,14.3,-1,correct answer,0.400659200037,True,False,stimulusWOAN27_2IFC_2019_Jun_13_1205_53,stimulusWOAN27_2IFC_2019_Jun_13_1205_54,False,2019_Jun_13_1205,2IFC,3,WOAN27,
2IFC,27,0,27,0,14.3,-1,correct answer,0.300927400123,True,False,stimulusWOAN27_2IFC_2019_Jun_13_1205_55,stimulusWOAN27_2IFC_2019_Jun_13_1205_56,False,2019_Jun_13_1205,2IFC,3,WOAN27,
2IFC,28,0,28,0,14.3,-1,correct answer,0.367147899931,False,True,stimulusWOAN27_2IFC_2019_Jun_13_1205_57,stimulusWOAN27_2IFC_2019_Jun_13_1205_58,False,2019_Jun_13_1205,2IFC,3,WOAN27,
2IFC,29,0,29,0,14.3,-1,correct answer,0.367160400143,True,False,stimulusWOAN27_2IFC_2019_Jun_13_1205_59,stimulusWOAN27_2IFC_2019_Jun_13_1205_60,False,2019_Jun_13_1205,2IFC,3,WOAN27,
2IFC,30,0,30,0,14.3,-1,correct answer,0.40048959991,False,True,stimulusWOAN27_2IFC_2019_Jun_13_1205_61,stimulusWOAN27_2IFC_2019_Jun_13_1205_62,False,2019_Jun_13_1205,2IFC,3,WOAN27,
2IFC,31,0,31,0,14.3,-1,correct answer,0.367158000125,True,False,stimulusWOAN27_2IFC_2019_Jun_13_1205_63,stimulusWOAN27_2IFC_2019_Jun_13_1205_64,False,2019_Jun_13_1205,2IFC,3,WOAN27,
2IFC,32,0,32,0,14.3,-1,correct answer,0.401217999868,True,False,stimulusWOAN27_2IFC_2019_Jun_13_1205_65,stimulusWOAN27_2IFC_2019_Jun_13_1205_66,False,2019_Jun_13_1205,2IFC,3,WOAN27,
2IFC,33,0,33,0,14.3,-1,correct answer,0.367133700056,True,False,stimulusWOAN27_2IFC_2019_Jun_13_1205_67,stimulusWOAN27_2IFC_2019_Jun_13_1205_68,False,2019_Jun_13_1205,2IFC,3,WOAN27,
2IFC,34,0,34,0,14.3,-1,correct answer,0.36699800007,False,True,stimulusWOAN27_2IFC_2019_Jun_13_1205_69,stimulusWOAN27_2IFC_2019_Jun_13_1205_70,False,2019_Jun_13_1205,2IFC,3,WOAN27,
2IFC,35,0,35,0,14.3,-1,correct answer,0.701097300043,False,True,stimulusWOAN27_2IFC_2019_Jun_13_1205_71,stimulusWOAN27_2IFC_2019_Jun_13_1205_72,False,2019_Jun_13_1205,2IFC,3,WOAN27,
2IFC,36,0,36,0,14.3,-1,correct answer,0.367127300007,False,True,stimulusWOAN27_2IFC_2019_Jun_13_1205_73,stimulusWOAN27_2IFC_2019_Jun_13_1205_74,False,2019_Jun_13_1205,2IFC,3,WOAN27,
2IFC,37,0,37,0,14.3,-1,correct answer,0.367956500035,False,True,stimulusWOAN27_2IFC_2019_Jun_13_1205_75,stimulusWOAN27_2IFC_2019_Jun_13_1205_76,False,2019_Jun_13_1205,2IFC,3,WOAN27,
2IFC,38,0,38,0,14.3,-1,correct answer,0.534272599965,False,True,stimulusWOAN27_2IFC_2019_Jun_13_1205_77,stimulusWOAN27_2IFC_2019_Jun_13_1205_78,False,2019_Jun_13_1205,2IFC,3,WOAN27,
2IFC,39,0,39,0,14.3,-1,correct answer,0.302796500036,True,False,stimulusWOAN27_2IFC_2019_Jun_13_1205_79,stimulusWOAN27_2IFC_2019_Jun_13_1205_80,False,2019_Jun_13_1205,2IFC,3,WOAN27,
2IFC,40,0,40,0,14.3,-1,correct answer,0.400716400007,True,False,stimulusWOAN27_2IFC_2019_Jun_13_1205_81,stimulusWOAN27_2IFC_2019_Jun_13_1205_82,False,2019_Jun_13_1205,2IFC,3,WOAN27,
2IFC,41,0,41,0,14.3,-1,correct answer,0.500919400016,False,True,stimulusWOAN27_2IFC_2019_Jun_13_1205_83,stimulusWOAN27_2IFC_2019_Jun_13_1205_84,False,2019_Jun_13_1205,2IFC,3,WOAN27,
2IFC,42,0,42,0,14.3,-1,correct answer,0.664633499924,True,False,stimulusWOAN27_2IFC_2019_Jun_13_1205_85,stimulusWOAN27_2IFC_2019_Jun_13_1205_86,False,2019_Jun_13_1205,2IFC,3,WOAN27,
2IFC,43,0,43,0,14.3,-1,correct answer,0.433740700129,True,False,stimulusWOAN27_2IFC_2019_Jun_13_1205_87,stimulusWOAN27_2IFC_2019_Jun_13_1205_88,False,2019_Jun_13_1205,2IFC,3,WOAN27,
2IFC,44,0,44,0,14.3,-1,correct answer,0.367175499909,True,False,stimulusWOAN27_2IFC_2019_Jun_13_1205_89,stimulusWOAN27_2IFC_2019_Jun_13_1205_90,False,2019_Jun_13_1205,2IFC,3,WOAN27,
2IFC,45,0,45,0,14.3,-1,correct answer,0.400784800062,True,False,stimulusWOAN27_2IFC_2019_Jun_13_1205_91,stimulusWOAN27_2IFC_2019_Jun_13_1205_92,False,2019_Jun_13_1205,2IFC,3,WOAN27,
2IFC,46,0,46,0,14.3,-1,correct answer,0.400234600063,True,False,stimulusWOAN27_2IFC_2019_Jun_13_1205_93,stimulusWOAN27_2IFC_2019_Jun_13_1205_94,False,2019_Jun_13_1205,2IFC,3,WOAN27,
2IFC,47,0,47,0,14.3,-1,correct answer,0.434563199989,True,False,stimulusWOAN27_2IFC_2019_Jun_13_1205_95,stimulusWOAN27_2IFC_2019_Jun_13_1205_96,False,2019_Jun_13_1205,2IFC,3,WOAN27,
2IFC,48,0,48,0,14.3,-1,correct answer,0.36716039991,True,False,stimulusWOAN27_2IFC_2019_Jun_13_1205_97,stimulusWOAN27_2IFC_2019_Jun_13_1205_98,False,2019_Jun_13_1205,2IFC,3,WOAN27,
2IFC,49,0,49,0,14.3,-1,correct answer,0.467426299816,False,True,stimulusWOAN27_2IFC_2019_Jun_13_1205_99,stimulusWOAN27_2IFC_2019_Jun_13_1205_100,False,2019_Jun_13_1205,2IFC,3,WOAN27,
2IFC,50,0,50,0,14.3,-1,correct answer,0.43429200002,True,False,stimulusWOAN27_2IFC_2019_Jun_13_1205_101,stimulusWOAN27_2IFC_2019_Jun_13_1205_102,False,2019_Jun_13_1205,2IFC,3,WOAN27,
2IFC,51,0,51,0,14.3,-1,correct answer,0.433187499875,True,False,stimulusWOAN27_2IFC_2019_Jun_13_1205_103,stimulusWOAN27_2IFC_2019_Jun_13_1205_104,False,2019_Jun_13_1205,2IFC,3,WOAN27,
2IFC,52,0,52,0,14.3,-1,correct answer,0.399556100136,False,True,stimulusWOAN27_2IFC_2019_Jun_13_1205_105,stimulusWOAN27_2IFC_2019_Jun_13_1205_106,False,2019_Jun_13_1205,2IFC,3,WOAN27,
2IFC,53,0,53,0,14.3,-1,correct answer,0.399951400002,False,True,stimulusWOAN27_2IFC_2019_Jun_13_1205_107,stimulusWOAN27_2IFC_2019_Jun_13_1205_108,False,2019_Jun_13_1205,2IFC,3,WOAN27,
2IFC,54,0,54,0,14.3,-1,correct answer,0.367369099986,False,True,stimulusWOAN27_2IFC_2019_Jun_13_1205_109,stimulusWOAN27_2IFC_2019_Jun_13_1205_110,False,2019_Jun_13_1205,2IFC,3,WOAN27,
2IFC,55,0,55,0,14.3,-1,correct answer,0.334208300104,True,False,stimulusWOAN27_2IFC_2019_Jun_13_1205_111,stimulusWOAN27_2IFC_2019_Jun_13_1205_112,False,2019_Jun_13_1205,2IFC,3,WOAN27,
2IFC,56,0,56,0,14.3,-1,correct answer,0.400805299869,False,True,stimulusWOAN27_2IFC_2019_Jun_13_1205_113,stimulusWOAN27_2IFC_2019_Jun_13_1205_114,False,2019_Jun_13_1205,2IFC,3,WOAN27,
2IFC,57,0,57,0,14.3,-1,correct answer,0.366572299972,True,False,stimulusWOAN27_2IFC_2019_Jun_13_1205_115,stimulusWOAN27_2IFC_2019_Jun_13_1205_116,False,2019_Jun_13_1205,2IFC,3,WOAN27,
2IFC,58,0,58,0,14.3,-1,correct answer,0.467271199916,False,True,stimulusWOAN27_2IFC_2019_Jun_13_1205_117,stimulusWOAN27_2IFC_2019_Jun_13_1205_118,False,2019_Jun_13_1205,2IFC,3,WOAN27,
2IFC,59,0,59,0,14.3,-1,correct answer,0.400523900054,False,True,stimulusWOAN27_2IFC_2019_Jun_13_1205_119,stimulusWOAN27_2IFC_2019_Jun_13_1205_120,False,2019_Jun_13_1205,2IFC,3,WOAN27,
2IFC,60,0,60,0,14.3,-1,correct answer,0.267219600035,True,False,stimulusWOAN27_2IFC_2019_Jun_13_1205_121,stimulusWOAN27_2IFC_2019_Jun_13_1205_122,False,2019_Jun_13_1205,2IFC,3,WOAN27,
2IFC,61,0,61,0,14.3,-1,correct answer,0.367177499924,False,True,stimulusWOAN27_2IFC_2019_Jun_13_1205_123,stimulusWOAN27_2IFC_2019_Jun_13_1205_124,False,2019_Jun_13_1205,2IFC,3,WOAN27,
2IFC,62,0,62,0,14.3,-1,correct answer,0.401798799867,True,False,stimulusWOAN27_2IFC_2019_Jun_13_1205_125,stimulusWOAN27_2IFC_2019_Jun_13_1205_126,False,2019_Jun_13_1205,2IFC,3,WOAN27,
2IFC,63,0,63,0,14.3,-1,correct answer,0.400573899969,True,False,stimulusWOAN27_2IFC_2019_Jun_13_1205_127,stimulusWOAN27_2IFC_2019_Jun_13_1205_128,False,2019_Jun_13_1205,2IFC,3,WOAN27,
2IFC,64,0,64,0,14.3,-1,correct answer,0.433327900013,True,False,stimulusWOAN27_2IFC_2019_Jun_13_1205_129,stimulusWOAN27_2IFC_2019_Jun_13_1205_130,False,2019_Jun_13_1205,2IFC,3,WOAN27,
2IFC,65,0,65,0,14.3,-1,correct answer,0.334131799871,True,False,stimulusWOAN27_2IFC_2019_Jun_13_1205_131,stimulusWOAN27_2IFC_2019_Jun_13_1205_132,False,2019_Jun_13_1205,2IFC,3,WOAN27,
2IFC,66,0,66,0,14.3,-1,correct answer,0.300330699887,False,True,stimulusWOAN27_2IFC_2019_Jun_13_1205_133,stimulusWOAN27_2IFC_2019_Jun_13_1205_134,False,2019_Jun_13_1205,2IFC,3,WOAN27,
2IFC,67,0,67,0,14.3,-1,correct answer,0.434030999895,False,True,stimulusWOAN27_2IFC_2019_Jun_13_1205_135,stimulusWOAN27_2IFC_2019_Jun_13_1205_136,False,2019_Jun_13_1205,2IFC,3,WOAN27,
2IFC,68,0,68,0,14.3,-1,correct answer,0.367033699993,True,False,stimulusWOAN27_2IFC_2019_Jun_13_1205_137,stimulusWOAN27_2IFC_2019_Jun_13_1205_138,False,2019_Jun_13_1205,2IFC,3,WOAN27,
2IFC,69,0,69,0,14.3,-1,correct answer,0.334038899979,True,False,stimulusWOAN27_2IFC_2019_Jun_13_1205_139,stimulusWOAN27_2IFC_2019_Jun_13_1205_140,False,2019_Jun_13_1205,2IFC,3,WOAN27,
2IFC,70,0,70,0,14.3,-1,correct answer,0.500609500101,True,False,stimulusWOAN27_2IFC_2019_Jun_13_1205_141,stimulusWOAN27_2IFC_2019_Jun_13_1205_142,False,2019_Jun_13_1205,2IFC,3,WOAN27,
2IFC,71,0,71,0,14.3,-1,correct answer,0.367316500051,False,True,stimulusWOAN27_2IFC_2019_Jun_13_1205_143,stimulusWOAN27_2IFC_2019_Jun_13_1205_144,False,2019_Jun_13_1205,2IFC,3,WOAN27,
2IFC,72,0,72,0,14.3,-1,correct answer,0.400519900024,True,False,stimulusWOAN27_2IFC_2019_Jun_13_1205_145,stimulusWOAN27_2IFC_2019_Jun_13_1205_146,False,2019_Jun_13_1205,2IFC,3,WOAN27,
2IFC,73,0,73,0,14.3,-1,correct answer,0.433116399916,True,False,stimulusWOAN27_2IFC_2019_Jun_13_1205_147,stimulusWOAN27_2IFC_2019_Jun_13_1205_148,False,2019_Jun_13_1205,2IFC,3,WOAN27,
2IFC,74,0,74,0,14.3,-1,correct answer,0.500774099957,True,False,stimulusWOAN27_2IFC_2019_Jun_13_1205_149,stimulusWOAN27_2IFC_2019_Jun_13_1205_150,False,2019_Jun_13_1205,2IFC,3,WOAN27,
2IFC,0,0,0,0,12.4,-1,correct answer,0.567960100016,True,False,stimulusWOAN27_2IFC_2019_Jun_13_1205_151,stimulusWOAN27_2IFC_2019_Jun_13_1205_152,False,2019_Jun_13_1205,2IFC,3,WOAN27,
2IFC,1,0,1,0,12.4,-1,correct answer,0.333444300108,False,True,stimulusWOAN27_2IFC_2019_Jun_13_1205_153,stimulusWOAN27_2IFC_2019_Jun_13_1205_154,False,2019_Jun_13_1205,2IFC,3,WOAN27,
2IFC,2,0,2,0,12.4,-1,correct answer,0.367675299989,False,True,stimulusWOAN27_2IFC_2019_Jun_13_1205_155,stimulusWOAN27_2IFC_2019_Jun_13_1205_156,False,2019_Jun_13_1205,2IFC,3,WOAN27,
2IFC,3,0,3,0,12.4,-1,correct answer,0.367232699879,True,False,stimulusWOAN27_2IFC_2019_Jun_13_1205_157,stimulusWOAN27_2IFC_2019_Jun_13_1205_158,False,2019_Jun_13_1205,2IFC,3,WOAN27,
2IFC,4,0,4,0,12.4,-1,correct answer,0.366853100015,False,True,stimulusWOAN27_2IFC_2019_Jun_13_1205_159,stimulusWOAN27_2IFC_2019_Jun_13_1205_160,False,2019_Jun_13_1205,2IFC,3,WOAN27,
2IFC,5,0,5,0,12.4,-1,correct answer,0.433851200156,False,True,stimulusWOAN27_2IFC_2019_Jun_13_1205_161,stimulusWOAN27_2IFC_2019_Jun_13_1205_162,False,2019_Jun_13_1205,2IFC,3,WOAN27,
2IFC,6,0,6,0,12.4,-1,correct answer,0.399787800154,False,True,stimulusWOAN27_2IFC_2019_Jun_13_1205_163,stimulusWOAN27_2IFC_2019_Jun_13_1205_164,False,2019_Jun_13_1205,2IFC,3,WOAN27,
2IFC,7,0,7,0,12.4,-1,correct answer,0.300550600048,True,False,stimulusWOAN27_2IFC_2019_Jun_13_1205_165,stimulusWOAN27_2IFC_2019_Jun_13_1205_166,False,2019_Jun_13_1205,2IFC,3,WOAN27,
2IFC,8,0,8,0,12.4,-1,correct answer,0.400035499828,False,True,stimulusWOAN27_2IFC_2019_Jun_13_1205_167,stimulusWOAN27_2IFC_2019_Jun_13_1205_168,False,2019_Jun_13_1205,2IFC,3,WOAN27,
2IFC,9,0,9,0,12.4,-1,correct answer,0.334361999994,False,True,stimulusWOAN27_2IFC_2019_Jun_13_1205_169,stimulusWOAN27_2IFC_2019_Jun_13_1205_170,False,2019_Jun_13_1205,2IFC,3,WOAN27,
2IFC,10,0,10,0,12.4,-1,correct answer,0.433975800173,False,True,stimulusWOAN27_2IFC_2019_Jun_13_1205_171,stimulusWOAN27_2IFC_2019_Jun_13_1205_172,False,2019_Jun_13_1205,2IFC,3,WOAN27,
2IFC,11,0,11,0,12.4,-1,correct answer,0.405500699999,True,False,stimulusWOAN27_2IFC_2019_Jun_13_1205_173,stimulusWOAN27_2IFC_2019_Jun_13_1205_174,False,2019_Jun_13_1205,2IFC,3,WOAN27,
2IFC,12,0,12,0,12.4,-1,correct answer,0.399216999998,True,False,stimulusWOAN27_2IFC_2019_Jun_13_1205_175,stimulusWOAN27_2IFC_2019_Jun_13_1205_176,False,2019_Jun_13_1205,2IFC,3,WOAN27,
2IFC,13,0,13,0,12.4,-1,correct answer,0.36703329999,False,True,stimulusWOAN27_2IFC_2019_Jun_13_1205_177,stimulusWOAN27_2IFC_2019_Jun_13_1205_178,False,2019_Jun_13_1205,2IFC,3,WOAN27,
2IFC,14,0,14,0,12.4,-1,correct answer,0.468059299979,False,True,stimulusWOAN27_2IFC_2019_Jun_13_1205_179,stimulusWOAN27_2IFC_2019_Jun_13_1205_180,False,2019_Jun_13_1205,2IFC,3,WOAN27,
2IFC,15,0,15,0,12.4,-1,correct answer,0.367093399866,True,False,stimulusWOAN27_2IFC_2019_Jun_13_1205_181,stimulusWOAN27_2IFC_2019_Jun_13_1205_182,False,2019_Jun_13_1205,2IFC,3,WOAN27,
2IFC,16,0,16,0,12.4,-1,correct answer,0.433158700122,False,True,stimulusWOAN27_2IFC_2019_Jun_13_1205_183,stimulusWOAN27_2IFC_2019_Jun_13_1205_184,False,2019_Jun_13_1205,2IFC,3,WOAN27,
2IFC,17,0,17,0,12.4,-1,correct answer,0.300518300151,True,False,stimulusWOAN27_2IFC_2019_Jun_13_1205_185,stimulusWOAN27_2IFC_2019_Jun_13_1205_186,False,2019_Jun_13_1205,2IFC,3,WOAN27,
2IFC,18,0,18,0,12.4,-1,correct answer,0.33408189984,False,True,stimulusWOAN27_2IFC_2019_Jun_13_1205_187,stimulusWOAN27_2IFC_2019_Jun_13_1205_188,False,2019_Jun_13_1205,2IFC,3,WOAN27,
2IFC,19,0,19,0,12.4,-1,correct answer,0.300653899787,False,True,stimulusWOAN27_2IFC_2019_Jun_13_1205_189,stimulusWOAN27_2IFC_2019_Jun_13_1205_190,False,2019_Jun_13_1205,2IFC,3,WOAN27,
2IFC,20,0,20,0,12.4,-1,correct answer,0.433837400051,False,True,stimulusWOAN27_2IFC_2019_Jun_13_1205_191,stimulusWOAN27_2IFC_2019_Jun_13_1205_192,False,2019_Jun_13_1205,2IFC,3,WOAN27,
2IFC,21,0,21,0,12.4,-1,correct answer,0.367403500015,False,True,stimulusWOAN27_2IFC_2019_Jun_13_1205_193,stimulusWOAN27_2IFC_2019_Jun_13_1205_194,False,2019_Jun_13_1205,2IFC,3,WOAN27,
2IFC,22,0,22,0,12.4,-1,correct answer,0.400354800047,False,True,stimulusWOAN27_2IFC_2019_Jun_13_1205_195,stimulusWOAN27_2IFC_2019_Jun_13_1205_196,False,2019_Jun_13_1205,2IFC,3,WOAN27,
2IFC,23,0,23,0,12.4,-1,correct answer,0.400389200076,True,False,stimulusWOAN27_2IFC_2019_Jun_13_1205_197,stimulusWOAN27_2IFC_2019_Jun_13_1205_198,False,2019_Jun_13_1205,2IFC,3,WOAN27,
2IFC,24,0,24,0,12.4,-1,correct answer,0.399708800018,True,False,stimulusWOAN27_2IFC_2019_Jun_13_1205_199,stimulusWOAN27_2IFC_2019_Jun_13_1205_200,False,2019_Jun_13_1205,2IFC,3,WOAN27,
2IFC,25,0,25,0,12.4,-1,correct answer,0.400789199863,True,False,stimulusWOAN27_2IFC_2019_Jun_13_1205_201,stimulusWOAN27_2IFC_2019_Jun_13_1205_202,False,2019_Jun_13_1205,2IFC,3,WOAN27,
2IFC,26,0,26,0,12.4,-1,correct answer,0.567421899876,False,True,stimulusWOAN27_2IFC_2019_Jun_13_1205_203,stimulusWOAN27_2IFC_2019_Jun_13_1205_204,False,2019_Jun_13_1205,2IFC,3,WOAN27,
2IFC,27,0,27,0,12.4,-1,correct answer,0.400604999857,False,True,stimulusWOAN27_2IFC_2019_Jun_13_1205_205,stimulusWOAN27_2IFC_2019_Jun_13_1205_206,False,2019_Jun_13_1205,2IFC,3,WOAN27,
2IFC,28,0,28,0,12.4,-1,correct answer,0.467412100174,False,True,stimulusWOAN27_2IFC_2019_Jun_13_1205_207,stimulusWOAN27_2IFC_2019_Jun_13_1205_208,False,2019_Jun_13_1205,2IFC,3,WOAN27,
2IFC,29,0,29,0,12.4,-1,correct answer,0.534126699902,False,True,stimulusWOAN27_2IFC_2019_Jun_13_1205_209,stimulusWOAN27_2IFC_2019_Jun_13_1205_210,False,2019_Jun_13_1205,2IFC,3,WOAN27,
2IFC,30,0,30,0,12.4,-1,correct answer,0.531899899943,False,True,stimulusWOAN27_2IFC_2019_Jun_13_1205_211,stimulusWOAN27_2IFC_2019_Jun_13_1205_212,False,2019_Jun_13_1205,2IFC,3,WOAN27,
2IFC,31,0,31,0,12.4,-1,correct answer,0.30119909998,True,False,stimulusWOAN27_2IFC_2019_Jun_13_1205_213,stimulusWOAN27_2IFC_2019_Jun_13_1205_214,False,2019_Jun_13_1205,2IFC,3,WOAN27,
2IFC,32,0,32,0,12.4,-1,correct answer,0.333762600087,True,False,stimulusWOAN27_2IFC_2019_Jun_13_1205_215,stimulusWOAN27_2IFC_2019_Jun_13_1205_216,False,2019_Jun_13_1205,2IFC,3,WOAN27,
2IFC,33,0,33,0,12.4,-1,correct answer,0.434163500089,True,False,stimulusWOAN27_2IFC_2019_Jun_13_1205_217,stimulusWOAN27_2IFC_2019_Jun_13_1205_218,False,2019_Jun_13_1205,2IFC,3,WOAN27,
2IFC,34,0,34,0,12.4,-1,correct answer,0.434403900057,True,False,stimulusWOAN27_2IFC_2019_Jun_13_1205_219,stimulusWOAN27_2IFC_2019_Jun_13_1205_220,False,2019_Jun_13_1205,2IFC,3,WOAN27,
2IFC,35,0,35,0,12.4,-1,correct answer,0.367255200166,False,True,stimulusWOAN27_2IFC_2019_Jun_13_1205_221,stimulusWOAN27_2IFC_2019_Jun_13_1205_222,False,2019_Jun_13_1205,2IFC,3,WOAN27,
2IFC,36,0,36,0,12.4,-1,correct answer,0.367108599981,True,False,stimulusWOAN27_2IFC_2019_Jun_13_1205_223,stimulusWOAN27_2IFC_2019_Jun_13_1205_224,False,2019_Jun_13_1205,2IFC,3,WOAN27,
2IFC,37,0,37,0,12.4,-1,correct answer,0.33342889999,True,False,stimulusWOAN27_2IFC_2019_Jun_13_1205_225,stimulusWOAN27_2IFC_2019_Jun_13_1205_226,False,2019_Jun_13_1205,2IFC,3,WOAN27,
2IFC,38,0,38,0,12.4,-1,correct answer,0.500797499903,False,True,stimulusWOAN27_2IFC_2019_Jun_13_1205_227,stimulusWOAN27_2IFC_2019_Jun_13_1205_228,False,2019_Jun_13_1205,2IFC,3,WOAN27,
2IFC,39,0,39,0,12.4,-1,correct answer,0.467181799933,False,True,stimulusWOAN27_2IFC_2019_Jun_13_1205_229,stimulusWOAN27_2IFC_2019_Jun_13_1205_230,False,2019_Jun_13_1205,2IFC,3,WOAN27,
2IFC,40,0,40,0,12.4,-1,correct answer,0.400512699969,False,True,stimulusWOAN27_2IFC_2019_Jun_13_1205_231,stimulusWOAN27_2IFC_2019_Jun_13_1205_232,False,2019_Jun_13_1205,2IFC,3,WOAN27,
2IFC,41,0,41,0,12.4,-1,correct answer,0.333887699991,False,True,stimulusWOAN27_2IFC_2019_Jun_13_1205_233,stimulusWOAN27_2IFC_2019_Jun_13_1205_234,False,2019_Jun_13_1205,2IFC,3,WOAN27,
2IFC,42,0,42,0,12.4,-1,correct answer,0.400381300133,False,True,stimulusWOAN27_2IFC_2019_Jun_13_1205_235,stimulusWOAN27_2IFC_2019_Jun_13_1205_236,False,2019_Jun_13_1205,2IFC,3,WOAN27,
2IFC,43,0,43,0,12.4,-1,correct answer,0.402348299976,False,True,stimulusWOAN27_2IFC_2019_Jun_13_1205_237,stimulusWOAN27_2IFC_2019_Jun_13_1205_238,False,2019_Jun_13_1205,2IFC,3,WOAN27,
2IFC,44,0,44,0,12.4,-1,correct answer,0.433947100071,True,False,stimulusWOAN27_2IFC_2019_Jun_13_1205_239,stimulusWOAN27_2IFC_2019_Jun_13_1205_240,False,2019_Jun_13_1205,2IFC,3,WOAN27,
2IFC,45,0,45,0,12.4,-1,correct answer,0.467660699971,True,False,stimulusWOAN27_2IFC_2019_Jun_13_1205_241,stimulusWOAN27_2IFC_2019_Jun_13_1205_242,False,2019_Jun_13_1205,2IFC,3,WOAN27,
2IFC,46,0,46,0,12.4,-1,correct answer,0.400019600056,False,True,stimulusWOAN27_2IFC_2019_Jun_13_1205_243,stimulusWOAN27_2IFC_2019_Jun_13_1205_244,False,2019_Jun_13_1205,2IFC,3,WOAN27,
2IFC,47,0,47,0,12.4,-1,correct answer,0.334082999965,True,False,stimulusWOAN27_2IFC_2019_Jun_13_1205_245,stimulusWOAN27_2IFC_2019_Jun_13_1205_246,False,2019_Jun_13_1205,2IFC,3,WOAN27,
2IFC,48,0,48,0,12.4,-1,correct answer,0.367234699894,True,False,stimulusWOAN27_2IFC_2019_Jun_13_1205_247,stimulusWOAN27_2IFC_2019_Jun_13_1205_248,False,2019_Jun_13_1205,2IFC,3,WOAN27,
2IFC,49,0,49,0,12.4,-1,correct answer,0.367483000038,False,True,stimulusWOAN27_2IFC_2019_Jun_13_1205_249,stimulusWOAN27_2IFC_2019_Jun_13_1205_250,False,2019_Jun_13_1205,2IFC,3,WOAN27,
2IFC,50,0,50,0,12.4,-1,correct answer,0.333027800079,False,True,stimulusWOAN27_2IFC_2019_Jun_13_1205_251,stimulusWOAN27_2IFC_2019_Jun_13_1205_252,False,2019_Jun_13_1205,2IFC,3,WOAN27,
2IFC,51,0,51,0,12.4,-1,correct answer,0.366966800066,True,False,stimulusWOAN27_2IFC_2019_Jun_13_1205_253,stimulusWOAN27_2IFC_2019_Jun_13_1205_254,False,2019_Jun_13_1205,2IFC,3,WOAN27,
2IFC,52,0,52,0,12.4,-1,correct answer,0.401642099954,False,True,stimulusWOAN27_2IFC_2019_Jun_13_1205_255,stimulusWOAN27_2IFC_2019_Jun_13_1205_256,False,2019_Jun_13_1205,2IFC,3,WOAN27,
2IFC,53,0,53,0,12.4,-1,correct answer,0.367449200014,False,True,stimulusWOAN27_2IFC_2019_Jun_13_1205_257,stimulusWOAN27_2IFC_2019_Jun_13_1205_258,False,2019_Jun_13_1205,2IFC,3,WOAN27,
2IFC,54,0,54,0,12.4,-1,correct answer,0.367348900065,True,False,stimulusWOAN27_2IFC_2019_Jun_13_1205_259,stimulusWOAN27_2IFC_2019_Jun_13_1205_260,False,2019_Jun_13_1205,2IFC,3,WOAN27,
2IFC,55,0,55,0,12.4,-1,correct answer,0.3674627,True,False,stimulusWOAN27_2IFC_2019_Jun_13_1205_261,stimulusWOAN27_2IFC_2019_Jun_13_1205_262,False,2019_Jun_13_1205,2IFC,3,WOAN27,
2IFC,56,0,56,0,12.4,-1,correct answer,0.433984900126,False,True,stimulusWOAN27_2IFC_2019_Jun_13_1205_263,stimulusWOAN27_2IFC_2019_Jun_13_1205_264,False,2019_Jun_13_1205,2IFC,3,WOAN27,
2IFC,57,0,57,0,12.4,-1,correct answer,0.333869300084,True,False,stimulusWOAN27_2IFC_2019_Jun_13_1205_265,stimulusWOAN27_2IFC_2019_Jun_13_1205_266,False,2019_Jun_13_1205,2IFC,3,WOAN27,
2IFC,58,0,58,0,12.4,-1,correct answer,0.434653900098,True,False,stimulusWOAN27_2IFC_2019_Jun_13_1205_267,stimulusWOAN27_2IFC_2019_Jun_13_1205_268,False,2019_Jun_13_1205,2IFC,3,WOAN27,
2IFC,59,0,59,0,12.4,-1,correct answer,0.300353199942,True,False,stimulusWOAN27_2IFC_2019_Jun_13_1205_269,stimulusWOAN27_2IFC_2019_Jun_13_1205_270,False,2019_Jun_13_1205,2IFC,3,WOAN27,
2IFC,60,0,60,0,12.4,-1,correct answer,0.300913600018,False,True,stimulusWOAN27_2IFC_2019_Jun_13_1205_271,stimulusWOAN27_2IFC_2019_Jun_13_1205_272,False,2019_Jun_13_1205,2IFC,3,WOAN27,
2IFC,61,0,61,0,12.4,-1,correct answer,0.668953899993,False,True,stimulusWOAN27_2IFC_2019_Jun_13_1205_273,stimulusWOAN27_2IFC_2019_Jun_13_1205_274,False,2019_Jun_13_1205,2IFC,3,WOAN27,
2IFC,62,0,62,0,12.4,-1,correct answer,0.534195800079,False,True,stimulusWOAN27_2IFC_2019_Jun_13_1205_275,stimulusWOAN27_2IFC_2019_Jun_13_1205_276,False,2019_Jun_13_1205,2IFC,3,WOAN27,
2IFC,63,0,63,0,12.4,-1,correct answer,0.499998000218,True,False,stimulusWOAN27_2IFC_2019_Jun_13_1205_277,stimulusWOAN27_2IFC_2019_Jun_13_1205_278,False,2019_Jun_13_1205,2IFC,3,WOAN27,
2IFC,64,0,64,0,12.4,-1,correct answer,0.400612700032,False,True,stimulusWOAN27_2IFC_2019_Jun_13_1205_279,stimulusWOAN27_2IFC_2019_Jun_13_1205_280,False,2019_Jun_13_1205,2IFC,3,WOAN27,
2IFC,65,0,65,0,12.4,-1,correct answer,0.434517899994,False,True,stimulusWOAN27_2IFC_2019_Jun_13_1205_281,stimulusWOAN27_2IFC_2019_Jun_13_1205_282,False,2019_Jun_13_1205,2IFC,3,WOAN27,
2IFC,66,0,66,0,12.4,-1,correct answer,0.433687299956,True,False,stimulusWOAN27_2IFC_2019_Jun_13_1205_283,stimulusWOAN27_2IFC_2019_Jun_13_1205_284,False,2019_Jun_13_1205,2IFC,3,WOAN27,
2IFC,67,0,67,0,12.4,-1,correct answer,0.733892200049,False,True,stimulusWOAN27_2IFC_2019_Jun_13_1205_285,stimulusWOAN27_2IFC_2019_Jun_13_1205_286,False,2019_Jun_13_1205,2IFC,3,WOAN27,
2IFC,68,0,68,0,12.4,-1,correct answer,0.533850100124,True,False,stimulusWOAN27_2IFC_2019_Jun_13_1205_287,stimulusWOAN27_2IFC_2019_Jun_13_1205_288,False,2019_Jun_13_1205,2IFC,3,WOAN27,
2IFC,69,0,69,0,12.4,-1,correct answer,0.334092700155,False,True,stimulusWOAN27_2IFC_2019_Jun_13_1205_289,stimulusWOAN27_2IFC_2019_Jun_13_1205_290,False,2019_Jun_13_1205,2IFC,3,WOAN27,
2IFC,70,0,70,0,12.4,-1,correct answer,0.367393900175,True,False,stimulusWOAN27_2IFC_2019_Jun_13_1205_291,stimulusWOAN27_2IFC_2019_Jun_13_1205_292,False,2019_Jun_13_1205,2IFC,3,WOAN27,
2IFC,71,0,71,0,12.4,-1,correct answer,0.401581299957,False,True,stimulusWOAN27_2IFC_2019_Jun_13_1205_293,stimulusWOAN27_2IFC_2019_Jun_13_1205_294,False,2019_Jun_13_1205,2IFC,3,WOAN27,
2IFC,72,0,72,0,12.4,-1,correct answer,0.333944899961,True,False,stimulusWOAN27_2IFC_2019_Jun_13_1205_295,stimulusWOAN27_2IFC_2019_Jun_13_1205_296,False,2019_Jun_13_1205,2IFC,3,WOAN27,
2IFC,73,0,73,0,12.4,-1,correct answer,0.367463300005,False,True,stimulusWOAN27_2IFC_2019_Jun_13_1205_297,stimulusWOAN27_2IFC_2019_Jun_13_1205_298,False,2019_Jun_13_1205,2IFC,3,WOAN27,
2IFC,74,0,74,0,12.4,-1,correct answer,0.332905899966,False,True,stimulusWOAN27_2IFC_2019_Jun_13_1205_299,stimulusWOAN27_2IFC_2019_Jun_13_1205_300,False,2019_Jun_13_1205,2IFC,3,WOAN27,
2IFC,0,0,0,0,3.8,-1,correct answer,0.466485300101,False,True,stimulusWOAN27_2IFC_2019_Jun_13_1205_301,stimulusWOAN27_2IFC_2019_Jun_13_1205_302,False,2019_Jun_13_1205,2IFC,3,WOAN27,
2IFC,1,0,1,0,3.8,-1,correct answer,0.401021699887,False,True,stimulusWOAN27_2IFC_2019_Jun_13_1205_303,stimulusWOAN27_2IFC_2019_Jun_13_1205_304,False,2019_Jun_13_1205,2IFC,3,WOAN27,
2IFC,2,0,2,0,3.8,-1,correct answer,0.634066099999,True,False,stimulusWOAN27_2IFC_2019_Jun_13_1205_305,stimulusWOAN27_2IFC_2019_Jun_13_1205_306,False,2019_Jun_13_1205,2IFC,3,WOAN27,
2IFC,3,0,3,0,3.8,-1,correct answer,0.366869800026,False,True,stimulusWOAN27_2IFC_2019_Jun_13_1205_307,stimulusWOAN27_2IFC_2019_Jun_13_1205_308,False,2019_Jun_13_1205,2IFC,3,WOAN27,
2IFC,4,0,4,0,3.8,-1,wrong answer,0.432628100039,False,True,stimulusWOAN27_2IFC_2019_Jun_13_1205_309,stimulusWOAN27_2IFC_2019_Jun_13_1205_310,False,2019_Jun_13_1205,2IFC,3,WOAN27,
2IFC,5,0,5,0,3.8,-1,wrong answer,0.400413499912,True,False,stimulusWOAN27_2IFC_2019_Jun_13_1205_311,stimulusWOAN27_2IFC_2019_Jun_13_1205_312,False,2019_Jun_13_1205,2IFC,3,WOAN27,
2IFC,6,0,6,0,3.8,-1,correct answer,0.334025300108,True,False,stimulusWOAN27_2IFC_2019_Jun_13_1205_313,stimulusWOAN27_2IFC_2019_Jun_13_1205_314,False,2019_Jun_13_1205,2IFC,3,WOAN27,
2IFC,7,0,7,0,3.8,-1,correct answer,0.433525200002,True,False,stimulusWOAN27_2IFC_2019_Jun_13_1205_315,stimulusWOAN27_2IFC_2019_Jun_13_1205_316,False,2019_Jun_13_1205,2IFC,3,WOAN27,
2IFC,8,0,8,0,3.8,-1,correct answer,0.600365299964,True,False,stimulusWOAN27_2IFC_2019_Jun_13_1205_317,stimulusWOAN27_2IFC_2019_Jun_13_1205_318,False,2019_Jun_13_1205,2IFC,3,WOAN27,
2IFC,9,0,9,0,3.8,-1,wrong answer,0.567666999996,False,True,stimulusWOAN27_2IFC_2019_Jun_13_1205_319,stimulusWOAN27_2IFC_2019_Jun_13_1205_320,False,2019_Jun_13_1205,2IFC,3,WOAN27,
2IFC,10,0,10,0,3.8,-1,correct answer,0.333996100118,False,True,stimulusWOAN27_2IFC_2019_Jun_13_1205_321,stimulusWOAN27_2IFC_2019_Jun_13_1205_322,False,2019_Jun_13_1205,2IFC,3,WOAN27,
2IFC,11,0,11,0,3.8,-1,correct answer,0.53263869998,True,False,stimulusWOAN27_2IFC_2019_Jun_13_1205_323,stimulusWOAN27_2IFC_2019_Jun_13_1205_324,False,2019_Jun_13_1205,2IFC,3,WOAN27,
2IFC,12,0,12,0,3.8,-1,wrong answer,0.366921100067,True,False,stimulusWOAN27_2IFC_2019_Jun_13_1205_325,stimulusWOAN27_2IFC_2019_Jun_13_1205_326,False,2019_Jun_13_1205,2IFC,3,WOAN27,
2IFC,13,0,13,0,3.8,-1,correct answer,0.369189399993,False,True,stimulusWOAN27_2IFC_2019_Jun_13_1205_327,stimulusWOAN27_2IFC_2019_Jun_13_1205_328,False,2019_Jun_13_1205,2IFC,3,WOAN27,
2IFC,14,0,14,0,3.8,-1,correct answer,0.602579899831,False,True,stimulusWOAN27_2IFC_2019_Jun_13_1205_329,stimulusWOAN27_2IFC_2019_Jun_13_1205_330,False,2019_Jun_13_1205,2IFC,3,WOAN27,
2IFC,15,0,15,0,3.8,-1,correct answer,0.567752399947,False,True,stimulusWOAN27_2IFC_2019_Jun_13_1205_331,stimulusWOAN27_2IFC_2019_Jun_13_1205_332,False,2019_Jun_13_1205,2IFC,3,WOAN27,
2IFC,16,0,16,0,3.8,-1,wrong answer,0.766685700044,True,False,stimulusWOAN27_2IFC_2019_Jun_13_1205_333,stimulusWOAN27_2IFC_2019_Jun_13_1205_334,False,2019_Jun_13_1205,2IFC,3,WOAN27,
2IFC,17,0,17,0,3.8,-1,wrong answer,0.733947000001,False,True,stimulusWOAN27_2IFC_2019_Jun_13_1205_335,stimulusWOAN27_2IFC_2019_Jun_13_1205_336,False,2019_Jun_13_1205,2IFC,3,WOAN27,
2IFC,18,0,18,0,3.8,-1,correct answer,0.667312300066,False,True,stimulusWOAN27_2IFC_2019_Jun_13_1205_337,stimulusWOAN27_2IFC_2019_Jun_13_1205_338,False,2019_Jun_13_1205,2IFC,3,WOAN27,
2IFC,19,0,19,0,3.8,-1,correct answer,0.367654899834,True,False,stimulusWOAN27_2IFC_2019_Jun_13_1205_339,stimulusWOAN27_2IFC_2019_Jun_13_1205_340,False,2019_Jun_13_1205,2IFC,3,WOAN27,
2IFC,20,0,20,0,3.8,-1,correct answer,0.533399499953,True,False,stimulusWOAN27_2IFC_2019_Jun_13_1205_341,stimulusWOAN27_2IFC_2019_Jun_13_1205_342,False,2019_Jun_13_1205,2IFC,3,WOAN27,
2IFC,21,0,21,0,3.8,-1,correct answer,0.367310799891,True,False,stimulusWOAN27_2IFC_2019_Jun_13_1205_343,stimulusWOAN27_2IFC_2019_Jun_13_1205_344,False,2019_Jun_13_1205,2IFC,3,WOAN27,
2IFC,22,0,22,0,3.8,-1,correct answer,0.333768799901,False,True,stimulusWOAN27_2IFC_2019_Jun_13_1205_345,stimulusWOAN27_2IFC_2019_Jun_13_1205_346,False,2019_Jun_13_1205,2IFC,3,WOAN27,
2IFC,23,0,23,0,3.8,-1,wrong answer,0.500459199771,False,True,stimulusWOAN27_2IFC_2019_Jun_13_1205_347,stimulusWOAN27_2IFC_2019_Jun_13_1205_348,False,2019_Jun_13_1205,2IFC,3,WOAN27,
2IFC,24,0,24,0,3.8,-1,wrong answer,0.600549599854,False,True,stimulusWOAN27_2IFC_2019_Jun_13_1205_349,stimulusWOAN27_2IFC_2019_Jun_13_1205_350,False,2019_Jun_13_1205,2IFC,3,WOAN27,
2IFC,25,0,25,0,3.8,-1,correct answer,0.735073299846,False,True,stimulusWOAN27_2IFC_2019_Jun_13_1205_351,stimulusWOAN27_2IFC_2019_Jun_13_1205_352,False,2019_Jun_13_1205,2IFC,3,WOAN27,
2IFC,26,0,26,0,3.8,-1,wrong answer,0.534011599841,True,False,stimulusWOAN27_2IFC_2019_Jun_13_1205_353,stimulusWOAN27_2IFC_2019_Jun_13_1205_354,False,2019_Jun_13_1205,2IFC,3,WOAN27,
2IFC,27,0,27,0,3.8,-1,correct answer,0.667536000023,True,False,stimulusWOAN27_2IFC_2019_Jun_13_1205_355,stimulusWOAN27_2IFC_2019_Jun_13_1205_356,False,2019_Jun_13_1205,2IFC,3,WOAN27,
2IFC,28,0,28,0,3.8,-1,correct answer,0.633198200027,True,False,stimulusWOAN27_2IFC_2019_Jun_13_1205_357,stimulusWOAN27_2IFC_2019_Jun_13_1205_358,False,2019_Jun_13_1205,2IFC,3,WOAN27,
2IFC,29,0,29,0,3.8,-1,correct answer,0.636678499868,True,False,stimulusWOAN27_2IFC_2019_Jun_13_1205_359,stimulusWOAN27_2IFC_2019_Jun_13_1205_360,False,2019_Jun_13_1205,2IFC,3,WOAN27,
2IFC,30,0,30,0,3.8,-1,wrong answer,0.499360499904,False,True,stimulusWOAN27_2IFC_2019_Jun_13_1205_361,stimulusWOAN27_2IFC_2019_Jun_13_1205_362,False,2019_Jun_13_1205,2IFC,3,WOAN27,
2IFC,31,0,31,0,3.8,-1,wrong answer,0.40012970008,True,False,stimulusWOAN27_2IFC_2019_Jun_13_1205_363,stimulusWOAN27_2IFC_2019_Jun_13_1205_364,False,2019_Jun_13_1205,2IFC,3,WOAN27,
2IFC,32,0,32,0,3.8,-1,correct answer,0.600863599917,False,True,stimulusWOAN27_2IFC_2019_Jun_13_1205_365,stimulusWOAN27_2IFC_2019_Jun_13_1205_366,False,2019_Jun_13_1205,2IFC,3,WOAN27,
2IFC,33,0,33,0,3.8,-1,correct answer,0.466045199893,True,False,stimulusWOAN27_2IFC_2019_Jun_13_1205_367,stimulusWOAN27_2IFC_2019_Jun_13_1205_368,False,2019_Jun_13_1205,2IFC,3,WOAN27,
2IFC,34,0,34,0,3.8,-1,correct answer,0.734231899958,True,False,stimulusWOAN27_2IFC_2019_Jun_13_1205_369,stimulusWOAN27_2IFC_2019_Jun_13_1205_370,False,2019_Jun_13_1205,2IFC,3,WOAN27,
2IFC,35,0,35,0,3.8,-1,wrong answer,0.868666700087,True,False,stimulusWOAN27_2IFC_2019_Jun_13_1205_371,stimulusWOAN27_2IFC_2019_Jun_13_1205_372,False,2019_Jun_13_1205,2IFC,3,WOAN27,
2IFC,36,0,36,0,3.8,-1,correct answer,0.834285899997,True,False,stimulusWOAN27_2IFC_2019_Jun_13_1205_373,stimulusWOAN27_2IFC_2019_Jun_13_1205_374,False,2019_Jun_13_1205,2IFC,3,WOAN27,
2IFC,37,0,37,0,3.8,-1,correct answer,0.467216900084,False,True,stimulusWOAN27_2IFC_2019_Jun_13_1205_375,stimulusWOAN27_2IFC_2019_Jun_13_1205_376,False,2019_Jun_13_1205,2IFC,3,WOAN27,
2IFC,38,0,38,0,3.8,-1,correct answer,0.403622200014,False,True,stimulusWOAN27_2IFC_2019_Jun_13_1205_377,stimulusWOAN27_2IFC_2019_Jun_13_1205_378,False,2019_Jun_13_1205,2IFC,3,WOAN27,
2IFC,39,0,39,0,3.8,-1,correct answer,0.601940700086,False,True,stimulusWOAN27_2IFC_2019_Jun_13_1205_379,stimulusWOAN27_2IFC_2019_Jun_13_1205_380,False,2019_Jun_13_1205,2IFC,3,WOAN27,
2IFC,40,0,40,0,3.8,-1,correct answer,0.767425999977,False,True,stimulusWOAN27_2IFC_2019_Jun_13_1205_381,stimulusWOAN27_2IFC_2019_Jun_13_1205_382,False,2019_Jun_13_1205,2IFC,3,WOAN27,
2IFC,41,0,41,0,3.8,-1,correct answer,0.434340900043,False,True,stimulusWOAN27_2IFC_2019_Jun_13_1205_383,stimulusWOAN27_2IFC_2019_Jun_13_1205_384,False,2019_Jun_13_1205,2IFC,3,WOAN27,
2IFC,42,0,42,0,3.8,-1,correct answer,0.568276999984,False,True,stimulusWOAN27_2IFC_2019_Jun_13_1205_385,stimulusWOAN27_2IFC_2019_Jun_13_1205_386,False,2019_Jun_13_1205,2IFC,3,WOAN27,
2IFC,43,0,43,0,3.8,-1,correct answer,0.567987499991,True,False,stimulusWOAN27_2IFC_2019_Jun_13_1205_387,stimulusWOAN27_2IFC_2019_Jun_13_1205_388,False,2019_Jun_13_1205,2IFC,3,WOAN27,
2IFC,44,0,44,0,3.8,-1,wrong answer,0.767622399842,True,False,stimulusWOAN27_2IFC_2019_Jun_13_1205_389,stimulusWOAN27_2IFC_2019_Jun_13_1205_390,False,2019_Jun_13_1205,2IFC,3,WOAN27,
2IFC,45,0,45,0,3.8,-1,wrong answer,0.800935399951,True,False,stimulusWOAN27_2IFC_2019_Jun_13_1205_391,stimulusWOAN27_2IFC_2019_Jun_13_1205_392,False,2019_Jun_13_1205,2IFC,3,WOAN27,
2IFC,46,0,46,0,3.8,-1,correct answer,0.434318799991,True,False,stimulusWOAN27_2IFC_2019_Jun_13_1205_393,stimulusWOAN27_2IFC_2019_Jun_13_1205_394,False,2019_Jun_13_1205,2IFC,3,WOAN27,
2IFC,47,0,47,0,3.8,-1,correct answer,0.466522099916,False,True,stimulusWOAN27_2IFC_2019_Jun_13_1205_395,stimulusWOAN27_2IFC_2019_Jun_13_1205_396,False,2019_Jun_13_1205,2IFC,3,WOAN27,
2IFC,48,0,48,0,3.8,-1,correct answer,0.368069000077,True,False,stimulusWOAN27_2IFC_2019_Jun_13_1205_397,stimulusWOAN27_2IFC_2019_Jun_13_1205_398,False,2019_Jun_13_1205,2IFC,3,WOAN27,
2IFC,49,0,49,0,3.8,-1,correct answer,0.56706559984,True,False,stimulusWOAN27_2IFC_2019_Jun_13_1205_399,stimulusWOAN27_2IFC_2019_Jun_13_1205_400,False,2019_Jun_13_1205,2IFC,3,WOAN27,
2IFC,50,0,50,0,3.8,-1,correct answer,0.366692900192,True,False,stimulusWOAN27_2IFC_2019_Jun_13_1205_401,stimulusWOAN27_2IFC_2019_Jun_13_1205_402,False,2019_Jun_13_1205,2IFC,3,WOAN27,
2IFC,51,0,51,0,3.8,-1,correct answer,0.767887699883,True,False,stimulusWOAN27_2IFC_2019_Jun_13_1205_403,stimulusWOAN27_2IFC_2019_Jun_13_1205_404,False,2019_Jun_13_1205,2IFC,3,WOAN27,
2IFC,52,0,52,0,3.8,-1,correct answer,0.366658400046,False,True,stimulusWOAN27_2IFC_2019_Jun_13_1205_405,stimulusWOAN27_2IFC_2019_Jun_13_1205_406,False,2019_Jun_13_1205,2IFC,3,WOAN27,
2IFC,53,0,53,0,3.8,-1,correct answer,0.535296600079,False,True,stimulusWOAN27_2IFC_2019_Jun_13_1205_407,stimulusWOAN27_2IFC_2019_Jun_13_1205_408,False,2019_Jun_13_1205,2IFC,3,WOAN27,
2IFC,54,0,54,0,3.8,-1,correct answer,0.467515300028,True,False,stimulusWOAN27_2IFC_2019_Jun_13_1205_409,stimulusWOAN27_2IFC_2019_Jun_13_1205_410,False,2019_Jun_13_1205,2IFC,3,WOAN27,
2IFC,55,0,55,0,3.8,-1,wrong answer,0.634375600144,True,False,stimulusWOAN27_2IFC_2019_Jun_13_1205_411,stimulusWOAN27_2IFC_2019_Jun_13_1205_412,False,2019_Jun_13_1205,2IFC,3,WOAN27,
2IFC,56,0,56,0,3.8,-1,wrong answer,0.567495699972,True,False,stimulusWOAN27_2IFC_2019_Jun_13_1205_413,stimulusWOAN27_2IFC_2019_Jun_13_1205_414,False,2019_Jun_13_1205,2IFC,3,WOAN27,
2IFC,57,0,57,0,3.8,-1,wrong answer,0.233331100084,False,True,stimulusWOAN27_2IFC_2019_Jun_13_1205_415,stimulusWOAN27_2IFC_2019_Jun_13_1205_416,False,2019_Jun_13_1205,2IFC,3,WOAN27,
2IFC,58,0,58,0,3.8,-1,correct answer,0.267890700139,True,False,stimulusWOAN27_2IFC_2019_Jun_13_1205_417,stimulusWOAN27_2IFC_2019_Jun_13_1205_418,False,2019_Jun_13_1205,2IFC,3,WOAN27,
2IFC,59,0,59,0,3.8,-1,wrong answer,0.466098599834,True,False,stimulusWOAN27_2IFC_2019_Jun_13_1205_419,stimulusWOAN27_2IFC_2019_Jun_13_1205_420,False,2019_Jun_13_1205,2IFC,3,WOAN27,
2IFC,60,0,60,0,3.8,-1,wrong answer,0.567205000203,True,False,stimulusWOAN27_2IFC_2019_Jun_13_1205_421,stimulusWOAN27_2IFC_2019_Jun_13_1205_422,False,2019_Jun_13_1205,2IFC,3,WOAN27,
2IFC,61,0,61,0,3.8,-1,wrong answer,0.633960300125,False,True,stimulusWOAN27_2IFC_2019_Jun_13_1205_423,stimulusWOAN27_2IFC_2019_Jun_13_1205_424,False,2019_Jun_13_1205,2IFC,3,WOAN27,
2IFC,62,0,62,0,3.8,-1,correct answer,0.767450099811,False,True,stimulusWOAN27_2IFC_2019_Jun_13_1205_425,stimulusWOAN27_2IFC_2019_Jun_13_1205_426,False,2019_Jun_13_1205,2IFC,3,WOAN27,
2IFC,63,0,63,0,3.8,-1,correct answer,0.700041600037,True,False,stimulusWOAN27_2IFC_2019_Jun_13_1205_427,stimulusWOAN27_2IFC_2019_Jun_13_1205_428,False,2019_Jun_13_1205,2IFC,3,WOAN27,
2IFC,64,0,64,0,3.8,-1,correct answer,0.499839400174,True,False,stimulusWOAN27_2IFC_2019_Jun_13_1205_429,stimulusWOAN27_2IFC_2019_Jun_13_1205_430,False,2019_Jun_13_1205,2IFC,3,WOAN27,
2IFC,65,0,65,0,3.8,-1,correct answer,0.632091099862,True,False,stimulusWOAN27_2IFC_2019_Jun_13_1205_431,stimulusWOAN27_2IFC_2019_Jun_13_1205_432,False,2019_Jun_13_1205,2IFC,3,WOAN27,
2IFC,66,0,66,0,3.8,-1,correct answer,0.567619899986,True,False,stimulusWOAN27_2IFC_2019_Jun_13_1205_433,stimulusWOAN27_2IFC_2019_Jun_13_1205_434,False,2019_Jun_13_1205,2IFC,3,WOAN27,
2IFC,67,0,67,0,3.8,-1,wrong answer,0.500037700171,False,True,stimulusWOAN27_2IFC_2019_Jun_13_1205_435,stimulusWOAN27_2IFC_2019_Jun_13_1205_436,False,2019_Jun_13_1205,2IFC,3,WOAN27,
2IFC,68,0,68,0,3.8,-1,wrong answer,0.634649199899,False,True,stimulusWOAN27_2IFC_2019_Jun_13_1205_437,stimulusWOAN27_2IFC_2019_Jun_13_1205_438,False,2019_Jun_13_1205,2IFC,3,WOAN27,
2IFC,69,0,69,0,3.8,-1,correct answer,0.734134299913,False,True,stimulusWOAN27_2IFC_2019_Jun_13_1205_439,stimulusWOAN27_2IFC_2019_Jun_13_1205_440,False,2019_Jun_13_1205,2IFC,3,WOAN27,
2IFC,70,0,70,0,3.8,-1,wrong answer,0.367090200074,False,True,stimulusWOAN27_2IFC_2019_Jun_13_1205_441,stimulusWOAN27_2IFC_2019_Jun_13_1205_442,False,2019_Jun_13_1205,2IFC,3,WOAN27,
2IFC,71,0,71,0,3.8,-1,correct answer,0.601320900023,False,True,stimulusWOAN27_2IFC_2019_Jun_13_1205_443,stimulusWOAN27_2IFC_2019_Jun_13_1205_444,False,2019_Jun_13_1205,2IFC,3,WOAN27,
2IFC,72,0,72,0,3.8,-1,correct answer,0.398423900129,False,True,stimulusWOAN27_2IFC_2019_Jun_13_1205_445,stimulusWOAN27_2IFC_2019_Jun_13_1205_446,False,2019_Jun_13_1205,2IFC,3,WOAN27,
2IFC,73,0,73,0,3.8,-1,correct answer,0.834398700157,True,False,stimulusWOAN27_2IFC_2019_Jun_13_1205_447,stimulusWOAN27_2IFC_2019_Jun_13_1205_448,False,2019_Jun_13_1205,2IFC,3,WOAN27,
2IFC,74,0,74,0,3.8,-1,correct answer,0.666148499819,True,False,stimulusWOAN27_2IFC_2019_Jun_13_1205_449,stimulusWOAN27_2IFC_2019_Jun_13_1205_450,False,2019_Jun_13_1205,2IFC,3,WOAN27,
2IFC,0,0,0,0,10.7,-1,correct answer,0.834486800013,True,False,stimulusWOAN27_2IFC_2019_Jun_13_1205_451,stimulusWOAN27_2IFC_2019_Jun_13_1205_452,False,2019_Jun_13_1205,2IFC,3,WOAN27,
2IFC,1,0,1,0,10.7,-1,correct answer,0.400349600008,False,True,stimulusWOAN27_2IFC_2019_Jun_13_1205_453,stimulusWOAN27_2IFC_2019_Jun_13_1205_454,False,2019_Jun_13_1205,2IFC,3,WOAN27,
2IFC,2,0,2,0,10.7,-1,correct answer,0.500614699908,True,False,stimulusWOAN27_2IFC_2019_Jun_13_1205_455,stimulusWOAN27_2IFC_2019_Jun_13_1205_456,False,2019_Jun_13_1205,2IFC,3,WOAN27,
2IFC,3,0,3,0,10.7,-1,correct answer,0.467228400055,True,False,stimulusWOAN27_2IFC_2019_Jun_13_1205_457,stimulusWOAN27_2IFC_2019_Jun_13_1205_458,False,2019_Jun_13_1205,2IFC,3,WOAN27,
2IFC,4,0,4,0,10.7,-1,correct answer,0.400602600072,True,False,stimulusWOAN27_2IFC_2019_Jun_13_1205_459,stimulusWOAN27_2IFC_2019_Jun_13_1205_460,False,2019_Jun_13_1205,2IFC,3,WOAN27,
2IFC,5,0,5,0,10.7,-1,correct answer,0.366610100027,False,True,stimulusWOAN27_2IFC_2019_Jun_13_1205_461,stimulusWOAN27_2IFC_2019_Jun_13_1205_462,False,2019_Jun_13_1205,2IFC,3,WOAN27,
2IFC,6,0,6,0,10.7,-1,correct answer,0.500484300079,False,True,stimulusWOAN27_2IFC_2019_Jun_13_1205_463,stimulusWOAN27_2IFC_2019_Jun_13_1205_464,False,2019_Jun_13_1205,2IFC,3,WOAN27,
2IFC,7,0,7,0,10.7,-1,correct answer,0.333771200152,False,True,stimulusWOAN27_2IFC_2019_Jun_13_1205_465,stimulusWOAN27_2IFC_2019_Jun_13_1205_466,False,2019_Jun_13_1205,2IFC,3,WOAN27,
2IFC,8,0,8,0,10.7,-1,correct answer,0.63423909992,True,False,stimulusWOAN27_2IFC_2019_Jun_13_1205_467,stimulusWOAN27_2IFC_2019_Jun_13_1205_468,False,2019_Jun_13_1205,2IFC,3,WOAN27,
2IFC,9,0,9,0,10.7,-1,correct answer,0.399996299995,False,True,stimulusWOAN27_2IFC_2019_Jun_13_1205_469,stimulusWOAN27_2IFC_2019_Jun_13_1205_470,False,2019_Jun_13_1205,2IFC,3,WOAN27,
2IFC,10,0,10,0,10.7,-1,wrong answer,0.399600399891,True,False,stimulusWOAN27_2IFC_2019_Jun_13_1205_471,stimulusWOAN27_2IFC_2019_Jun_13_1205_472,False,2019_Jun_13_1205,2IFC,3,WOAN27,
2IFC,11,0,11,0,10.7,-1,correct answer,0.302370399935,False,True,stimulusWOAN27_2IFC_2019_Jun_13_1205_473,stimulusWOAN27_2IFC_2019_Jun_13_1205_474,False,2019_Jun_13_1205,2IFC,3,WOAN27,
2IFC,12,0,12,0,10.7,-1,correct answer,0.432812299812,True,False,stimulusWOAN27_2IFC_2019_Jun_13_1205_475,stimulusWOAN27_2IFC_2019_Jun_13_1205_476,False,2019_Jun_13_1205,2IFC,3,WOAN27,
2IFC,13,0,13,0,10.7,-1,correct answer,0.433566699969,True,False,stimulusWOAN27_2IFC_2019_Jun_13_1205_477,stimulusWOAN27_2IFC_2019_Jun_13_1205_478,False,2019_Jun_13_1205,2IFC,3,WOAN27,
2IFC,14,0,14,0,10.7,-1,correct answer,0.333958700066,False,True,stimulusWOAN27_2IFC_2019_Jun_13_1205_479,stimulusWOAN27_2IFC_2019_Jun_13_1205_480,False,2019_Jun_13_1205,2IFC,3,WOAN27,
2IFC,15,0,15,0,10.7,-1,correct answer,0.366737499833,True,False,stimulusWOAN27_2IFC_2019_Jun_13_1205_481,stimulusWOAN27_2IFC_2019_Jun_13_1205_482,False,2019_Jun_13_1205,2IFC,3,WOAN27,
2IFC,16,0,16,0,10.7,-1,correct answer,0.533803800121,True,False,stimulusWOAN27_2IFC_2019_Jun_13_1205_483,stimulusWOAN27_2IFC_2019_Jun_13_1205_484,False,2019_Jun_13_1205,2IFC,3,WOAN27,
2IFC,17,0,17,0,10.7,-1,correct answer,0.467219900107,True,False,stimulusWOAN27_2IFC_2019_Jun_13_1205_485,stimulusWOAN27_2IFC_2019_Jun_13_1205_486,False,2019_Jun_13_1205,2IFC,3,WOAN27,
2IFC,18,0,18,0,10.7,-1,correct answer,0.36841850006,False,True,stimulusWOAN27_2IFC_2019_Jun_13_1205_487,stimulusWOAN27_2IFC_2019_Jun_13_1205_488,False,2019_Jun_13_1205,2IFC,3,WOAN27,
2IFC,19,0,19,0,10.7,-1,correct answer,0.43415880017,False,True,stimulusWOAN27_2IFC_2019_Jun_13_1205_489,stimulusWOAN27_2IFC_2019_Jun_13_1205_490,False,2019_Jun_13_1205,2IFC,3,WOAN27,
2IFC,20,0,20,0,10.7,-1,correct answer,0.433945000172,False,True,stimulusWOAN27_2IFC_2019_Jun_13_1205_491,stimulusWOAN27_2IFC_2019_Jun_13_1205_492,False,2019_Jun_13_1205,2IFC,3,WOAN27,
2IFC,21,0,21,0,10.7,-1,correct answer,0.467833500123,False,True,stimulusWOAN27_2IFC_2019_Jun_13_1205_493,stimulusWOAN27_2IFC_2019_Jun_13_1205_494,False,2019_Jun_13_1205,2IFC,3,WOAN27,
2IFC,22,0,22,0,10.7,-1,correct answer,0.299830000149,True,False,stimulusWOAN27_2IFC_2019_Jun_13_1205_495,stimulusWOAN27_2IFC_2019_Jun_13_1205_496,False,2019_Jun_13_1205,2IFC,3,WOAN27,
2IFC,23,0,23,0,10.7,-1,correct answer,0.33395790006,True,False,stimulusWOAN27_2IFC_2019_Jun_13_1205_497,stimulusWOAN27_2IFC_2019_Jun_13_1205_498,False,2019_Jun_13_1205,2IFC,3,WOAN27,
2IFC,24,0,24,0,10.7,-1,correct answer,0.367675500223,False,True,stimulusWOAN27_2IFC_2019_Jun_13_1205_499,stimulusWOAN27_2IFC_2019_Jun_13_1205_500,False,2019_Jun_13_1205,2IFC,3,WOAN27,
2IFC,25,0,25,0,10.7,-1,correct answer,0.267055900069,True,False,stimulusWOAN27_2IFC_2019_Jun_13_1205_501,stimulusWOAN27_2IFC_2019_Jun_13_1205_502,False,2019_Jun_13_1205,2IFC,3,WOAN27,
2IFC,26,0,26,0,10.7,-1,correct answer,0.46612820006,True,False,stimulusWOAN27_2IFC_2019_Jun_13_1205_503,stimulusWOAN27_2IFC_2019_Jun_13_1205_504,False,2019_Jun_13_1205,2IFC,3,WOAN27,
2IFC,27,0,27,0,10.7,-1,correct answer,0.333818200044,True,False,stimulusWOAN27_2IFC_2019_Jun_13_1205_505,stimulusWOAN27_2IFC_2019_Jun_13_1205_506,False,2019_Jun_13_1205,2IFC,3,WOAN27,
2IFC,28,0,28,0,10.7,-1,correct answer,0.334824400023,True,False,stimulusWOAN27_2IFC_2019_Jun_13_1205_507,stimulusWOAN27_2IFC_2019_Jun_13_1205_508,False,2019_Jun_13_1205,2IFC,3,WOAN27,
2IFC,29,0,29,0,10.7,-1,correct answer,0.367280399892,False,True,stimulusWOAN27_2IFC_2019_Jun_13_1205_509,stimulusWOAN27_2IFC_2019_Jun_13_1205_510,False,2019_Jun_13_1205,2IFC,3,WOAN27,
2IFC,30,0,30,0,10.7,-1,correct answer,0.467386499979,False,True,stimulusWOAN27_2IFC_2019_Jun_13_1205_511,stimulusWOAN27_2IFC_2019_Jun_13_1205_512,False,2019_Jun_13_1205,2IFC,3,WOAN27,
2IFC,31,0,31,0,10.7,-1,correct answer,0.532965499908,True,False,stimulusWOAN27_2IFC_2019_Jun_13_1205_513,stimulusWOAN27_2IFC_2019_Jun_13_1205_514,False,2019_Jun_13_1205,2IFC,3,WOAN27,
2IFC,32,0,32,0,10.7,-1,correct answer,0.300278099952,True,False,stimulusWOAN27_2IFC_2019_Jun_13_1205_515,stimulusWOAN27_2IFC_2019_Jun_13_1205_516,False,2019_Jun_13_1205,2IFC,3,WOAN27,
2IFC,33,0,33,0,10.7,-1,correct answer,0.400613500038,True,False,stimulusWOAN27_2IFC_2019_Jun_13_1205_517,stimulusWOAN27_2IFC_2019_Jun_13_1205_518,False,2019_Jun_13_1205,2IFC,3,WOAN27,
2IFC,34,0,34,0,10.7,-1,correct answer,0.300373600097,True,False,stimulusWOAN27_2IFC_2019_Jun_13_1205_519,stimulusWOAN27_2IFC_2019_Jun_13_1205_520,False,2019_Jun_13_1205,2IFC,3,WOAN27,
2IFC,35,0,35,0,10.7,-1,correct answer,0.400839800015,True,False,stimulusWOAN27_2IFC_2019_Jun_13_1205_521,stimulusWOAN27_2IFC_2019_Jun_13_1205_522,False,2019_Jun_13_1205,2IFC,3,WOAN27,
2IFC,36,0,36,0,10.7,-1,correct answer,0.467465199996,False,True,stimulusWOAN27_2IFC_2019_Jun_13_1205_523,stimulusWOAN27_2IFC_2019_Jun_13_1205_524,False,2019_Jun_13_1205,2IFC,3,WOAN27,
2IFC,37,0,37,0,10.7,-1,correct answer,0.567072300008,False,True,stimulusWOAN27_2IFC_2019_Jun_13_1205_525,stimulusWOAN27_2IFC_2019_Jun_13_1205_526,False,2019_Jun_13_1205,2IFC,3,WOAN27,
2IFC,38,0,38,0,10.7,-1,correct answer,0.333875600016,False,True,stimulusWOAN27_2IFC_2019_Jun_13_1205_527,stimulusWOAN27_2IFC_2019_Jun_13_1205_528,False,2019_Jun_13_1205,2IFC,3,WOAN27,
2IFC,39,0,39,0,10.7,-1,correct answer,0.469615699956,False,True,stimulusWOAN27_2IFC_2019_Jun_13_1205_529,stimulusWOAN27_2IFC_2019_Jun_13_1205_530,False,2019_Jun_13_1205,2IFC,3,WOAN27,
2IFC,40,0,40,0,10.7,-1,correct answer,0.567351399921,False,True,stimulusWOAN27_2IFC_2019_Jun_13_1205_531,stimulusWOAN27_2IFC_2019_Jun_13_1205_532,False,2019_Jun_13_1205,2IFC,3,WOAN27,
2IFC,41,0,41,0,10.7,-1,correct answer,0.233912500087,True,False,stimulusWOAN27_2IFC_2019_Jun_13_1205_533,stimulusWOAN27_2IFC_2019_Jun_13_1205_534,False,2019_Jun_13_1205,2IFC,3,WOAN27,
2IFC,42,0,42,0,10.7,-1,correct answer,0.23318119999,True,False,stimulusWOAN27_2IFC_2019_Jun_13_1205_535,stimulusWOAN27_2IFC_2019_Jun_13_1205_536,False,2019_Jun_13_1205,2IFC,3,WOAN27,
2IFC,43,0,43,0,10.7,-1,correct answer,0.601094299927,True,False,stimulusWOAN27_2IFC_2019_Jun_13_1205_537,stimulusWOAN27_2IFC_2019_Jun_13_1205_538,False,2019_Jun_13_1205,2IFC,3,WOAN27,
2IFC,44,0,44,0,10.7,-1,correct answer,0.300578300143,False,True,stimulusWOAN27_2IFC_2019_Jun_13_1205_539,stimulusWOAN27_2IFC_2019_Jun_13_1205_540,False,2019_Jun_13_1205,2IFC,3,WOAN27,
2IFC,45,0,45,0,10.7,-1,correct answer,0.367314299801,False,True,stimulusWOAN27_2IFC_2019_Jun_13_1205_541,stimulusWOAN27_2IFC_2019_Jun_13_1205_542,False,2019_Jun_13_1205,2IFC,3,WOAN27,
2IFC,46,0,46,0,10.7,-1,correct answer,0.46612350014,False,True,stimulusWOAN27_2IFC_2019_Jun_13_1205_543,stimulusWOAN27_2IFC_2019_Jun_13_1205_544,False,2019_Jun_13_1205,2IFC,3,WOAN27,
2IFC,47,0,47,0,10.7,-1,correct answer,0.200599200092,True,False,stimulusWOAN27_2IFC_2019_Jun_13_1205_545,stimulusWOAN27_2IFC_2019_Jun_13_1205_546,False,2019_Jun_13_1205,2IFC,3,WOAN27,
2IFC,48,0,48,0,10.7,-1,correct answer,0.467588,True,False,stimulusWOAN27_2IFC_2019_Jun_13_1205_547,stimulusWOAN27_2IFC_2019_Jun_13_1205_548,False,2019_Jun_13_1205,2IFC,3,WOAN27,
2IFC,49,0,49,0,10.7,-1,wrong answer,0.333961299853,False,True,stimulusWOAN27_2IFC_2019_Jun_13_1205_549,stimulusWOAN27_2IFC_2019_Jun_13_1205_550,False,2019_Jun_13_1205,2IFC,3,WOAN27,
2IFC,50,0,50,0,10.7,-1,correct answer,0.267259699991,False,True,stimulusWOAN27_2IFC_2019_Jun_13_1205_551,stimulusWOAN27_2IFC_2019_Jun_13_1205_552,False,2019_Jun_13_1205,2IFC,3,WOAN27,
2IFC,51,0,51,0,10.7,-1,correct answer,0.600855699973,True,False,stimulusWOAN27_2IFC_2019_Jun_13_1205_553,stimulusWOAN27_2IFC_2019_Jun_13_1205_554,False,2019_Jun_13_1205,2IFC,3,WOAN27,
2IFC,52,0,52,0,10.7,-1,correct answer,0.300682900008,True,False,stimulusWOAN27_2IFC_2019_Jun_13_1205_555,stimulusWOAN27_2IFC_2019_Jun_13_1205_556,False,2019_Jun_13_1205,2IFC,3,WOAN27,
2IFC,53,0,53,0,10.7,-1,correct answer,0.299716099864,True,False,stimulusWOAN27_2IFC_2019_Jun_13_1205_557,stimulusWOAN27_2IFC_2019_Jun_13_1205_558,False,2019_Jun_13_1205,2IFC,3,WOAN27,
2IFC,54,0,54,0,10.7,-1,correct answer,0.334299799986,False,True,stimulusWOAN27_2IFC_2019_Jun_13_1205_559,stimulusWOAN27_2IFC_2019_Jun_13_1205_560,False,2019_Jun_13_1205,2IFC,3,WOAN27,
2IFC,55,0,55,0,10.7,-1,correct answer,0.632971399929,True,False,stimulusWOAN27_2IFC_2019_Jun_13_1205_561,stimulusWOAN27_2IFC_2019_Jun_13_1205_562,False,2019_Jun_13_1205,2IFC,3,WOAN27,
2IFC,56,0,56,0,10.7,-1,correct answer,0.13349970011,True,False,stimulusWOAN27_2IFC_2019_Jun_13_1205_563,stimulusWOAN27_2IFC_2019_Jun_13_1205_564,False,2019_Jun_13_1205,2IFC,3,WOAN27,
2IFC,57,0,57,0,10.7,-1,correct answer,0.0678493999876,True,False,stimulusWOAN27_2IFC_2019_Jun_13_1205_565,stimulusWOAN27_2IFC_2019_Jun_13_1205_566,False,2019_Jun_13_1205,2IFC,3,WOAN27,
2IFC,58,0,58,0,10.7,-1,correct answer,0.334726300091,False,True,stimulusWOAN27_2IFC_2019_Jun_13_1205_567,stimulusWOAN27_2IFC_2019_Jun_13_1205_568,False,2019_Jun_13_1205,2IFC,3,WOAN27,
2IFC,59,0,59,0,10.7,-1,correct answer,0.502025200054,False,True,stimulusWOAN27_2IFC_2019_Jun_13_1205_569,stimulusWOAN27_2IFC_2019_Jun_13_1205_570,False,2019_Jun_13_1205,2IFC,3,WOAN27,
2IFC,60,0,60,0,10.7,-1,correct answer,0.301069700159,True,False,stimulusWOAN27_2IFC_2019_Jun_13_1205_571,stimulusWOAN27_2IFC_2019_Jun_13_1205_572,False,2019_Jun_13_1205,2IFC,3,WOAN27,
2IFC,61,0,61,0,10.7,-1,correct answer,0.434671799885,False,True,stimulusWOAN27_2IFC_2019_Jun_13_1205_573,stimulusWOAN27_2IFC_2019_Jun_13_1205_574,False,2019_Jun_13_1205,2IFC,3,WOAN27,
2IFC,62,0,62,0,10.7,-1,correct answer,0.334174800199,True,False,stimulusWOAN27_2IFC_2019_Jun_13_1205_575,stimulusWOAN27_2IFC_2019_Jun_13_1205_576,False,2019_Jun_13_1205,2IFC,3,WOAN27,
2IFC,63,0,63,0,10.7,-1,correct answer,0.50049789995,True,False,stimulusWOAN27_2IFC_2019_Jun_13_1205_577,stimulusWOAN27_2IFC_2019_Jun_13_1205_578,False,2019_Jun_13_1205,2IFC,3,WOAN27,
2IFC,64,0,64,0,10.7,-1,correct answer,0.266629100079,True,False,stimulusWOAN27_2IFC_2019_Jun_13_1205_579,stimulusWOAN27_2IFC_2019_Jun_13_1205_580,False,2019_Jun_13_1205,2IFC,3,WOAN27,
2IFC,65,0,65,0,10.7,-1,wrong answer,0.60051629995,True,False,stimulusWOAN27_2IFC_2019_Jun_13_1205_581,stimulusWOAN27_2IFC_2019_Jun_13_1205_582,False,2019_Jun_13_1205,2IFC,3,WOAN27,
2IFC,66,0,66,0,10.7,-1,correct answer,0.33401370002,False,True,stimulusWOAN27_2IFC_2019_Jun_13_1205_583,stimulusWOAN27_2IFC_2019_Jun_13_1205_584,False,2019_Jun_13_1205,2IFC,3,WOAN27,
2IFC,67,0,67,0,10.7,-1,wrong answer,0.364956399892,True,False,stimulusWOAN27_2IFC_2019_Jun_13_1205_585,stimulusWOAN27_2IFC_2019_Jun_13_1205_586,False,2019_Jun_13_1205,2IFC,3,WOAN27,
2IFC,68,0,68,0,10.7,-1,correct answer,0.26714199991,True,False,stimulusWOAN27_2IFC_2019_Jun_13_1205_587,stimulusWOAN27_2IFC_2019_Jun_13_1205_588,False,2019_Jun_13_1205,2IFC,3,WOAN27,
2IFC,69,0,69,0,10.7,-1,correct answer,0.301257499959,True,False,stimulusWOAN27_2IFC_2019_Jun_13_1205_589,stimulusWOAN27_2IFC_2019_Jun_13_1205_590,False,2019_Jun_13_1205,2IFC,3,WOAN27,
2IFC,70,0,70,0,10.7,-1,correct answer,0.367276099976,False,True,stimulusWOAN27_2IFC_2019_Jun_13_1205_591,stimulusWOAN27_2IFC_2019_Jun_13_1205_592,False,2019_Jun_13_1205,2IFC,3,WOAN27,
2IFC,71,0,71,0,10.7,-1,wrong answer,0.533828699961,False,True,stimulusWOAN27_2IFC_2019_Jun_13_1205_593,stimulusWOAN27_2IFC_2019_Jun_13_1205_594,False,2019_Jun_13_1205,2IFC,3,WOAN27,
2IFC,72,0,72,0,10.7,-1,correct answer,0.633674700046,False,True,stimulusWOAN27_2IFC_2019_Jun_13_1205_595,stimulusWOAN27_2IFC_2019_Jun_13_1205_596,False,2019_Jun_13_1205,2IFC,3,WOAN27,
2IFC,73,0,73,0,10.7,-1,correct answer,0.535082199844,True,False,stimulusWOAN27_2IFC_2019_Jun_13_1205_597,stimulusWOAN27_2IFC_2019_Jun_13_1205_598,False,2019_Jun_13_1205,2IFC,3,WOAN27,
2IFC,74,0,74,0,10.7,-1,correct answer,0.467286000028,True,False,stimulusWOAN27_2IFC_2019_Jun_13_1205_599,stimulusWOAN27_2IFC_2019_Jun_13_1205_600,False,2019_Jun_13_1205,2IFC,3,WOAN27,
2IFC,0,0,0,0,5.8,-1,correct answer,0.567052700091,False,True,stimulusWOAN27_2IFC_2019_Jun_13_1205_601,stimulusWOAN27_2IFC_2019_Jun_13_1205_602,False,2019_Jun_13_1205,2IFC,3,WOAN27,
2IFC,1,0,1,0,5.8,-1,correct answer,0.267809299985,False,True,stimulusWOAN27_2IFC_2019_Jun_13_1205_603,stimulusWOAN27_2IFC_2019_Jun_13_1205_604,False,2019_Jun_13_1205,2IFC,3,WOAN27,
2IFC,2,0,2,0,5.8,-1,wrong answer,0.70105709997,True,False,stimulusWOAN27_2IFC_2019_Jun_13_1205_605,stimulusWOAN27_2IFC_2019_Jun_13_1205_606,False,2019_Jun_13_1205,2IFC,3,WOAN27,
2IFC,3,0,3,0,5.8,-1,correct answer,0.301210199948,False,True,stimulusWOAN27_2IFC_2019_Jun_13_1205_607,stimulusWOAN27_2IFC_2019_Jun_13_1205_608,False,2019_Jun_13_1205,2IFC,3,WOAN27,
2IFC,4,0,4,0,5.8,-1,correct answer,0.300742499996,True,False,stimulusWOAN27_2IFC_2019_Jun_13_1205_609,stimulusWOAN27_2IFC_2019_Jun_13_1205_610,False,2019_Jun_13_1205,2IFC,3,WOAN27,
2IFC,5,0,5,0,5.8,-1,correct answer,0.20064870012,False,True,stimulusWOAN27_2IFC_2019_Jun_13_1205_611,stimulusWOAN27_2IFC_2019_Jun_13_1205_612,False,2019_Jun_13_1205,2IFC,3,WOAN27,
2IFC,6,0,6,0,5.8,-1,correct answer,0.267467599828,False,True,stimulusWOAN27_2IFC_2019_Jun_13_1205_613,stimulusWOAN27_2IFC_2019_Jun_13_1205_614,False,2019_Jun_13_1205,2IFC,3,WOAN27,
2IFC,7,0,7,0,5.8,-1,wrong answer,0.399807300186,True,False,stimulusWOAN27_2IFC_2019_Jun_13_1205_615,stimulusWOAN27_2IFC_2019_Jun_13_1205_616,False,2019_Jun_13_1205,2IFC,3,WOAN27,
2IFC,8,0,8,0,5.8,-1,correct answer,0.134182099951,False,True,stimulusWOAN27_2IFC_2019_Jun_13_1205_617,stimulusWOAN27_2IFC_2019_Jun_13_1205_618,False,2019_Jun_13_1205,2IFC,3,WOAN27,
2IFC,9,0,9,0,5.8,-1,wrong answer,0.399701999966,False,True,stimulusWOAN27_2IFC_2019_Jun_13_1205_619,stimulusWOAN27_2IFC_2019_Jun_13_1205_620,False,2019_Jun_13_1205,2IFC,3,WOAN27,
2IFC,10,0,10,0,5.8,-1,correct answer,0.668110599974,True,False,stimulusWOAN27_2IFC_2019_Jun_13_1205_621,stimulusWOAN27_2IFC_2019_Jun_13_1205_622,False,2019_Jun_13_1205,2IFC,3,WOAN27,
2IFC,11,0,11,0,5.8,-1,correct answer,0.234542499995,True,False,stimulusWOAN27_2IFC_2019_Jun_13_1205_623,stimulusWOAN27_2IFC_2019_Jun_13_1205_624,False,2019_Jun_13_1205,2IFC,3,WOAN27,
2IFC,12,0,12,0,5.8,-1,correct answer,0.53409760003,True,False,stimulusWOAN27_2IFC_2019_Jun_13_1205_625,stimulusWOAN27_2IFC_2019_Jun_13_1205_626,False,2019_Jun_13_1205,2IFC,3,WOAN27,
2IFC,13,0,13,0,5.8,-1,correct answer,0.567920999834,True,False,stimulusWOAN27_2IFC_2019_Jun_13_1205_627,stimulusWOAN27_2IFC_2019_Jun_13_1205_628,False,2019_Jun_13_1205,2IFC,3,WOAN27,
2IFC,14,0,14,0,5.8,-1,correct answer,0.534422999946,True,False,stimulusWOAN27_2IFC_2019_Jun_13_1205_629,stimulusWOAN27_2IFC_2019_Jun_13_1205_630,False,2019_Jun_13_1205,2IFC,3,WOAN27,
2IFC,15,0,15,0,5.8,-1,correct answer,0.267097200034,True,False,stimulusWOAN27_2IFC_2019_Jun_13_1205_631,stimulusWOAN27_2IFC_2019_Jun_13_1205_632,False,2019_Jun_13_1205,2IFC,3,WOAN27,
2IFC,16,0,16,0,5.8,-1,correct answer,0.500590000069,True,False,stimulusWOAN27_2IFC_2019_Jun_13_1205_633,stimulusWOAN27_2IFC_2019_Jun_13_1205_634,False,2019_Jun_13_1205,2IFC,3,WOAN27,
2IFC,17,0,17,0,5.8,-1,correct answer,0.468919799896,False,True,stimulusWOAN27_2IFC_2019_Jun_13_1205_635,stimulusWOAN27_2IFC_2019_Jun_13_1205_636,False,2019_Jun_13_1205,2IFC,3,WOAN27,
2IFC,18,0,18,0,5.8,-1,correct answer,0.534653499955,False,True,stimulusWOAN27_2IFC_2019_Jun_13_1205_637,stimulusWOAN27_2IFC_2019_Jun_13_1205_638,False,2019_Jun_13_1205,2IFC,3,WOAN27,
2IFC,19,0,19,0,5.8,-1,correct answer,0.500489899889,False,True,stimulusWOAN27_2IFC_2019_Jun_13_1205_639,stimulusWOAN27_2IFC_2019_Jun_13_1205_640,False,2019_Jun_13_1205,2IFC,3,WOAN27,
2IFC,20,0,20,0,5.8,-1,correct answer,0.367023600033,False,True,stimulusWOAN27_2IFC_2019_Jun_13_1205_641,stimulusWOAN27_2IFC_2019_Jun_13_1205_642,False,2019_Jun_13_1205,2IFC,3,WOAN27,
2IFC,21,0,21,0,5.8,-1,correct answer,0.533110500081,True,False,stimulusWOAN27_2IFC_2019_Jun_13_1205_643,stimulusWOAN27_2IFC_2019_Jun_13_1205_644,False,2019_Jun_13_1205,2IFC,3,WOAN27,
2IFC,22,0,22,0,5.8,-1,no answer,-1,True,False,stimulusWOAN27_2IFC_2019_Jun_13_1205_645,stimulusWOAN27_2IFC_2019_Jun_13_1205_646,False,2019_Jun_13_1205,2IFC,3,WOAN27,
2IFC,23,0,23,0,5.8,-1,wrong answer,0.63523819996,True,False,stimulusWOAN27_2IFC_2019_Jun_13_1205_647,stimulusWOAN27_2IFC_2019_Jun_13_1205_648,False,2019_Jun_13_1205,2IFC,3,WOAN27,
2IFC,24,0,24,0,5.8,-1,correct answer,0.600772500038,False,True,stimulusWOAN27_2IFC_2019_Jun_13_1205_649,stimulusWOAN27_2IFC_2019_Jun_13_1205_650,False,2019_Jun_13_1205,2IFC,3,WOAN27,
2IFC,25,0,25,0,5.8,-1,correct answer,0.467187199974,False,True,stimulusWOAN27_2IFC_2019_Jun_13_1205_651,stimulusWOAN27_2IFC_2019_Jun_13_1205_652,False,2019_Jun_13_1205,2IFC,3,WOAN27,
2IFC,26,0,26,0,5.8,-1,correct answer,0.500867200084,True,False,stimulusWOAN27_2IFC_2019_Jun_13_1205_653,stimulusWOAN27_2IFC_2019_Jun_13_1205_654,False,2019_Jun_13_1205,2IFC,3,WOAN27,
2IFC,27,0,27,0,5.8,-1,no answer,-1,False,True,stimulusWOAN27_2IFC_2019_Jun_13_1205_655,stimulusWOAN27_2IFC_2019_Jun_13_1205_656,False,2019_Jun_13_1205,2IFC,3,WOAN27,
2IFC,28,0,28,0,5.8,-1,wrong answer,0.500748099992,False,True,stimulusWOAN27_2IFC_2019_Jun_13_1205_657,stimulusWOAN27_2IFC_2019_Jun_13_1205_658,False,2019_Jun_13_1205,2IFC,3,WOAN27,
2IFC,29,0,29,0,5.8,-1,correct answer,0.734988899902,True,False,stimulusWOAN27_2IFC_2019_Jun_13_1205_659,stimulusWOAN27_2IFC_2019_Jun_13_1205_660,False,2019_Jun_13_1205,2IFC,3,WOAN27,
2IFC,30,0,30,0,5.8,-1,correct answer,0.400280600181,False,True,stimulusWOAN27_2IFC_2019_Jun_13_1205_661,stimulusWOAN27_2IFC_2019_Jun_13_1205_662,False,2019_Jun_13_1205,2IFC,3,WOAN27,
2IFC,31,0,31,0,5.8,-1,correct answer,0.668558100006,True,False,stimulusWOAN27_2IFC_2019_Jun_13_1205_663,stimulusWOAN27_2IFC_2019_Jun_13_1205_664,False,2019_Jun_13_1205,2IFC,3,WOAN27,
2IFC,32,0,32,0,5.8,-1,correct answer,0.133829500061,True,False,stimulusWOAN27_2IFC_2019_Jun_13_1205_665,stimulusWOAN27_2IFC_2019_Jun_13_1205_666,False,2019_Jun_13_1205,2IFC,3,WOAN27,
2IFC,33,0,33,0,5.8,-1,correct answer,0.400854000123,True,False,stimulusWOAN27_2IFC_2019_Jun_13_1205_667,stimulusWOAN27_2IFC_2019_Jun_13_1205_668,False,2019_Jun_13_1205,2IFC,3,WOAN27,
2IFC,34,0,34,0,5.8,-1,wrong answer,0.26658989978,True,False,stimulusWOAN27_2IFC_2019_Jun_13_1205_669,stimulusWOAN27_2IFC_2019_Jun_13_1205_670,False,2019_Jun_13_1205,2IFC,3,WOAN27,
2IFC,35,0,35,0,5.8,-1,correct answer,0.534317200072,True,False,stimulusWOAN27_2IFC_2019_Jun_13_1205_671,stimulusWOAN27_2IFC_2019_Jun_13_1205_672,False,2019_Jun_13_1205,2IFC,3,WOAN27,
2IFC,36,0,36,0,5.8,-1,correct answer,0.634223900037,True,False,stimulusWOAN27_2IFC_2019_Jun_13_1205_673,stimulusWOAN27_2IFC_2019_Jun_13_1205_674,False,2019_Jun_13_1205,2IFC,3,WOAN27,
2IFC,37,0,37,0,5.8,-1,correct answer,0.233777099987,False,True,stimulusWOAN27_2IFC_2019_Jun_13_1205_675,stimulusWOAN27_2IFC_2019_Jun_13_1205_676,False,2019_Jun_13_1205,2IFC,3,WOAN27,
2IFC,38,0,38,0,5.8,-1,correct answer,0.567488499917,True,False,stimulusWOAN27_2IFC_2019_Jun_13_1205_677,stimulusWOAN27_2IFC_2019_Jun_13_1205_678,False,2019_Jun_13_1205,2IFC,3,WOAN27,
2IFC,39,0,39,0,5.8,-1,correct answer,0.500307600014,False,True,stimulusWOAN27_2IFC_2019_Jun_13_1205_679,stimulusWOAN27_2IFC_2019_Jun_13_1205_680,False,2019_Jun_13_1205,2IFC,3,WOAN27,
2IFC,40,0,40,0,5.8,-1,correct answer,0.534080399899,True,False,stimulusWOAN27_2IFC_2019_Jun_13_1205_681,stimulusWOAN27_2IFC_2019_Jun_13_1205_682,False,2019_Jun_13_1205,2IFC,3,WOAN27,
2IFC,41,0,41,0,5.8,-1,wrong answer,0.633691499941,False,True,stimulusWOAN27_2IFC_2019_Jun_13_1205_683,stimulusWOAN27_2IFC_2019_Jun_13_1205_684,False,2019_Jun_13_1205,2IFC,3,WOAN27,
2IFC,42,0,42,0,5.8,-1,correct answer,0.367261599982,False,True,stimulusWOAN27_2IFC_2019_Jun_13_1205_685,stimulusWOAN27_2IFC_2019_Jun_13_1205_686,False,2019_Jun_13_1205,2IFC,3,WOAN27,
2IFC,43,0,43,0,5.8,-1,correct answer,0.633669900009,True,False,stimulusWOAN27_2IFC_2019_Jun_13_1205_687,stimulusWOAN27_2IFC_2019_Jun_13_1205_688,False,2019_Jun_13_1205,2IFC,3,WOAN27,
2IFC,44,0,44,0,5.8,-1,wrong answer,0.367635200033,True,False,stimulusWOAN27_2IFC_2019_Jun_13_1205_689,stimulusWOAN27_2IFC_2019_Jun_13_1205_690,False,2019_Jun_13_1205,2IFC,3,WOAN27,
2IFC,45,0,45,0,5.8,-1,correct answer,0.368293799926,True,False,stimulusWOAN27_2IFC_2019_Jun_13_1205_691,stimulusWOAN27_2IFC_2019_Jun_13_1205_692,False,2019_Jun_13_1205,2IFC,3,WOAN27,
2IFC,46,0,46,0,5.8,-1,wrong answer,0.634557900019,True,False,stimulusWOAN27_2IFC_2019_Jun_13_1205_693,stimulusWOAN27_2IFC_2019_Jun_13_1205_694,False,2019_Jun_13_1205,2IFC,3,WOAN27,
2IFC,47,0,47,0,5.8,-1,correct answer,0.467364600161,False,True,stimulusWOAN27_2IFC_2019_Jun_13_1205_695,stimulusWOAN27_2IFC_2019_Jun_13_1205_696,False,2019_Jun_13_1205,2IFC,3,WOAN27,
2IFC,48,0,48,0,5.8,-1,correct answer,0.534725100035,True,False,stimulusWOAN27_2IFC_2019_Jun_13_1205_697,stimulusWOAN27_2IFC_2019_Jun_13_1205_698,False,2019_Jun_13_1205,2IFC,3,WOAN27,
2IFC,49,0,49,0,5.8,-1,correct answer,0.2681127002,False,True,stimulusWOAN27_2IFC_2019_Jun_13_1205_699,stimulusWOAN27_2IFC_2019_Jun_13_1205_700,False,2019_Jun_13_1205,2IFC,3,WOAN27,
2IFC,50,0,50,0,5.8,-1,correct answer,0.233871799894,True,False,stimulusWOAN27_2IFC_2019_Jun_13_1205_701,stimulusWOAN27_2IFC_2019_Jun_13_1205_702,False,2019_Jun_13_1205,2IFC,3,WOAN27,
2IFC,51,0,51,0,5.8,-1,correct answer,0.367301100167,False,True,stimulusWOAN27_2IFC_2019_Jun_13_1205_703,stimulusWOAN27_2IFC_2019_Jun_13_1205_704,False,2019_Jun_13_1205,2IFC,3,WOAN27,
2IFC,52,0,52,0,5.8,-1,correct answer,0.334643499926,False,True,stimulusWOAN27_2IFC_2019_Jun_13_1205_705,stimulusWOAN27_2IFC_2019_Jun_13_1205_706,False,2019_Jun_13_1205,2IFC,3,WOAN27,
2IFC,53,0,53,0,5.8,-1,correct answer,0.633994600037,False,True,stimulusWOAN27_2IFC_2019_Jun_13_1205_707,stimulusWOAN27_2IFC_2019_Jun_13_1205_708,False,2019_Jun_13_1205,2IFC,3,WOAN27,
2IFC,54,0,54,0,5.8,-1,correct answer,0.534661500016,True,False,stimulusWOAN27_2IFC_2019_Jun_13_1205_709,stimulusWOAN27_2IFC_2019_Jun_13_1205_710,False,2019_Jun_13_1205,2IFC,3,WOAN27,
2IFC,55,0,55,0,5.8,-1,correct answer,0.333795899991,True,False,stimulusWOAN27_2IFC_2019_Jun_13_1205_711,stimulusWOAN27_2IFC_2019_Jun_13_1205_712,False,2019_Jun_13_1205,2IFC,3,WOAN27,
2IFC,56,0,56,0,5.8,-1,correct answer,0.600652700057,True,False,stimulusWOAN27_2IFC_2019_Jun_13_1205_713,stimulusWOAN27_2IFC_2019_Jun_13_1205_714,False,2019_Jun_13_1205,2IFC,3,WOAN27,
2IFC,57,0,57,0,5.8,-1,correct answer,0.200974399922,True,False,stimulusWOAN27_2IFC_2019_Jun_13_1205_715,stimulusWOAN27_2IFC_2019_Jun_13_1205_716,False,2019_Jun_13_1205,2IFC,3,WOAN27,
2IFC,58,0,58,0,5.8,-1,correct answer,0.300675600069,True,False,stimulusWOAN27_2IFC_2019_Jun_13_1205_717,stimulusWOAN27_2IFC_2019_Jun_13_1205_718,False,2019_Jun_13_1205,2IFC,3,WOAN27,
2IFC,59,0,59,0,5.8,-1,correct answer,0.267261799891,False,True,stimulusWOAN27_2IFC_2019_Jun_13_1205_719,stimulusWOAN27_2IFC_2019_Jun_13_1205_720,False,2019_Jun_13_1205,2IFC,3,WOAN27,
2IFC,60,0,60,0,5.8,-1,correct answer,0.400387300178,False,True,stimulusWOAN27_2IFC_2019_Jun_13_1205_721,stimulusWOAN27_2IFC_2019_Jun_13_1205_722,False,2019_Jun_13_1205,2IFC,3,WOAN27,
2IFC,61,0,61,0,5.8,-1,wrong answer,0.566864499822,True,False,stimulusWOAN27_2IFC_2019_Jun_13_1205_723,stimulusWOAN27_2IFC_2019_Jun_13_1205_724,False,2019_Jun_13_1205,2IFC,3,WOAN27,
2IFC,62,0,62,0,5.8,-1,correct answer,0.434225799982,False,True,stimulusWOAN27_2IFC_2019_Jun_13_1205_725,stimulusWOAN27_2IFC_2019_Jun_13_1205_726,False,2019_Jun_13_1205,2IFC,3,WOAN27,
2IFC,63,0,63,0,5.8,-1,correct answer,0.400720699923,False,True,stimulusWOAN27_2IFC_2019_Jun_13_1205_727,stimulusWOAN27_2IFC_2019_Jun_13_1205_728,False,2019_Jun_13_1205,2IFC,3,WOAN27,
2IFC,64,0,64,0,5.8,-1,correct answer,0.300691099837,False,True,stimulusWOAN27_2IFC_2019_Jun_13_1205_729,stimulusWOAN27_2IFC_2019_Jun_13_1205_730,False,2019_Jun_13_1205,2IFC,3,WOAN27,
2IFC,65,0,65,0,5.8,-1,correct answer,0.467633099994,False,True,stimulusWOAN27_2IFC_2019_Jun_13_1205_731,stimulusWOAN27_2IFC_2019_Jun_13_1205_732,False,2019_Jun_13_1205,2IFC,3,WOAN27,
2IFC,66,0,66,0,5.8,-1,correct answer,0.467045699945,True,False,stimulusWOAN27_2IFC_2019_Jun_13_1205_733,stimulusWOAN27_2IFC_2019_Jun_13_1205_734,False,2019_Jun_13_1205,2IFC,3,WOAN27,
2IFC,67,0,67,0,5.8,-1,correct answer,0.399485599948,False,True,stimulusWOAN27_2IFC_2019_Jun_13_1205_735,stimulusWOAN27_2IFC_2019_Jun_13_1205_736,False,2019_Jun_13_1205,2IFC,3,WOAN27,
2IFC,68,0,68,0,5.8,-1,correct answer,0.367165500065,True,False,stimulusWOAN27_2IFC_2019_Jun_13_1205_737,stimulusWOAN27_2IFC_2019_Jun_13_1205_738,False,2019_Jun_13_1205,2IFC,3,WOAN27,
2IFC,69,0,69,0,5.8,-1,correct answer,0.26681880001,False,True,stimulusWOAN27_2IFC_2019_Jun_13_1205_739,stimulusWOAN27_2IFC_2019_Jun_13_1205_740,False,2019_Jun_13_1205,2IFC,3,WOAN27,
2IFC,70,0,70,0,5.8,-1,correct answer,0.466567600146,False,True,stimulusWOAN27_2IFC_2019_Jun_13_1205_741,stimulusWOAN27_2IFC_2019_Jun_13_1205_742,False,2019_Jun_13_1205,2IFC,3,WOAN27,
2IFC,71,0,71,0,5.8,-1,wrong answer,0.466896899976,False,True,stimulusWOAN27_2IFC_2019_Jun_13_1205_743,stimulusWOAN27_2IFC_2019_Jun_13_1205_744,False,2019_Jun_13_1205,2IFC,3,WOAN27,
2IFC,72,0,72,0,5.8,-1,correct answer,0.434025899973,False,True,stimulusWOAN27_2IFC_2019_Jun_13_1205_745,stimulusWOAN27_2IFC_2019_Jun_13_1205_746,False,2019_Jun_13_1205,2IFC,3,WOAN27,
2IFC,73,0,73,0,5.8,-1,correct answer,0.633802799974,True,False,stimulusWOAN27_2IFC_2019_Jun_13_1205_747,stimulusWOAN27_2IFC_2019_Jun_13_1205_748,False,2019_Jun_13_1205,2IFC,3,WOAN27,
2IFC,74,0,74,0,5.8,-1,wrong answer,0.367154099979,False,True,stimulusWOAN27_2IFC_2019_Jun_13_1205_749,stimulusWOAN27_2IFC_2019_Jun_13_1205_750,False,2019_Jun_13_1205,2IFC,3,WOAN27,
2IFC,0,0,0,0,9.1,-1,correct answer,0.66759330011,False,True,stimulusWOAN27_2IFC_2019_Jun_13_1205_751,stimulusWOAN27_2IFC_2019_Jun_13_1205_752,False,2019_Jun_13_1205,2IFC,3,WOAN27,
2IFC,1,0,1,0,9.1,-1,correct answer,0.467070400016,True,False,stimulusWOAN27_2IFC_2019_Jun_13_1205_753,stimulusWOAN27_2IFC_2019_Jun_13_1205_754,False,2019_Jun_13_1205,2IFC,3,WOAN27,
2IFC,2,0,2,0,9.1,-1,correct answer,0.467481300002,True,False,stimulusWOAN27_2IFC_2019_Jun_13_1205_755,stimulusWOAN27_2IFC_2019_Jun_13_1205_756,False,2019_Jun_13_1205,2IFC,3,WOAN27,
2IFC,3,0,3,0,9.1,-1,correct answer,0.300943800015,False,True,stimulusWOAN27_2IFC_2019_Jun_13_1205_757,stimulusWOAN27_2IFC_2019_Jun_13_1205_758,False,2019_Jun_13_1205,2IFC,3,WOAN27,
2IFC,4,0,4,0,9.1,-1,correct answer,0.167783499928,True,False,stimulusWOAN27_2IFC_2019_Jun_13_1205_759,stimulusWOAN27_2IFC_2019_Jun_13_1205_760,False,2019_Jun_13_1205,2IFC,3,WOAN27,
2IFC,5,0,5,0,9.1,-1,correct answer,0.434542400064,True,False,stimulusWOAN27_2IFC_2019_Jun_13_1205_761,stimulusWOAN27_2IFC_2019_Jun_13_1205_762,False,2019_Jun_13_1205,2IFC,3,WOAN27,
2IFC,6,0,6,0,9.1,-1,correct answer,0.035035100067,False,True,stimulusWOAN27_2IFC_2019_Jun_13_1205_763,stimulusWOAN27_2IFC_2019_Jun_13_1205_764,False,2019_Jun_13_1205,2IFC,3,WOAN27,
2IFC,7,0,7,0,9.1,-1,correct answer,0.334523299942,True,False,stimulusWOAN27_2IFC_2019_Jun_13_1205_765,stimulusWOAN27_2IFC_2019_Jun_13_1205_766,False,2019_Jun_13_1205,2IFC,3,WOAN27,
2IFC,8,0,8,0,9.1,-1,correct answer,0.233744000085,True,False,stimulusWOAN27_2IFC_2019_Jun_13_1205_767,stimulusWOAN27_2IFC_2019_Jun_13_1205_768,False,2019_Jun_13_1205,2IFC,3,WOAN27,
2IFC,9,0,9,0,9.1,-1,correct answer,0.200077500194,True,False,stimulusWOAN27_2IFC_2019_Jun_13_1205_769,stimulusWOAN27_2IFC_2019_Jun_13_1205_770,False,2019_Jun_13_1205,2IFC,3,WOAN27,
2IFC,10,0,10,0,9.1,-1,correct answer,0.233722799923,False,True,stimulusWOAN27_2IFC_2019_Jun_13_1205_771,stimulusWOAN27_2IFC_2019_Jun_13_1205_772,False,2019_Jun_13_1205,2IFC,3,WOAN27,
2IFC,11,0,11,0,9.1,-1,correct answer,0.300069399877,True,False,stimulusWOAN27_2IFC_2019_Jun_13_1205_773,stimulusWOAN27_2IFC_2019_Jun_13_1205_774,False,2019_Jun_13_1205,2IFC,3,WOAN27,
2IFC,12,0,12,0,9.1,-1,correct answer,0.100477800006,True,False,stimulusWOAN27_2IFC_2019_Jun_13_1205_775,stimulusWOAN27_2IFC_2019_Jun_13_1205_776,False,2019_Jun_13_1205,2IFC,3,WOAN27,
2IFC,13,0,13,0,9.1,-1,correct answer,0.19948099996,False,True,stimulusWOAN27_2IFC_2019_Jun_13_1205_777,stimulusWOAN27_2IFC_2019_Jun_13_1205_778,False,2019_Jun_13_1205,2IFC,3,WOAN27,
2IFC,14,0,14,0,9.1,-1,correct answer,0.333758400055,True,False,stimulusWOAN27_2IFC_2019_Jun_13_1205_779,stimulusWOAN27_2IFC_2019_Jun_13_1205_780,False,2019_Jun_13_1205,2IFC,3,WOAN27,
2IFC,15,0,15,0,9.1,-1,correct answer,0.0339138999116,True,False,stimulusWOAN27_2IFC_2019_Jun_13_1205_781,stimulusWOAN27_2IFC_2019_Jun_13_1205_782,False,2019_Jun_13_1205,2IFC,3,WOAN27,
2IFC,16,0,16,0,9.1,-1,correct answer,0.133934700163,False,True,stimulusWOAN27_2IFC_2019_Jun_13_1205_783,stimulusWOAN27_2IFC_2019_Jun_13_1205_784,False,2019_Jun_13_1205,2IFC,3,WOAN27,
2IFC,17,0,17,0,9.1,-1,correct answer,0.0337861999869,True,False,stimulusWOAN27_2IFC_2019_Jun_13_1205_785,stimulusWOAN27_2IFC_2019_Jun_13_1205_786,False,2019_Jun_13_1205,2IFC,3,WOAN27,
2IFC,18,0,18,0,9.1,-1,correct answer,0.133993699914,False,True,stimulusWOAN27_2IFC_2019_Jun_13_1205_787,stimulusWOAN27_2IFC_2019_Jun_13_1205_788,False,2019_Jun_13_1205,2IFC,3,WOAN27,
2IFC,19,0,19,0,9.1,-1,correct answer,0.464645200176,True,False,stimulusWOAN27_2IFC_2019_Jun_13_1205_789,stimulusWOAN27_2IFC_2019_Jun_13_1205_790,False,2019_Jun_13_1205,2IFC,3,WOAN27,
2IFC,20,0,20,0,9.1,-1,correct answer,0.167132099858,True,False,stimulusWOAN27_2IFC_2019_Jun_13_1205_791,stimulusWOAN27_2IFC_2019_Jun_13_1205_792,False,2019_Jun_13_1205,2IFC,3,WOAN27,
2IFC,21,0,21,0,9.1,-1,correct answer,0.0679658001754,False,True,stimulusWOAN27_2IFC_2019_Jun_13_1205_793,stimulusWOAN27_2IFC_2019_Jun_13_1205_794,False,2019_Jun_13_1205,2IFC,3,WOAN27,
2IFC,22,0,22,0,9.1,-1,correct answer,0.165325900074,False,True,stimulusWOAN27_2IFC_2019_Jun_13_1205_795,stimulusWOAN27_2IFC_2019_Jun_13_1205_796,False,2019_Jun_13_1205,2IFC,3,WOAN27,
2IFC,23,0,23,0,9.1,-1,wrong answer,0.300531400135,False,True,stimulusWOAN27_2IFC_2019_Jun_13_1205_797,stimulusWOAN27_2IFC_2019_Jun_13_1205_798,False,2019_Jun_13_1205,2IFC,3,WOAN27,
2IFC,24,0,24,0,9.1,-1,wrong answer,0.366292800056,True,False,stimulusWOAN27_2IFC_2019_Jun_13_1205_799,stimulusWOAN27_2IFC_2019_Jun_13_1205_800,False,2019_Jun_13_1205,2IFC,3,WOAN27,
2IFC,25,0,25,0,9.1,-1,wrong answer,0.033837800147,False,True,stimulusWOAN27_2IFC_2019_Jun_13_1205_801,stimulusWOAN27_2IFC_2019_Jun_13_1205_802,False,2019_Jun_13_1205,2IFC,3,WOAN27,
2IFC,26,0,26,0,9.1,-1,correct answer,0.335074200062,False,True,stimulusWOAN27_2IFC_2019_Jun_13_1205_803,stimulusWOAN27_2IFC_2019_Jun_13_1205_804,False,2019_Jun_13_1205,2IFC,3,WOAN27,
2IFC,27,0,27,0,9.1,-1,correct answer,0.333953800146,False,True,stimulusWOAN27_2IFC_2019_Jun_13_1205_805,stimulusWOAN27_2IFC_2019_Jun_13_1205_806,False,2019_Jun_13_1205,2IFC,3,WOAN27,
2IFC,28,0,28,0,9.1,-1,correct answer,0.267172199907,False,True,stimulusWOAN27_2IFC_2019_Jun_13_1205_807,stimulusWOAN27_2IFC_2019_Jun_13_1205_808,False,2019_Jun_13_1205,2IFC,3,WOAN27,
2IFC,29,0,29,0,9.1,-1,wrong answer,0.100669700187,True,False,stimulusWOAN27_2IFC_2019_Jun_13_1205_809,stimulusWOAN27_2IFC_2019_Jun_13_1205_810,False,2019_Jun_13_1205,2IFC,3,WOAN27,
2IFC,30,0,30,0,9.1,-1,correct answer,0.0677058000583,True,False,stimulusWOAN27_2IFC_2019_Jun_13_1205_811,stimulusWOAN27_2IFC_2019_Jun_13_1205_812,False,2019_Jun_13_1205,2IFC,3,WOAN27,
2IFC,31,0,31,0,9.1,-1,correct answer,0.267714899965,True,False,stimulusWOAN27_2IFC_2019_Jun_13_1205_813,stimulusWOAN27_2IFC_2019_Jun_13_1205_814,False,2019_Jun_13_1205,2IFC,3,WOAN27,
2IFC,32,0,32,0,9.1,-1,correct answer,0.200013699941,False,True,stimulusWOAN27_2IFC_2019_Jun_13_1205_815,stimulusWOAN27_2IFC_2019_Jun_13_1205_816,False,2019_Jun_13_1205,2IFC,3,WOAN27,
2IFC,33,0,33,0,9.1,-1,correct answer,0.434103399981,True,False,stimulusWOAN27_2IFC_2019_Jun_13_1205_817,stimulusWOAN27_2IFC_2019_Jun_13_1205_818,False,2019_Jun_13_1205,2IFC,3,WOAN27,
2IFC,34,0,34,0,9.1,-1,correct answer,0.534047599882,True,False,stimulusWOAN27_2IFC_2019_Jun_13_1205_819,stimulusWOAN27_2IFC_2019_Jun_13_1205_820,False,2019_Jun_13_1205,2IFC,3,WOAN27,
2IFC,35,0,35,0,9.1,-1,correct answer,0.135107000126,True,False,stimulusWOAN27_2IFC_2019_Jun_13_1205_821,stimulusWOAN27_2IFC_2019_Jun_13_1205_822,False,2019_Jun_13_1205,2IFC,3,WOAN27,
2IFC,36,0,36,0,9.1,-1,correct answer,0.501116599888,False,True,stimulusWOAN27_2IFC_2019_Jun_13_1205_823,stimulusWOAN27_2IFC_2019_Jun_13_1205_824,False,2019_Jun_13_1205,2IFC,3,WOAN27,
2IFC,37,0,37,0,9.1,-1,correct answer,0.200191500131,True,False,stimulusWOAN27_2IFC_2019_Jun_13_1205_825,stimulusWOAN27_2IFC_2019_Jun_13_1205_826,False,2019_Jun_13_1205,2IFC,3,WOAN27,
2IFC,38,0,38,0,9.1,-1,correct answer,0.0989508000202,False,True,stimulusWOAN27_2IFC_2019_Jun_13_1205_827,stimulusWOAN27_2IFC_2019_Jun_13_1205_828,False,2019_Jun_13_1205,2IFC,3,WOAN27,
2IFC,39,0,39,0,9.1,-1,correct answer,0.267151599983,False,True,stimulusWOAN27_2IFC_2019_Jun_13_1205_829,stimulusWOAN27_2IFC_2019_Jun_13_1205_830,False,2019_Jun_13_1205,2IFC,3,WOAN27,
2IFC,40,0,40,0,9.1,-1,correct answer,0.466889600037,True,False,stimulusWOAN27_2IFC_2019_Jun_13_1205_831,stimulusWOAN27_2IFC_2019_Jun_13_1205_832,False,2019_Jun_13_1205,2IFC,3,WOAN27,
2IFC,41,0,41,0,9.1,-1,correct answer,0.267238800181,True,False,stimulusWOAN27_2IFC_2019_Jun_13_1205_833,stimulusWOAN27_2IFC_2019_Jun_13_1205_834,False,2019_Jun_13_1205,2IFC,3,WOAN27,
2IFC,42,0,42,0,9.1,-1,correct answer,0.567566999933,True,False,stimulusWOAN27_2IFC_2019_Jun_13_1205_835,stimulusWOAN27_2IFC_2019_Jun_13_1205_836,False,2019_Jun_13_1205,2IFC,3,WOAN27,
2IFC,43,0,43,0,9.1,-1,correct answer,0.233454099856,False,True,stimulusWOAN27_2IFC_2019_Jun_13_1205_837,stimulusWOAN27_2IFC_2019_Jun_13_1205_838,False,2019_Jun_13_1205,2IFC,3,WOAN27,
2IFC,44,0,44,0,9.1,-1,correct answer,0.234161800006,False,True,stimulusWOAN27_2IFC_2019_Jun_13_1205_839,stimulusWOAN27_2IFC_2019_Jun_13_1205_840,False,2019_Jun_13_1205,2IFC,3,WOAN27,
2IFC,45,0,45,0,9.1,-1,correct answer,0.50078319991,False,True,stimulusWOAN27_2IFC_2019_Jun_13_1205_841,stimulusWOAN27_2IFC_2019_Jun_13_1205_842,False,2019_Jun_13_1205,2IFC,3,WOAN27,
2IFC,46,0,46,0,9.1,-1,correct answer,0.367020500125,True,False,stimulusWOAN27_2IFC_2019_Jun_13_1205_843,stimulusWOAN27_2IFC_2019_Jun_13_1205_844,False,2019_Jun_13_1205,2IFC,3,WOAN27,
2IFC,47,0,47,0,9.1,-1,correct answer,0.367790800054,False,True,stimulusWOAN27_2IFC_2019_Jun_13_1205_845,stimulusWOAN27_2IFC_2019_Jun_13_1205_846,False,2019_Jun_13_1205,2IFC,3,WOAN27,
2IFC,48,0,48,0,9.1,-1,correct answer,0.400897099869,False,True,stimulusWOAN27_2IFC_2019_Jun_13_1205_847,stimulusWOAN27_2IFC_2019_Jun_13_1205_848,False,2019_Jun_13_1205,2IFC,3,WOAN27,
2IFC,49,0,49,0,9.1,-1,correct answer,0.10030800011,True,False,stimulusWOAN27_2IFC_2019_Jun_13_1205_849,stimulusWOAN27_2IFC_2019_Jun_13_1205_850,False,2019_Jun_13_1205,2IFC,3,WOAN27,
2IFC,50,0,50,0,9.1,-1,correct answer,0.299950999906,True,False,stimulusWOAN27_2IFC_2019_Jun_13_1205_851,stimulusWOAN27_2IFC_2019_Jun_13_1205_852,False,2019_Jun_13_1205,2IFC,3,WOAN27,
2IFC,51,0,51,0,9.1,-1,correct answer,0.133634299971,True,False,stimulusWOAN27_2IFC_2019_Jun_13_1205_853,stimulusWOAN27_2IFC_2019_Jun_13_1205_854,False,2019_Jun_13_1205,2IFC,3,WOAN27,
2IFC,52,0,52,0,9.1,-1,correct answer,0.534028900089,True,False,stimulusWOAN27_2IFC_2019_Jun_13_1205_855,stimulusWOAN27_2IFC_2019_Jun_13_1205_856,False,2019_Jun_13_1205,2IFC,3,WOAN27,
2IFC,53,0,53,0,9.1,-1,correct answer,0.100345700048,True,False,stimulusWOAN27_2IFC_2019_Jun_13_1205_857,stimulusWOAN27_2IFC_2019_Jun_13_1205_858,False,2019_Jun_13_1205,2IFC,3,WOAN27,
2IFC,54,0,54,0,9.1,-1,correct answer,0.366675399942,False,True,stimulusWOAN27_2IFC_2019_Jun_13_1205_859,stimulusWOAN27_2IFC_2019_Jun_13_1205_860,False,2019_Jun_13_1205,2IFC,3,WOAN27,
2IFC,55,0,55,0,9.1,-1,correct answer,0.0338264999446,True,False,stimulusWOAN27_2IFC_2019_Jun_13_1205_861,stimulusWOAN27_2IFC_2019_Jun_13_1205_862,False,2019_Jun_13_1205,2IFC,3,WOAN27,
2IFC,56,0,56,0,9.1,-1,wrong answer,0.433974999934,True,False,stimulusWOAN27_2IFC_2019_Jun_13_1205_863,stimulusWOAN27_2IFC_2019_Jun_13_1205_864,False,2019_Jun_13_1205,2IFC,3,WOAN27,
2IFC,57,0,57,0,9.1,-1,correct answer,0.166511599906,False,True,stimulusWOAN27_2IFC_2019_Jun_13_1205_865,stimulusWOAN27_2IFC_2019_Jun_13_1205_866,False,2019_Jun_13_1205,2IFC,3,WOAN27,
2IFC,58,0,58,0,9.1,-1,correct answer,0.601466299966,False,True,stimulusWOAN27_2IFC_2019_Jun_13_1205_867,stimulusWOAN27_2IFC_2019_Jun_13_1205_868,False,2019_Jun_13_1205,2IFC,3,WOAN27,
2IFC,59,0,59,0,9.1,-1,correct answer,0.401262300089,False,True,stimulusWOAN27_2IFC_2019_Jun_13_1205_869,stimulusWOAN27_2IFC_2019_Jun_13_1205_870,False,2019_Jun_13_1205,2IFC,3,WOAN27,
2IFC,60,0,60,0,9.1,-1,correct answer,0.267977900105,True,False,stimulusWOAN27_2IFC_2019_Jun_13_1205_871,stimulusWOAN27_2IFC_2019_Jun_13_1205_872,False,2019_Jun_13_1205,2IFC,3,WOAN27,
2IFC,61,0,61,0,9.1,-1,wrong answer,0.534068200039,True,False,stimulusWOAN27_2IFC_2019_Jun_13_1205_873,stimulusWOAN27_2IFC_2019_Jun_13_1205_874,False,2019_Jun_13_1205,2IFC,3,WOAN27,
2IFC,62,0,62,0,9.1,-1,correct answer,0.401136000175,False,True,stimulusWOAN27_2IFC_2019_Jun_13_1205_875,stimulusWOAN27_2IFC_2019_Jun_13_1205_876,False,2019_Jun_13_1205,2IFC,3,WOAN27,
2IFC,63,0,63,0,9.1,-1,correct answer,0.233834400075,True,False,stimulusWOAN27_2IFC_2019_Jun_13_1205_877,stimulusWOAN27_2IFC_2019_Jun_13_1205_878,False,2019_Jun_13_1205,2IFC,3,WOAN27,
2IFC,64,0,64,0,9.1,-1,correct answer,0.233004000038,True,False,stimulusWOAN27_2IFC_2019_Jun_13_1205_879,stimulusWOAN27_2IFC_2019_Jun_13_1205_880,False,2019_Jun_13_1205,2IFC,3,WOAN27,
2IFC,65,0,65,0,9.1,-1,correct answer,0.567449100083,True,False,stimulusWOAN27_2IFC_2019_Jun_13_1205_881,stimulusWOAN27_2IFC_2019_Jun_13_1205_882,False,2019_Jun_13_1205,2IFC,3,WOAN27,
2IFC,66,0,66,0,9.1,-1,correct answer,0.266497200122,False,True,stimulusWOAN27_2IFC_2019_Jun_13_1205_883,stimulusWOAN27_2IFC_2019_Jun_13_1205_884,False,2019_Jun_13_1205,2IFC,3,WOAN27,
2IFC,67,0,67,0,9.1,-1,correct answer,0.133969099959,True,False,stimulusWOAN27_2IFC_2019_Jun_13_1205_885,stimulusWOAN27_2IFC_2019_Jun_13_1205_886,False,2019_Jun_13_1205,2IFC,3,WOAN27,
2IFC,68,0,68,0,9.1,-1,correct answer,0.266353199957,True,False,stimulusWOAN27_2IFC_2019_Jun_13_1205_887,stimulusWOAN27_2IFC_2019_Jun_13_1205_888,False,2019_Jun_13_1205,2IFC,3,WOAN27,
2IFC,69,0,69,0,9.1,-1,correct answer,0.565806299914,False,True,stimulusWOAN27_2IFC_2019_Jun_13_1205_889,stimulusWOAN27_2IFC_2019_Jun_13_1205_890,False,2019_Jun_13_1205,2IFC,3,WOAN27,
2IFC,70,0,70,0,9.1,-1,wrong answer,0.467379499925,False,True,stimulusWOAN27_2IFC_2019_Jun_13_1205_891,stimulusWOAN27_2IFC_2019_Jun_13_1205_892,False,2019_Jun_13_1205,2IFC,3,WOAN27,
2IFC,71,0,71,0,9.1,-1,correct answer,0.367281899787,False,True,stimulusWOAN27_2IFC_2019_Jun_13_1205_893,stimulusWOAN27_2IFC_2019_Jun_13_1205_894,False,2019_Jun_13_1205,2IFC,3,WOAN27,
2IFC,72,0,72,0,9.1,-1,correct answer,0.166203700006,True,False,stimulusWOAN27_2IFC_2019_Jun_13_1205_895,stimulusWOAN27_2IFC_2019_Jun_13_1205_896,False,2019_Jun_13_1205,2IFC,3,WOAN27,
2IFC,73,0,73,0,9.1,-1,correct answer,0.199186800048,False,True,stimulusWOAN27_2IFC_2019_Jun_13_1205_897,stimulusWOAN27_2IFC_2019_Jun_13_1205_898,False,2019_Jun_13_1205,2IFC,3,WOAN27,
2IFC,74,0,74,0,9.1,-1,correct answer,0.467466800008,True,False,stimulusWOAN27_2IFC_2019_Jun_13_1205_899,stimulusWOAN27_2IFC_2019_Jun_13_1205_900,False,2019_Jun_13_1205,2IFC,3,WOAN27,
2IFC,0,0,0,0,1.4,-1,wrong answer,0.400756299961,True,False,stimulusWOAN27_2IFC_2019_Jun_13_1205_901,stimulusWOAN27_2IFC_2019_Jun_13_1205_902,False,2019_Jun_13_1205,2IFC,3,WOAN27,
2IFC,1,0,1,0,1.4,-1,wrong answer,0.0672079001088,True,False,stimulusWOAN27_2IFC_2019_Jun_13_1205_903,stimulusWOAN27_2IFC_2019_Jun_13_1205_904,False,2019_Jun_13_1205,2IFC,3,WOAN27,
2IFC,2,0,2,0,1.4,-1,wrong answer,0.470891500125,True,False,stimulusWOAN27_2IFC_2019_Jun_13_1205_905,stimulusWOAN27_2IFC_2019_Jun_13_1205_906,False,2019_Jun_13_1205,2IFC,3,WOAN27,
2IFC,3,0,3,0,1.4,-1,wrong answer,0.433863500133,True,False,stimulusWOAN27_2IFC_2019_Jun_13_1205_907,stimulusWOAN27_2IFC_2019_Jun_13_1205_908,False,2019_Jun_13_1205,2IFC,3,WOAN27,
2IFC,4,0,4,0,1.4,-1,wrong answer,0.233870000113,True,False,stimulusWOAN27_2IFC_2019_Jun_13_1205_909,stimulusWOAN27_2IFC_2019_Jun_13_1205_910,False,2019_Jun_13_1205,2IFC,3,WOAN27,
2IFC,5,0,5,0,1.4,-1,correct answer,0.467729900032,False,True,stimulusWOAN27_2IFC_2019_Jun_13_1205_911,stimulusWOAN27_2IFC_2019_Jun_13_1205_912,False,2019_Jun_13_1205,2IFC,3,WOAN27,
2IFC,6,0,6,0,1.4,-1,correct answer,0.367029200075,False,True,stimulusWOAN27_2IFC_2019_Jun_13_1205_913,stimulusWOAN27_2IFC_2019_Jun_13_1205_914,False,2019_Jun_13_1205,2IFC,3,WOAN27,
2IFC,7,0,7,0,1.4,-1,correct answer,0.266184000066,False,True,stimulusWOAN27_2IFC_2019_Jun_13_1205_915,stimulusWOAN27_2IFC_2019_Jun_13_1205_916,False,2019_Jun_13_1205,2IFC,3,WOAN27,
2IFC,8,0,8,0,1.4,-1,wrong answer,0.567406599876,True,False,stimulusWOAN27_2IFC_2019_Jun_13_1205_917,stimulusWOAN27_2IFC_2019_Jun_13_1205_918,False,2019_Jun_13_1205,2IFC,3,WOAN27,
2IFC,9,0,9,0,1.4,-1,wrong answer,0.131470500026,False,True,stimulusWOAN27_2IFC_2019_Jun_13_1205_919,stimulusWOAN27_2IFC_2019_Jun_13_1205_920,False,2019_Jun_13_1205,2IFC,3,WOAN27,
2IFC,10,0,10,0,1.4,-1,wrong answer,0.033222500002,False,True,stimulusWOAN27_2IFC_2019_Jun_13_1205_921,stimulusWOAN27_2IFC_2019_Jun_13_1205_922,False,2019_Jun_13_1205,2IFC,3,WOAN27,
2IFC,11,0,11,0,1.4,-1,wrong answer,0.400819499977,True,False,stimulusWOAN27_2IFC_2019_Jun_13_1205_923,stimulusWOAN27_2IFC_2019_Jun_13_1205_924,False,2019_Jun_13_1205,2IFC,3,WOAN27,
2IFC,12,0,12,0,1.4,-1,correct answer,0.667458900018,False,True,stimulusWOAN27_2IFC_2019_Jun_13_1205_925,stimulusWOAN27_2IFC_2019_Jun_13_1205_926,False,2019_Jun_13_1205,2IFC,3,WOAN27,
2IFC,13,0,13,0,1.4,-1,correct answer,0.200197899947,True,False,stimulusWOAN27_2IFC_2019_Jun_13_1205_927,stimulusWOAN27_2IFC_2019_Jun_13_1205_928,False,2019_Jun_13_1205,2IFC,3,WOAN27,
2IFC,14,0,14,0,1.4,-1,wrong answer,0.333993599983,True,False,stimulusWOAN27_2IFC_2019_Jun_13_1205_929,stimulusWOAN27_2IFC_2019_Jun_13_1205_930,False,2019_Jun_13_1205,2IFC,3,WOAN27,
2IFC,15,0,15,0,1.4,-1,wrong answer,0.0336970998906,True,False,stimulusWOAN27_2IFC_2019_Jun_13_1205_931,stimulusWOAN27_2IFC_2019_Jun_13_1205_932,False,2019_Jun_13_1205,2IFC,3,WOAN27,
2IFC,16,0,16,0,1.4,-1,wrong answer,0.0667383000255,True,False,stimulusWOAN27_2IFC_2019_Jun_13_1205_933,stimulusWOAN27_2IFC_2019_Jun_13_1205_934,False,2019_Jun_13_1205,2IFC,3,WOAN27,
2IFC,17,0,17,0,1.4,-1,wrong answer,0.100437500048,False,True,stimulusWOAN27_2IFC_2019_Jun_13_1205_935,stimulusWOAN27_2IFC_2019_Jun_13_1205_936,False,2019_Jun_13_1205,2IFC,3,WOAN27,
2IFC,18,0,18,0,1.4,-1,correct answer,0.234142100206,False,True,stimulusWOAN27_2IFC_2019_Jun_13_1205_937,stimulusWOAN27_2IFC_2019_Jun_13_1205_938,False,2019_Jun_13_1205,2IFC,3,WOAN27,
2IFC,19,0,19,0,1.4,-1,correct answer,0.333377399947,False,True,stimulusWOAN27_2IFC_2019_Jun_13_1205_939,stimulusWOAN27_2IFC_2019_Jun_13_1205_940,False,2019_Jun_13_1205,2IFC,3,WOAN27,
2IFC,20,0,20,0,1.4,-1,wrong answer,0.766516400035,False,True,stimulusWOAN27_2IFC_2019_Jun_13_1205_941,stimulusWOAN27_2IFC_2019_Jun_13_1205_942,False,2019_Jun_13_1205,2IFC,3,WOAN27,
2IFC,21,0,21,0,1.4,-1,wrong answer,0.499757200014,True,False,stimulusWOAN27_2IFC_2019_Jun_13_1205_943,stimulusWOAN27_2IFC_2019_Jun_13_1205_944,False,2019_Jun_13_1205,2IFC,3,WOAN27,
2IFC,22,0,22,0,1.4,-1,wrong answer,0.40083170007,True,False,stimulusWOAN27_2IFC_2019_Jun_13_1205_945,stimulusWOAN27_2IFC_2019_Jun_13_1205_946,False,2019_Jun_13_1205,2IFC,3,WOAN27,
2IFC,23,0,23,0,1.4,-1,correct answer,0.266625000164,True,False,stimulusWOAN27_2IFC_2019_Jun_13_1205_947,stimulusWOAN27_2IFC_2019_Jun_13_1205_948,False,2019_Jun_13_1205,2IFC,3,WOAN27,
2IFC,24,0,24,0,1.4,-1,correct answer,0.233676000033,False,True,stimulusWOAN27_2IFC_2019_Jun_13_1205_949,stimulusWOAN27_2IFC_2019_Jun_13_1205_950,False,2019_Jun_13_1205,2IFC,3,WOAN27,
2IFC,25,0,25,0,1.4,-1,correct answer,0.300876999972,False,True,stimulusWOAN27_2IFC_2019_Jun_13_1205_951,stimulusWOAN27_2IFC_2019_Jun_13_1205_952,False,2019_Jun_13_1205,2IFC,3,WOAN27,
2IFC,26,0,26,0,1.4,-1,correct answer,0.533512499882,True,False,stimulusWOAN27_2IFC_2019_Jun_13_1205_953,stimulusWOAN27_2IFC_2019_Jun_13_1205_954,False,2019_Jun_13_1205,2IFC,3,WOAN27,
2IFC,27,0,27,0,1.4,-1,correct answer,0.534999799915,False,True,stimulusWOAN27_2IFC_2019_Jun_13_1205_955,stimulusWOAN27_2IFC_2019_Jun_13_1205_956,False,2019_Jun_13_1205,2IFC,3,WOAN27,
2IFC,28,0,28,0,1.4,-1,wrong answer,0.600356200011,False,True,stimulusWOAN27_2IFC_2019_Jun_13_1205_957,stimulusWOAN27_2IFC_2019_Jun_13_1205_958,False,2019_Jun_13_1205,2IFC,3,WOAN27,
2IFC,29,0,29,0,1.4,-1,wrong answer,0.467585999984,False,True,stimulusWOAN27_2IFC_2019_Jun_13_1205_959,stimulusWOAN27_2IFC_2019_Jun_13_1205_960,False,2019_Jun_13_1205,2IFC,3,WOAN27,
2IFC,30,0,30,0,1.4,-1,correct answer,0.100916400086,False,True,stimulusWOAN27_2IFC_2019_Jun_13_1205_961,stimulusWOAN27_2IFC_2019_Jun_13_1205_962,False,2019_Jun_13_1205,2IFC,3,WOAN27,
2IFC,31,0,31,0,1.4,-1,correct answer,0.233353600139,False,True,stimulusWOAN27_2IFC_2019_Jun_13_1205_963,stimulusWOAN27_2IFC_2019_Jun_13_1205_964,False,2019_Jun_13_1205,2IFC,3,WOAN27,
2IFC,32,0,32,0,1.4,-1,correct answer,0.133677300066,False,True,stimulusWOAN27_2IFC_2019_Jun_13_1205_965,stimulusWOAN27_2IFC_2019_Jun_13_1205_966,False,2019_Jun_13_1205,2IFC,3,WOAN27,
2IFC,33,0,33,0,1.4,-1,correct answer,0.567538400181,False,True,stimulusWOAN27_2IFC_2019_Jun_13_1205_967,stimulusWOAN27_2IFC_2019_Jun_13_1205_968,False,2019_Jun_13_1205,2IFC,3,WOAN27,
2IFC,34,0,34,0,1.4,-1,correct answer,0.467562899925,False,True,stimulusWOAN27_2IFC_2019_Jun_13_1205_969,stimulusWOAN27_2IFC_2019_Jun_13_1205_970,False,2019_Jun_13_1205,2IFC,3,WOAN27,
2IFC,35,0,35,0,1.4,-1,wrong answer,0.233469400089,True,False,stimulusWOAN27_2IFC_2019_Jun_13_1205_971,stimulusWOAN27_2IFC_2019_Jun_13_1205_972,False,2019_Jun_13_1205,2IFC,3,WOAN27,
2IFC,36,0,36,0,1.4,-1,wrong answer,0.6000446002,False,True,stimulusWOAN27_2IFC_2019_Jun_13_1205_973,stimulusWOAN27_2IFC_2019_Jun_13_1205_974,False,2019_Jun_13_1205,2IFC,3,WOAN27,
2IFC,37,0,37,0,1.4,-1,correct answer,0.399327900028,False,True,stimulusWOAN27_2IFC_2019_Jun_13_1205_975,stimulusWOAN27_2IFC_2019_Jun_13_1205_976,False,2019_Jun_13_1205,2IFC,3,WOAN27,
2IFC,38,0,38,0,1.4,-1,correct answer,0.300622999901,False,True,stimulusWOAN27_2IFC_2019_Jun_13_1205_977,stimulusWOAN27_2IFC_2019_Jun_13_1205_978,False,2019_Jun_13_1205,2IFC,3,WOAN27,
2IFC,39,0,39,0,1.4,-1,correct answer,0.0669984999113,False,True,stimulusWOAN27_2IFC_2019_Jun_13_1205_979,stimulusWOAN27_2IFC_2019_Jun_13_1205_980,False,2019_Jun_13_1205,2IFC,3,WOAN27,
2IFC,40,0,40,0,1.4,-1,wrong answer,0.467152399942,True,False,stimulusWOAN27_2IFC_2019_Jun_13_1205_981,stimulusWOAN27_2IFC_2019_Jun_13_1205_982,False,2019_Jun_13_1205,2IFC,3,WOAN27,
2IFC,41,0,41,0,1.4,-1,wrong answer,0.100682899822,True,False,stimulusWOAN27_2IFC_2019_Jun_13_1205_983,stimulusWOAN27_2IFC_2019_Jun_13_1205_984,False,2019_Jun_13_1205,2IFC,3,WOAN27,
2IFC,42,0,42,0,1.4,-1,correct answer,0.166703299852,False,True,stimulusWOAN27_2IFC_2019_Jun_13_1205_985,stimulusWOAN27_2IFC_2019_Jun_13_1205_986,False,2019_Jun_13_1205,2IFC,3,WOAN27,
2IFC,43,0,43,0,1.4,-1,correct answer,0.633800699841,True,False,stimulusWOAN27_2IFC_2019_Jun_13_1205_987,stimulusWOAN27_2IFC_2019_Jun_13_1205_988,False,2019_Jun_13_1205,2IFC,3,WOAN27,
2IFC,44,0,44,0,1.4,-1,correct answer,0.0999337001704,False,True,stimulusWOAN27_2IFC_2019_Jun_13_1205_989,stimulusWOAN27_2IFC_2019_Jun_13_1205_990,False,2019_Jun_13_1205,2IFC,3,WOAN27,
2IFC,45,0,45,0,1.4,-1,correct answer,0.434195799986,False,True,stimulusWOAN27_2IFC_2019_Jun_13_1205_991,stimulusWOAN27_2IFC_2019_Jun_13_1205_992,False,2019_Jun_13_1205,2IFC,3,WOAN27,
2IFC,46,0,46,0,1.4,-1,correct answer,0.601057299878,True,False,stimulusWOAN27_2IFC_2019_Jun_13_1205_993,stimulusWOAN27_2IFC_2019_Jun_13_1205_994,False,2019_Jun_13_1205,2IFC,3,WOAN27,
2IFC,47,0,47,0,1.4,-1,correct answer,0.633764500031,True,False,stimulusWOAN27_2IFC_2019_Jun_13_1205_995,stimulusWOAN27_2IFC_2019_Jun_13_1205_996,False,2019_Jun_13_1205,2IFC,3,WOAN27,
2IFC,48,0,48,0,1.4,-1,correct answer,0.8349874001,True,False,stimulusWOAN27_2IFC_2019_Jun_13_1205_997,stimulusWOAN27_2IFC_2019_Jun_13_1205_998,False,2019_Jun_13_1205,2IFC,3,WOAN27,
2IFC,49,0,49,0,1.4,-1,correct answer,0.134401499992,False,True,stimulusWOAN27_2IFC_2019_Jun_13_1205_999,stimulusWOAN27_2IFC_2019_Jun_13_1205_1000,False,2019_Jun_13_1205,2IFC,3,WOAN27,
2IFC,50,0,50,0,1.4,-1,wrong answer,0.499645799864,True,False,stimulusWOAN27_2IFC_2019_Jun_13_1205_1001,stimulusWOAN27_2IFC_2019_Jun_13_1205_1002,False,2019_Jun_13_1205,2IFC,3,WOAN27,
2IFC,51,0,51,0,1.4,-1,correct answer,0.233708499931,False,True,stimulusWOAN27_2IFC_2019_Jun_13_1205_1003,stimulusWOAN27_2IFC_2019_Jun_13_1205_1004,False,2019_Jun_13_1205,2IFC,3,WOAN27,
2IFC,52,0,52,0,1.4,-1,correct answer,0.500583499903,False,True,stimulusWOAN27_2IFC_2019_Jun_13_1205_1005,stimulusWOAN27_2IFC_2019_Jun_13_1205_1006,False,2019_Jun_13_1205,2IFC,3,WOAN27,
2IFC,53,0,53,0,1.4,-1,wrong answer,0.298098600004,False,True,stimulusWOAN27_2IFC_2019_Jun_13_1205_1007,stimulusWOAN27_2IFC_2019_Jun_13_1205_1008,False,2019_Jun_13_1205,2IFC,3,WOAN27,
2IFC,54,0,54,0,1.4,-1,correct answer,0.433905499987,False,True,stimulusWOAN27_2IFC_2019_Jun_13_1205_1009,stimulusWOAN27_2IFC_2019_Jun_13_1205_1010,False,2019_Jun_13_1205,2IFC,3,WOAN27,
2IFC,55,0,55,0,1.4,-1,correct answer,0.767369299894,False,True,stimulusWOAN27_2IFC_2019_Jun_13_1205_1011,stimulusWOAN27_2IFC_2019_Jun_13_1205_1012,False,2019_Jun_13_1205,2IFC,3,WOAN27,
2IFC,56,0,56,0,1.4,-1,correct answer,0.399771200027,False,True,stimulusWOAN27_2IFC_2019_Jun_13_1205_1013,stimulusWOAN27_2IFC_2019_Jun_13_1205_1014,False,2019_Jun_13_1205,2IFC,3,WOAN27,
2IFC,57,0,57,0,1.4,-1,correct answer,0.700161100132,True,False,stimulusWOAN27_2IFC_2019_Jun_13_1205_1015,stimulusWOAN27_2IFC_2019_Jun_13_1205_1016,False,2019_Jun_13_1205,2IFC,3,WOAN27,
2IFC,58,0,58,0,1.4,-1,wrong answer,0.567409600131,False,True,stimulusWOAN27_2IFC_2019_Jun_13_1205_1017,stimulusWOAN27_2IFC_2019_Jun_13_1205_1018,False,2019_Jun_13_1205,2IFC,3,WOAN27,
2IFC,59,0,59,0,1.4,-1,no answer,-1,True,False,stimulusWOAN27_2IFC_2019_Jun_13_1205_1019,stimulusWOAN27_2IFC_2019_Jun_13_1205_1020,False,2019_Jun_13_1205,2IFC,3,WOAN27,
2IFC,60,0,60,0,1.4,-1,correct answer,0.367580600083,False,True,stimulusWOAN27_2IFC_2019_Jun_13_1205_1021,stimulusWOAN27_2IFC_2019_Jun_13_1205_1022,False,2019_Jun_13_1205,2IFC,3,WOAN27,
2IFC,61,0,61,0,1.4,-1,wrong answer,0.300541700097,False,True,stimulusWOAN27_2IFC_2019_Jun_13_1205_1023,stimulusWOAN27_2IFC_2019_Jun_13_1205_1024,False,2019_Jun_13_1205,2IFC,3,WOAN27,
2IFC,62,0,62,0,1.4,-1,wrong answer,0.56746959989,True,False,stimulusWOAN27_2IFC_2019_Jun_13_1205_1025,stimulusWOAN27_2IFC_2019_Jun_13_1205_1026,False,2019_Jun_13_1205,2IFC,3,WOAN27,
2IFC,63,0,63,0,1.4,-1,correct answer,0.0669269000646,False,True,stimulusWOAN27_2IFC_2019_Jun_13_1205_1027,stimulusWOAN27_2IFC_2019_Jun_13_1205_1028,False,2019_Jun_13_1205,2IFC,3,WOAN27,
2IFC,64,0,64,0,1.4,-1,wrong answer,0.0668270001188,True,False,stimulusWOAN27_2IFC_2019_Jun_13_1205_1029,stimulusWOAN27_2IFC_2019_Jun_13_1205_1030,False,2019_Jun_13_1205,2IFC,3,WOAN27,
2IFC,65,0,65,0,1.4,-1,wrong answer,0.534234399907,False,True,stimulusWOAN27_2IFC_2019_Jun_13_1205_1031,stimulusWOAN27_2IFC_2019_Jun_13_1205_1032,False,2019_Jun_13_1205,2IFC,3,WOAN27,
2IFC,66,0,66,0,1.4,-1,wrong answer,0.334054199979,True,False,stimulusWOAN27_2IFC_2019_Jun_13_1205_1033,stimulusWOAN27_2IFC_2019_Jun_13_1205_1034,False,2019_Jun_13_1205,2IFC,3,WOAN27,
2IFC,67,0,67,0,1.4,-1,wrong answer,0.500503099989,True,False,stimulusWOAN27_2IFC_2019_Jun_13_1205_1035,stimulusWOAN27_2IFC_2019_Jun_13_1205_1036,False,2019_Jun_13_1205,2IFC,3,WOAN27,
2IFC,68,0,68,0,1.4,-1,correct answer,0.367155999877,False,True,stimulusWOAN27_2IFC_2019_Jun_13_1205_1037,stimulusWOAN27_2IFC_2019_Jun_13_1205_1038,False,2019_Jun_13_1205,2IFC,3,WOAN27,
2IFC,69,0,69,0,1.4,-1,wrong answer,0.467489899835,True,False,stimulusWOAN27_2IFC_2019_Jun_13_1205_1039,stimulusWOAN27_2IFC_2019_Jun_13_1205_1040,False,2019_Jun_13_1205,2IFC,3,WOAN27,
2IFC,70,0,70,0,1.4,-1,wrong answer,0.600678999908,False,True,stimulusWOAN27_2IFC_2019_Jun_13_1205_1041,stimulusWOAN27_2IFC_2019_Jun_13_1205_1042,False,2019_Jun_13_1205,2IFC,3,WOAN27,
2IFC,71,0,71,0,1.4,-1,correct answer,0.0358442999423,False,True,stimulusWOAN27_2IFC_2019_Jun_13_1205_1043,stimulusWOAN27_2IFC_2019_Jun_13_1205_1044,False,2019_Jun_13_1205,2IFC,3,WOAN27,
2IFC,72,0,72,0,1.4,-1,wrong answer,0.400204999838,False,True,stimulusWOAN27_2IFC_2019_Jun_13_1205_1045,stimulusWOAN27_2IFC_2019_Jun_13_1205_1046,False,2019_Jun_13_1205,2IFC,3,WOAN27,
2IFC,73,0,73,0,1.4,-1,correct answer,0.667735500028,True,False,stimulusWOAN27_2IFC_2019_Jun_13_1205_1047,stimulusWOAN27_2IFC_2019_Jun_13_1205_1048,False,2019_Jun_13_1205,2IFC,3,WOAN27,
2IFC,74,0,74,0,1.4,-1,correct answer,0.10141350003,False,True,stimulusWOAN27_2IFC_2019_Jun_13_1205_1049,stimulusWOAN27_2IFC_2019_Jun_13_1205_1050,False,2019_Jun_13_1205,2IFC,3,WOAN27,
2IFC,0,0,0,0,7.5,-1,correct answer,0.668027299922,False,True,stimulusWOAN27_2IFC_2019_Jun_13_1205_1051,stimulusWOAN27_2IFC_2019_Jun_13_1205_1052,False,2019_Jun_13_1205,2IFC,3,WOAN27,
2IFC,1,0,1,0,7.5,-1,correct answer,0.167404300068,True,False,stimulusWOAN27_2IFC_2019_Jun_13_1205_1053,stimulusWOAN27_2IFC_2019_Jun_13_1205_1054,False,2019_Jun_13_1205,2IFC,3,WOAN27,
2IFC,2,0,2,0,7.5,-1,wrong answer,0.50077049993,True,False,stimulusWOAN27_2IFC_2019_Jun_13_1205_1055,stimulusWOAN27_2IFC_2019_Jun_13_1205_1056,False,2019_Jun_13_1205,2IFC,3,WOAN27,
2IFC,3,0,3,0,7.5,-1,correct answer,0.567432800075,True,False,stimulusWOAN27_2IFC_2019_Jun_13_1205_1057,stimulusWOAN27_2IFC_2019_Jun_13_1205_1058,False,2019_Jun_13_1205,2IFC,3,WOAN27,
2IFC,4,0,4,0,7.5,-1,correct answer,0.400360999862,True,False,stimulusWOAN27_2IFC_2019_Jun_13_1205_1059,stimulusWOAN27_2IFC_2019_Jun_13_1205_1060,False,2019_Jun_13_1205,2IFC,3,WOAN27,
2IFC,5,0,5,0,7.5,-1,correct answer,0.567819699878,True,False,stimulusWOAN27_2IFC_2019_Jun_13_1205_1061,stimulusWOAN27_2IFC_2019_Jun_13_1205_1062,False,2019_Jun_13_1205,2IFC,3,WOAN27,
2IFC,6,0,6,0,7.5,-1,correct answer,0.167147200089,False,True,stimulusWOAN27_2IFC_2019_Jun_13_1205_1063,stimulusWOAN27_2IFC_2019_Jun_13_1205_1064,False,2019_Jun_13_1205,2IFC,3,WOAN27,
2IFC,7,0,7,0,7.5,-1,correct answer,0.267110399902,True,False,stimulusWOAN27_2IFC_2019_Jun_13_1205_1065,stimulusWOAN27_2IFC_2019_Jun_13_1205_1066,False,2019_Jun_13_1205,2IFC,3,WOAN27,
2IFC,8,0,8,0,7.5,-1,correct answer,0.0669104999397,True,False,stimulusWOAN27_2IFC_2019_Jun_13_1205_1067,stimulusWOAN27_2IFC_2019_Jun_13_1205_1068,False,2019_Jun_13_1205,2IFC,3,WOAN27,
2IFC,9,0,9,0,7.5,-1,correct answer,0.333812899888,True,False,stimulusWOAN27_2IFC_2019_Jun_13_1205_1069,stimulusWOAN27_2IFC_2019_Jun_13_1205_1070,False,2019_Jun_13_1205,2IFC,3,WOAN27,
2IFC,10,0,10,0,7.5,-1,wrong answer,0.700145100011,True,False,stimulusWOAN27_2IFC_2019_Jun_13_1205_1071,stimulusWOAN27_2IFC_2019_Jun_13_1205_1072,False,2019_Jun_13_1205,2IFC,3,WOAN27,
2IFC,11,0,11,0,7.5,-1,correct answer,0.400295499945,False,True,stimulusWOAN27_2IFC_2019_Jun_13_1205_1073,stimulusWOAN27_2IFC_2019_Jun_13_1205_1074,False,2019_Jun_13_1205,2IFC,3,WOAN27,
2IFC,12,0,12,0,7.5,-1,correct answer,0.102159299888,True,False,stimulusWOAN27_2IFC_2019_Jun_13_1205_1075,stimulusWOAN27_2IFC_2019_Jun_13_1205_1076,False,2019_Jun_13_1205,2IFC,3,WOAN27,
2IFC,13,0,13,0,7.5,-1,correct answer,0.734188099857,True,False,stimulusWOAN27_2IFC_2019_Jun_13_1205_1077,stimulusWOAN27_2IFC_2019_Jun_13_1205_1078,False,2019_Jun_13_1205,2IFC,3,WOAN27,
2IFC,14,0,14,0,7.5,-1,correct answer,0.266634299885,True,False,stimulusWOAN27_2IFC_2019_Jun_13_1205_1079,stimulusWOAN27_2IFC_2019_Jun_13_1205_1080,False,2019_Jun_13_1205,2IFC,3,WOAN27,
2IFC,15,0,15,0,7.5,-1,correct answer,0.233159599826,True,False,stimulusWOAN27_2IFC_2019_Jun_13_1205_1081,stimulusWOAN27_2IFC_2019_Jun_13_1205_1082,False,2019_Jun_13_1205,2IFC,3,WOAN27,
2IFC,16,0,16,0,7.5,-1,correct answer,0.700953199994,True,False,stimulusWOAN27_2IFC_2019_Jun_13_1205_1083,stimulusWOAN27_2IFC_2019_Jun_13_1205_1084,False,2019_Jun_13_1205,2IFC,3,WOAN27,
2IFC,17,0,17,0,7.5,-1,correct answer,0.199977200013,True,False,stimulusWOAN27_2IFC_2019_Jun_13_1205_1085,stimulusWOAN27_2IFC_2019_Jun_13_1205_1086,False,2019_Jun_13_1205,2IFC,3,WOAN27,
2IFC,18,0,18,0,7.5,-1,correct answer,0.400334100006,False,True,stimulusWOAN27_2IFC_2019_Jun_13_1205_1087,stimulusWOAN27_2IFC_2019_Jun_13_1205_1088,False,2019_Jun_13_1205,2IFC,3,WOAN27,
2IFC,19,0,19,0,7.5,-1,correct answer,0.367090399843,False,True,stimulusWOAN27_2IFC_2019_Jun_13_1205_1089,stimulusWOAN27_2IFC_2019_Jun_13_1205_1090,False,2019_Jun_13_1205,2IFC,3,WOAN27,
2IFC,20,0,20,0,7.5,-1,correct answer,0.53474849998,True,False,stimulusWOAN27_2IFC_2019_Jun_13_1205_1091,stimulusWOAN27_2IFC_2019_Jun_13_1205_1092,False,2019_Jun_13_1205,2IFC,3,WOAN27,
