Task,trials.thisRepN,trials.thisTrialN,trials.thisN,trials.thisIndex,signal_intensity,constant Value,response,time_response,signal_on_stimuluspos1,signal_on_stimuluspos2,stimulus_name_pos1,stimulus_name_pos2,random_intensity,date,expName,session,participant,
Yes-No Task,0,0,0,0,3.8,-1,Miss,0.700696800137,True,-1,stimulus_WOAN27_Yes-No Task_2019_Jun_12_1534_1,-1,True,2019_Jun_12_1534,Yes-No Task,2,WOAN27,
Yes-No Task,1,0,1,0,7.5,-1,Correct Rejection,0.466121900128,False,-1,stimulus_WOAN27_Yes-No Task_2019_Jun_12_1534_2,-1,True,2019_Jun_12_1534,Yes-No Task,2,WOAN27,
Yes-No Task,2,0,2,0,10.7,-1,Hit,0.534317700192,True,-1,stimulus_WOAN27_Yes-No Task_2019_Jun_12_1534_3,-1,True,2019_Jun_12_1534,Yes-No Task,2,WOAN27,
Yes-No Task,3,0,3,0,1.4,-1,Miss,0.567355799954,True,-1,stimulus_WOAN27_Yes-No Task_2019_Jun_12_1534_4,-1,True,2019_Jun_12_1534,Yes-No Task,2,WOAN27,
Yes-No Task,4,0,4,0,3.8,-1,Correct Rejection,0.503701999784,False,-1,stimulus_WOAN27_Yes-No Task_2019_Jun_12_1534_5,-1,True,2019_Jun_12_1534,Yes-No Task,2,WOAN27,
Yes-No Task,5,0,5,0,10.7,-1,False Alarm,0.43328560004,False,-1,stimulus_WOAN27_Yes-No Task_2019_Jun_12_1534_6,-1,True,2019_Jun_12_1534,Yes-No Task,2,WOAN27,
Yes-No Task,6,0,6,0,10.7,-1,Miss,0.467884099809,True,-1,stimulus_WOAN27_Yes-No Task_2019_Jun_12_1534_7,-1,True,2019_Jun_12_1534,Yes-No Task,2,WOAN27,
Yes-No Task,7,0,7,0,7.5,-1,Correct Rejection,0.53387140017,False,-1,stimulus_WOAN27_Yes-No Task_2019_Jun_12_1534_8,-1,True,2019_Jun_12_1534,Yes-No Task,2,WOAN27,
Yes-No Task,8,0,8,0,1.4,-1,Correct Rejection,0.535628500162,False,-1,stimulus_WOAN27_Yes-No Task_2019_Jun_12_1534_9,-1,True,2019_Jun_12_1534,Yes-No Task,2,WOAN27,
Yes-No Task,9,0,9,0,14.3,-1,Correct Rejection,0.500644600019,False,-1,stimulus_WOAN27_Yes-No Task_2019_Jun_12_1534_10,-1,True,2019_Jun_12_1534,Yes-No Task,2,WOAN27,
Yes-No Task,10,0,10,0,12.4,-1,False Alarm,0.36732640001,False,-1,stimulus_WOAN27_Yes-No Task_2019_Jun_12_1534_11,-1,True,2019_Jun_12_1534,Yes-No Task,2,WOAN27,
Yes-No Task,11,0,11,0,7.5,-1,Hit,0.533475300064,True,-1,stimulus_WOAN27_Yes-No Task_2019_Jun_12_1534_12,-1,True,2019_Jun_12_1534,Yes-No Task,2,WOAN27,
Yes-No Task,12,0,12,0,14.3,-1,Hit,0.467309500091,True,-1,stimulus_WOAN27_Yes-No Task_2019_Jun_12_1534_13,-1,True,2019_Jun_12_1534,Yes-No Task,2,WOAN27,
Yes-No Task,13,0,13,0,1.4,-1,Correct Rejection,0.400416499935,False,-1,stimulus_WOAN27_Yes-No Task_2019_Jun_12_1534_14,-1,True,2019_Jun_12_1534,Yes-No Task,2,WOAN27,
Yes-No Task,14,0,14,0,12.4,-1,Correct Rejection,0.500619099941,False,-1,stimulus_WOAN27_Yes-No Task_2019_Jun_12_1534_15,-1,True,2019_Jun_12_1534,Yes-No Task,2,WOAN27,
Yes-No Task,15,0,15,0,10.7,-1,False Alarm,0.567863400094,False,-1,stimulus_WOAN27_Yes-No Task_2019_Jun_12_1534_16,-1,True,2019_Jun_12_1534,Yes-No Task,2,WOAN27,
Yes-No Task,16,0,16,0,10.7,-1,Correct Rejection,0.63397710002,False,-1,stimulus_WOAN27_Yes-No Task_2019_Jun_12_1534_17,-1,True,2019_Jun_12_1534,Yes-No Task,2,WOAN27,
Yes-No Task,17,0,17,0,1.4,-1,Miss,0.634561600164,True,-1,stimulus_WOAN27_Yes-No Task_2019_Jun_12_1534_18,-1,True,2019_Jun_12_1534,Yes-No Task,2,WOAN27,
Yes-No Task,18,0,18,0,7.5,-1,Hit,0.734069600003,True,-1,stimulus_WOAN27_Yes-No Task_2019_Jun_12_1534_19,-1,True,2019_Jun_12_1534,Yes-No Task,2,WOAN27,
Yes-No Task,19,0,19,0,5.8,-1,Correct Rejection,0.434704599902,False,-1,stimulus_WOAN27_Yes-No Task_2019_Jun_12_1534_20,-1,True,2019_Jun_12_1534,Yes-No Task,2,WOAN27,
Yes-No Task,20,0,20,0,7.5,-1,Correct Rejection,0.50062379986,False,-1,stimulus_WOAN27_Yes-No Task_2019_Jun_12_1534_21,-1,True,2019_Jun_12_1534,Yes-No Task,2,WOAN27,
Yes-No Task,21,0,21,0,3.8,-1,False Alarm,0.500170100015,False,-1,stimulus_WOAN27_Yes-No Task_2019_Jun_12_1534_22,-1,True,2019_Jun_12_1534,Yes-No Task,2,WOAN27,
Yes-No Task,22,0,22,0,3.8,-1,Miss,0.633734799922,True,-1,stimulus_WOAN27_Yes-No Task_2019_Jun_12_1534_23,-1,True,2019_Jun_12_1534,Yes-No Task,2,WOAN27,
Yes-No Task,23,0,23,0,9.1,-1,Correct Rejection,0.567013100022,False,-1,stimulus_WOAN27_Yes-No Task_2019_Jun_12_1534_24,-1,True,2019_Jun_12_1534,Yes-No Task,2,WOAN27,
Yes-No Task,24,0,24,0,10.7,-1,False Alarm,0.700789099792,False,-1,stimulus_WOAN27_Yes-No Task_2019_Jun_12_1534_25,-1,True,2019_Jun_12_1534,Yes-No Task,2,WOAN27,
Yes-No Task,25,0,25,0,14.3,-1,Correct Rejection,0.366773199989,False,-1,stimulus_WOAN27_Yes-No Task_2019_Jun_12_1534_26,-1,True,2019_Jun_12_1534,Yes-No Task,2,WOAN27,
Yes-No Task,26,0,26,0,1.4,-1,Miss,0.533606400015,True,-1,stimulus_WOAN27_Yes-No Task_2019_Jun_12_1534_27,-1,True,2019_Jun_12_1534,Yes-No Task,2,WOAN27,
Yes-No Task,27,0,27,0,10.7,-1,Correct Rejection,0.501330700004,False,-1,stimulus_WOAN27_Yes-No Task_2019_Jun_12_1534_28,-1,True,2019_Jun_12_1534,Yes-No Task,2,WOAN27,
Yes-No Task,28,0,28,0,3.8,-1,Hit,0.600491099991,True,-1,stimulus_WOAN27_Yes-No Task_2019_Jun_12_1534_29,-1,True,2019_Jun_12_1534,Yes-No Task,2,WOAN27,
Yes-No Task,29,0,29,0,12.4,-1,Correct Rejection,0.634888000088,False,-1,stimulus_WOAN27_Yes-No Task_2019_Jun_12_1534_30,-1,True,2019_Jun_12_1534,Yes-No Task,2,WOAN27,
Yes-No Task,30,0,30,0,10.7,-1,Correct Rejection,0.53355990001,False,-1,stimulus_WOAN27_Yes-No Task_2019_Jun_12_1534_31,-1,True,2019_Jun_12_1534,Yes-No Task,2,WOAN27,
Yes-No Task,31,0,31,0,5.8,-1,Correct Rejection,0.568411900196,False,-1,stimulus_WOAN27_Yes-No Task_2019_Jun_12_1534_32,-1,True,2019_Jun_12_1534,Yes-No Task,2,WOAN27,
Yes-No Task,32,0,32,0,1.4,-1,Miss,0.6344351999,True,-1,stimulus_WOAN27_Yes-No Task_2019_Jun_12_1534_33,-1,True,2019_Jun_12_1534,Yes-No Task,2,WOAN27,
Yes-No Task,33,0,33,0,9.1,-1,Correct Rejection,0.50048360019,False,-1,stimulus_WOAN27_Yes-No Task_2019_Jun_12_1534_34,-1,True,2019_Jun_12_1534,Yes-No Task,2,WOAN27,
Yes-No Task,34,0,34,0,7.5,-1,False Alarm,0.534392199945,False,-1,stimulus_WOAN27_Yes-No Task_2019_Jun_12_1534_35,-1,True,2019_Jun_12_1534,Yes-No Task,2,WOAN27,
Yes-No Task,35,0,35,0,1.4,-1,Correct Rejection,0.566742999945,False,-1,stimulus_WOAN27_Yes-No Task_2019_Jun_12_1534_36,-1,True,2019_Jun_12_1534,Yes-No Task,2,WOAN27,
Yes-No Task,36,0,36,0,7.5,-1,Miss,0.434665599838,True,-1,stimulus_WOAN27_Yes-No Task_2019_Jun_12_1534_37,-1,True,2019_Jun_12_1534,Yes-No Task,2,WOAN27,
Yes-No Task,37,0,37,0,14.3,-1,Hit,0.631666000001,True,-1,stimulus_WOAN27_Yes-No Task_2019_Jun_12_1534_38,-1,True,2019_Jun_12_1534,Yes-No Task,2,WOAN27,
Yes-No Task,38,0,38,0,1.4,-1,Correct Rejection,0.433827100089,False,-1,stimulus_WOAN27_Yes-No Task_2019_Jun_12_1534_39,-1,True,2019_Jun_12_1534,Yes-No Task,2,WOAN27,
Yes-No Task,39,0,39,0,14.3,-1,Correct Rejection,0.601280800067,False,-1,stimulus_WOAN27_Yes-No Task_2019_Jun_12_1534_40,-1,True,2019_Jun_12_1534,Yes-No Task,2,WOAN27,
Yes-No Task,40,0,40,0,9.1,-1,Correct Rejection,0.566211200086,False,-1,stimulus_WOAN27_Yes-No Task_2019_Jun_12_1534_41,-1,True,2019_Jun_12_1534,Yes-No Task,2,WOAN27,
Yes-No Task,41,0,41,0,3.8,-1,False Alarm,0.435673500178,False,-1,stimulus_WOAN27_Yes-No Task_2019_Jun_12_1534_42,-1,True,2019_Jun_12_1534,Yes-No Task,2,WOAN27,
Yes-No Task,42,0,42,0,3.8,-1,Hit,0.632987899939,True,-1,stimulus_WOAN27_Yes-No Task_2019_Jun_12_1534_43,-1,True,2019_Jun_12_1534,Yes-No Task,2,WOAN27,
Yes-No Task,43,0,43,0,3.8,-1,Miss,0.73387100012,True,-1,stimulus_WOAN27_Yes-No Task_2019_Jun_12_1534_44,-1,True,2019_Jun_12_1534,Yes-No Task,2,WOAN27,
Yes-No Task,44,0,44,0,12.4,-1,Hit,0.467469499912,True,-1,stimulus_WOAN27_Yes-No Task_2019_Jun_12_1534_45,-1,True,2019_Jun_12_1534,Yes-No Task,2,WOAN27,
Yes-No Task,45,0,45,0,12.4,-1,Correct Rejection,0.800732600037,False,-1,stimulus_WOAN27_Yes-No Task_2019_Jun_12_1534_46,-1,True,2019_Jun_12_1534,Yes-No Task,2,WOAN27,
Yes-No Task,46,0,46,0,5.8,-1,Correct Rejection,0.534069300164,False,-1,stimulus_WOAN27_Yes-No Task_2019_Jun_12_1534_47,-1,True,2019_Jun_12_1534,Yes-No Task,2,WOAN27,
Yes-No Task,47,0,47,0,10.7,-1,Correct Rejection,0.595733500086,False,-1,stimulus_WOAN27_Yes-No Task_2019_Jun_12_1534_48,-1,True,2019_Jun_12_1534,Yes-No Task,2,WOAN27,
Yes-No Task,48,0,48,0,5.8,-1,Hit,0.503286899999,True,-1,stimulus_WOAN27_Yes-No Task_2019_Jun_12_1534_49,-1,True,2019_Jun_12_1534,Yes-No Task,2,WOAN27,
Yes-No Task,49,0,49,0,14.3,-1,Hit,0.56707479991,True,-1,stimulus_WOAN27_Yes-No Task_2019_Jun_12_1534_50,-1,True,2019_Jun_12_1534,Yes-No Task,2,WOAN27,
Yes-No Task,50,0,50,0,5.8,-1,Miss,0.433786500013,True,-1,stimulus_WOAN27_Yes-No Task_2019_Jun_12_1534_51,-1,True,2019_Jun_12_1534,Yes-No Task,2,WOAN27,
Yes-No Task,51,0,51,0,9.1,-1,Correct Rejection,0.599466299871,False,-1,stimulus_WOAN27_Yes-No Task_2019_Jun_12_1534_52,-1,True,2019_Jun_12_1534,Yes-No Task,2,WOAN27,
Yes-No Task,52,0,52,0,9.1,-1,Correct Rejection,0.601111600175,False,-1,stimulus_WOAN27_Yes-No Task_2019_Jun_12_1534_53,-1,True,2019_Jun_12_1534,Yes-No Task,2,WOAN27,
Yes-No Task,53,0,53,0,7.5,-1,False Alarm,0.503802099964,False,-1,stimulus_WOAN27_Yes-No Task_2019_Jun_12_1534_54,-1,True,2019_Jun_12_1534,Yes-No Task,2,WOAN27,
Yes-No Task,54,0,54,0,5.8,-1,Correct Rejection,0.430682200007,False,-1,stimulus_WOAN27_Yes-No Task_2019_Jun_12_1534_55,-1,True,2019_Jun_12_1534,Yes-No Task,2,WOAN27,
Yes-No Task,55,0,55,0,5.8,-1,Correct Rejection,0.500851299847,False,-1,stimulus_WOAN27_Yes-No Task_2019_Jun_12_1534_56,-1,True,2019_Jun_12_1534,Yes-No Task,2,WOAN27,
Yes-No Task,56,0,56,0,1.4,-1,Correct Rejection,0.466523600044,False,-1,stimulus_WOAN27_Yes-No Task_2019_Jun_12_1534_57,-1,True,2019_Jun_12_1534,Yes-No Task,2,WOAN27,
Yes-No Task,57,0,57,0,1.4,-1,Correct Rejection,0.434265099932,False,-1,stimulus_WOAN27_Yes-No Task_2019_Jun_12_1534_58,-1,True,2019_Jun_12_1534,Yes-No Task,2,WOAN27,
Yes-No Task,58,0,58,0,7.5,-1,Correct Rejection,0.432923000073,False,-1,stimulus_WOAN27_Yes-No Task_2019_Jun_12_1534_59,-1,True,2019_Jun_12_1534,Yes-No Task,2,WOAN27,
Yes-No Task,59,0,59,0,12.4,-1,Hit,0.499939200003,True,-1,stimulus_WOAN27_Yes-No Task_2019_Jun_12_1534_60,-1,True,2019_Jun_12_1534,Yes-No Task,2,WOAN27,
Yes-No Task,60,0,60,0,10.7,-1,Hit,0.500032100128,True,-1,stimulus_WOAN27_Yes-No Task_2019_Jun_12_1534_61,-1,True,2019_Jun_12_1534,Yes-No Task,2,WOAN27,
Yes-No Task,61,0,61,0,12.4,-1,Hit,0.468129899818,True,-1,stimulus_WOAN27_Yes-No Task_2019_Jun_12_1534_62,-1,True,2019_Jun_12_1534,Yes-No Task,2,WOAN27,
Yes-No Task,62,0,62,0,9.1,-1,Hit,0.433688100195,True,-1,stimulus_WOAN27_Yes-No Task_2019_Jun_12_1534_63,-1,True,2019_Jun_12_1534,Yes-No Task,2,WOAN27,
Yes-No Task,63,0,63,0,12.4,-1,Correct Rejection,0.467100099893,False,-1,stimulus_WOAN27_Yes-No Task_2019_Jun_12_1534_64,-1,True,2019_Jun_12_1534,Yes-No Task,2,WOAN27,
Yes-No Task,64,0,64,0,12.4,-1,Hit,0.433002699865,True,-1,stimulus_WOAN27_Yes-No Task_2019_Jun_12_1534_65,-1,True,2019_Jun_12_1534,Yes-No Task,2,WOAN27,
Yes-No Task,65,0,65,0,14.3,-1,Hit,0.467260400066,True,-1,stimulus_WOAN27_Yes-No Task_2019_Jun_12_1534_66,-1,True,2019_Jun_12_1534,Yes-No Task,2,WOAN27,
Yes-No Task,66,0,66,0,14.3,-1,Hit,0.435039700009,True,-1,stimulus_WOAN27_Yes-No Task_2019_Jun_12_1534_67,-1,True,2019_Jun_12_1534,Yes-No Task,2,WOAN27,
Yes-No Task,67,0,67,0,5.8,-1,Hit,0.40144019993,True,-1,stimulus_WOAN27_Yes-No Task_2019_Jun_12_1534_68,-1,True,2019_Jun_12_1534,Yes-No Task,2,WOAN27,
Yes-No Task,68,0,68,0,7.5,-1,Hit,0.434542899951,True,-1,stimulus_WOAN27_Yes-No Task_2019_Jun_12_1534_69,-1,True,2019_Jun_12_1534,Yes-No Task,2,WOAN27,
Yes-No Task,69,0,69,0,14.3,-1,Correct Rejection,0.53415010008,False,-1,stimulus_WOAN27_Yes-No Task_2019_Jun_12_1534_70,-1,True,2019_Jun_12_1534,Yes-No Task,2,WOAN27,
Yes-No Task,70,0,70,0,14.3,-1,Correct Rejection,0.56737659988,False,-1,stimulus_WOAN27_Yes-No Task_2019_Jun_12_1534_71,-1,True,2019_Jun_12_1534,Yes-No Task,2,WOAN27,
Yes-No Task,71,0,71,0,9.1,-1,Hit,0.433898300165,True,-1,stimulus_WOAN27_Yes-No Task_2019_Jun_12_1534_72,-1,True,2019_Jun_12_1534,Yes-No Task,2,WOAN27,
Yes-No Task,72,0,72,0,14.3,-1,Hit,0.400663500186,True,-1,stimulus_WOAN27_Yes-No Task_2019_Jun_12_1534_73,-1,True,2019_Jun_12_1534,Yes-No Task,2,WOAN27,
Yes-No Task,73,0,73,0,3.8,-1,Miss,0.433746899944,True,-1,stimulus_WOAN27_Yes-No Task_2019_Jun_12_1534_74,-1,True,2019_Jun_12_1534,Yes-No Task,2,WOAN27,
Yes-No Task,74,0,74,0,10.7,-1,Correct Rejection,0.49853569991,False,-1,stimulus_WOAN27_Yes-No Task_2019_Jun_12_1534_75,-1,True,2019_Jun_12_1534,Yes-No Task,2,WOAN27,
Yes-No Task,0,0,0,0,12.4,-1,No Answer,-1,True,-1,stimulus_WOAN27_Yes-No Task_2019_Jun_12_1534_76,-1,True,2019_Jun_12_1534,Yes-No Task,2,WOAN27,
Yes-No Task,1,0,1,0,3.8,-1,Correct Rejection,0.433842499973,False,-1,stimulus_WOAN27_Yes-No Task_2019_Jun_12_1534_77,-1,True,2019_Jun_12_1534,Yes-No Task,2,WOAN27,
Yes-No Task,2,0,2,0,12.4,-1,Hit,0.50097890012,True,-1,stimulus_WOAN27_Yes-No Task_2019_Jun_12_1534_78,-1,True,2019_Jun_12_1534,Yes-No Task,2,WOAN27,
Yes-No Task,3,0,3,0,10.7,-1,Correct Rejection,0.400285499869,False,-1,stimulus_WOAN27_Yes-No Task_2019_Jun_12_1534_79,-1,True,2019_Jun_12_1534,Yes-No Task,2,WOAN27,
Yes-No Task,4,0,4,0,12.4,-1,Hit,0.631721599959,True,-1,stimulus_WOAN27_Yes-No Task_2019_Jun_12_1534_80,-1,True,2019_Jun_12_1534,Yes-No Task,2,WOAN27,
Yes-No Task,5,0,5,0,1.4,-1,Miss,0.43380749994,True,-1,stimulus_WOAN27_Yes-No Task_2019_Jun_12_1534_81,-1,True,2019_Jun_12_1534,Yes-No Task,2,WOAN27,
Yes-No Task,6,0,6,0,1.4,-1,Miss,0.401209700154,True,-1,stimulus_WOAN27_Yes-No Task_2019_Jun_12_1534_82,-1,True,2019_Jun_12_1534,Yes-No Task,2,WOAN27,
Yes-No Task,7,0,7,0,5.8,-1,Correct Rejection,0.400695000077,False,-1,stimulus_WOAN27_Yes-No Task_2019_Jun_12_1534_83,-1,True,2019_Jun_12_1534,Yes-No Task,2,WOAN27,
Yes-No Task,8,0,8,0,1.4,-1,Miss,0.402112300042,True,-1,stimulus_WOAN27_Yes-No Task_2019_Jun_12_1534_84,-1,True,2019_Jun_12_1534,Yes-No Task,2,WOAN27,
Yes-No Task,9,0,9,0,12.4,-1,Correct Rejection,0.401280800113,False,-1,stimulus_WOAN27_Yes-No Task_2019_Jun_12_1534_85,-1,True,2019_Jun_12_1534,Yes-No Task,2,WOAN27,
Yes-No Task,10,0,10,0,1.4,-1,Miss,0.500543300062,True,-1,stimulus_WOAN27_Yes-No Task_2019_Jun_12_1534_86,-1,True,2019_Jun_12_1534,Yes-No Task,2,WOAN27,
Yes-No Task,11,0,11,0,5.8,-1,Hit,0.633673300035,True,-1,stimulus_WOAN27_Yes-No Task_2019_Jun_12_1534_87,-1,True,2019_Jun_12_1534,Yes-No Task,2,WOAN27,
Yes-No Task,12,0,12,0,7.5,-1,False Alarm,0.466323200148,False,-1,stimulus_WOAN27_Yes-No Task_2019_Jun_12_1534_88,-1,True,2019_Jun_12_1534,Yes-No Task,2,WOAN27,
Yes-No Task,13,0,13,0,9.1,-1,Correct Rejection,0.402326700045,False,-1,stimulus_WOAN27_Yes-No Task_2019_Jun_12_1534_89,-1,True,2019_Jun_12_1534,Yes-No Task,2,WOAN27,
Yes-No Task,14,0,14,0,1.4,-1,Miss,0.434120000107,True,-1,stimulus_WOAN27_Yes-No Task_2019_Jun_12_1534_90,-1,True,2019_Jun_12_1534,Yes-No Task,2,WOAN27,
Yes-No Task,15,0,15,0,10.7,-1,Correct Rejection,0.53390060016,False,-1,stimulus_WOAN27_Yes-No Task_2019_Jun_12_1534_91,-1,True,2019_Jun_12_1534,Yes-No Task,2,WOAN27,
Yes-No Task,16,0,16,0,7.5,-1,Correct Rejection,0.767264600145,False,-1,stimulus_WOAN27_Yes-No Task_2019_Jun_12_1534_92,-1,True,2019_Jun_12_1534,Yes-No Task,2,WOAN27,
Yes-No Task,17,0,17,0,5.8,-1,Hit,0.534035900142,True,-1,stimulus_WOAN27_Yes-No Task_2019_Jun_12_1534_93,-1,True,2019_Jun_12_1534,Yes-No Task,2,WOAN27,
Yes-No Task,18,0,18,0,3.8,-1,Hit,0.601194199873,True,-1,stimulus_WOAN27_Yes-No Task_2019_Jun_12_1534_94,-1,True,2019_Jun_12_1534,Yes-No Task,2,WOAN27,
Yes-No Task,19,0,19,0,12.4,-1,Correct Rejection,0.500334500102,False,-1,stimulus_WOAN27_Yes-No Task_2019_Jun_12_1534_95,-1,True,2019_Jun_12_1534,Yes-No Task,2,WOAN27,
Yes-No Task,20,0,20,0,10.7,-1,False Alarm,0.367289799964,False,-1,stimulus_WOAN27_Yes-No Task_2019_Jun_12_1534_96,-1,True,2019_Jun_12_1534,Yes-No Task,2,WOAN27,
Yes-No Task,21,0,21,0,3.8,-1,Correct Rejection,0.567622799892,False,-1,stimulus_WOAN27_Yes-No Task_2019_Jun_12_1534_97,-1,True,2019_Jun_12_1534,Yes-No Task,2,WOAN27,
Yes-No Task,22,0,22,0,9.1,-1,Hit,0.468646100024,True,-1,stimulus_WOAN27_Yes-No Task_2019_Jun_12_1534_98,-1,True,2019_Jun_12_1534,Yes-No Task,2,WOAN27,
Yes-No Task,23,0,23,0,1.4,-1,Correct Rejection,0.40172630013,False,-1,stimulus_WOAN27_Yes-No Task_2019_Jun_12_1534_99,-1,True,2019_Jun_12_1534,Yes-No Task,2,WOAN27,
Yes-No Task,24,0,24,0,7.5,-1,Correct Rejection,0.466421899851,False,-1,stimulus_WOAN27_Yes-No Task_2019_Jun_12_1534_100,-1,True,2019_Jun_12_1534,Yes-No Task,2,WOAN27,
Yes-No Task,25,0,25,0,10.7,-1,Correct Rejection,0.500595200108,False,-1,stimulus_WOAN27_Yes-No Task_2019_Jun_12_1534_101,-1,True,2019_Jun_12_1534,Yes-No Task,2,WOAN27,
Yes-No Task,26,0,26,0,3.8,-1,Correct Rejection,0.467256000033,False,-1,stimulus_WOAN27_Yes-No Task_2019_Jun_12_1534_102,-1,True,2019_Jun_12_1534,Yes-No Task,2,WOAN27,
Yes-No Task,27,0,27,0,1.4,-1,Miss,0.499996399973,True,-1,stimulus_WOAN27_Yes-No Task_2019_Jun_12_1534_103,-1,True,2019_Jun_12_1534,Yes-No Task,2,WOAN27,
Yes-No Task,28,0,28,0,12.4,-1,Hit,0.433745899936,True,-1,stimulus_WOAN27_Yes-No Task_2019_Jun_12_1534_104,-1,True,2019_Jun_12_1534,Yes-No Task,2,WOAN27,
Yes-No Task,29,0,29,0,9.1,-1,Hit,0.400506600039,True,-1,stimulus_WOAN27_Yes-No Task_2019_Jun_12_1534_105,-1,True,2019_Jun_12_1534,Yes-No Task,2,WOAN27,
Yes-No Task,30,0,30,0,12.4,-1,Hit,0.366966600064,True,-1,stimulus_WOAN27_Yes-No Task_2019_Jun_12_1534_106,-1,True,2019_Jun_12_1534,Yes-No Task,2,WOAN27,
Yes-No Task,31,0,31,0,7.5,-1,Correct Rejection,0.533131300006,False,-1,stimulus_WOAN27_Yes-No Task_2019_Jun_12_1534_107,-1,True,2019_Jun_12_1534,Yes-No Task,2,WOAN27,
Yes-No Task,32,0,32,0,12.4,-1,Correct Rejection,0.465806300053,False,-1,stimulus_WOAN27_Yes-No Task_2019_Jun_12_1534_108,-1,True,2019_Jun_12_1534,Yes-No Task,2,WOAN27,
Yes-No Task,33,0,33,0,10.7,-1,False Alarm,0.433600000106,False,-1,stimulus_WOAN27_Yes-No Task_2019_Jun_12_1534_109,-1,True,2019_Jun_12_1534,Yes-No Task,2,WOAN27,
Yes-No Task,34,0,34,0,3.8,-1,Correct Rejection,0.36700530001,False,-1,stimulus_WOAN27_Yes-No Task_2019_Jun_12_1534_110,-1,True,2019_Jun_12_1534,Yes-No Task,2,WOAN27,
Yes-No Task,35,0,35,0,5.8,-1,Correct Rejection,0.434192799963,False,-1,stimulus_WOAN27_Yes-No Task_2019_Jun_12_1534_111,-1,True,2019_Jun_12_1534,Yes-No Task,2,WOAN27,
Yes-No Task,36,0,36,0,10.7,-1,Hit,0.535117199877,True,-1,stimulus_WOAN27_Yes-No Task_2019_Jun_12_1534_112,-1,True,2019_Jun_12_1534,Yes-No Task,2,WOAN27,
Yes-No Task,37,0,37,0,14.3,-1,Hit,0.399268099805,True,-1,stimulus_WOAN27_Yes-No Task_2019_Jun_12_1534_113,-1,True,2019_Jun_12_1534,Yes-No Task,2,WOAN27,
Yes-No Task,38,0,38,0,12.4,-1,False Alarm,0.433789799921,False,-1,stimulus_WOAN27_Yes-No Task_2019_Jun_12_1534_114,-1,True,2019_Jun_12_1534,Yes-No Task,2,WOAN27,
Yes-No Task,39,0,39,0,5.8,-1,Correct Rejection,0.367158500012,False,-1,stimulus_WOAN27_Yes-No Task_2019_Jun_12_1534_115,-1,True,2019_Jun_12_1534,Yes-No Task,2,WOAN27,
Yes-No Task,40,0,40,0,10.7,-1,Hit,0.468397600111,True,-1,stimulus_WOAN27_Yes-No Task_2019_Jun_12_1534_116,-1,True,2019_Jun_12_1534,Yes-No Task,2,WOAN27,
Yes-No Task,41,0,41,0,7.5,-1,Miss,0.366995000048,True,-1,stimulus_WOAN27_Yes-No Task_2019_Jun_12_1534_117,-1,True,2019_Jun_12_1534,Yes-No Task,2,WOAN27,
Yes-No Task,42,0,42,0,3.8,-1,Hit,0.433037200011,True,-1,stimulus_WOAN27_Yes-No Task_2019_Jun_12_1534_118,-1,True,2019_Jun_12_1534,Yes-No Task,2,WOAN27,
Yes-No Task,43,0,43,0,9.1,-1,Miss,0.467686799821,True,-1,stimulus_WOAN27_Yes-No Task_2019_Jun_12_1534_119,-1,True,2019_Jun_12_1534,Yes-No Task,2,WOAN27,
Yes-No Task,44,0,44,0,10.7,-1,Correct Rejection,0.534142000135,False,-1,stimulus_WOAN27_Yes-No Task_2019_Jun_12_1534_120,-1,True,2019_Jun_12_1534,Yes-No Task,2,WOAN27,
Yes-No Task,45,0,45,0,3.8,-1,Hit,0.634225300048,True,-1,stimulus_WOAN27_Yes-No Task_2019_Jun_12_1534_121,-1,True,2019_Jun_12_1534,Yes-No Task,2,WOAN27,
Yes-No Task,46,0,46,0,12.4,-1,Hit,0.534067600034,True,-1,stimulus_WOAN27_Yes-No Task_2019_Jun_12_1534_122,-1,True,2019_Jun_12_1534,Yes-No Task,2,WOAN27,
Yes-No Task,47,0,47,0,1.4,-1,Miss,0.534891600022,True,-1,stimulus_WOAN27_Yes-No Task_2019_Jun_12_1534_123,-1,True,2019_Jun_12_1534,Yes-No Task,2,WOAN27,
Yes-No Task,48,0,48,0,5.8,-1,Miss,0.399883799953,True,-1,stimulus_WOAN27_Yes-No Task_2019_Jun_12_1534_124,-1,True,2019_Jun_12_1534,Yes-No Task,2,WOAN27,
Yes-No Task,49,0,49,0,7.5,-1,Hit,0.466447799932,True,-1,stimulus_WOAN27_Yes-No Task_2019_Jun_12_1534_125,-1,True,2019_Jun_12_1534,Yes-No Task,2,WOAN27,
Yes-No Task,50,0,50,0,9.1,-1,False Alarm,0.467574900016,False,-1,stimulus_WOAN27_Yes-No Task_2019_Jun_12_1534_126,-1,True,2019_Jun_12_1534,Yes-No Task,2,WOAN27,
Yes-No Task,51,0,51,0,1.4,-1,Correct Rejection,0.467282199999,False,-1,stimulus_WOAN27_Yes-No Task_2019_Jun_12_1534_127,-1,True,2019_Jun_12_1534,Yes-No Task,2,WOAN27,
Yes-No Task,52,0,52,0,14.3,-1,Correct Rejection,0.567723299842,False,-1,stimulus_WOAN27_Yes-No Task_2019_Jun_12_1534_128,-1,True,2019_Jun_12_1534,Yes-No Task,2,WOAN27,
Yes-No Task,53,0,53,0,3.8,-1,Correct Rejection,0.800867500016,False,-1,stimulus_WOAN27_Yes-No Task_2019_Jun_12_1534_129,-1,True,2019_Jun_12_1534,Yes-No Task,2,WOAN27,
Yes-No Task,54,0,54,0,14.3,-1,Correct Rejection,0.468287499854,False,-1,stimulus_WOAN27_Yes-No Task_2019_Jun_12_1534_130,-1,True,2019_Jun_12_1534,Yes-No Task,2,WOAN27,
Yes-No Task,55,0,55,0,12.4,-1,Correct Rejection,0.467425000155,False,-1,stimulus_WOAN27_Yes-No Task_2019_Jun_12_1534_131,-1,True,2019_Jun_12_1534,Yes-No Task,2,WOAN27,
Yes-No Task,56,0,56,0,10.7,-1,Correct Rejection,0.433607000159,False,-1,stimulus_WOAN27_Yes-No Task_2019_Jun_12_1534_132,-1,True,2019_Jun_12_1534,Yes-No Task,2,WOAN27,
Yes-No Task,57,0,57,0,3.8,-1,Hit,0.399590199813,True,-1,stimulus_WOAN27_Yes-No Task_2019_Jun_12_1534_133,-1,True,2019_Jun_12_1534,Yes-No Task,2,WOAN27,
Yes-No Task,58,0,58,0,10.7,-1,Correct Rejection,0.434768100036,False,-1,stimulus_WOAN27_Yes-No Task_2019_Jun_12_1534_134,-1,True,2019_Jun_12_1534,Yes-No Task,2,WOAN27,
Yes-No Task,59,0,59,0,1.4,-1,Miss,0.433877599891,True,-1,stimulus_WOAN27_Yes-No Task_2019_Jun_12_1534_135,-1,True,2019_Jun_12_1534,Yes-No Task,2,WOAN27,
Yes-No Task,60,0,60,0,7.5,-1,Hit,0.466241799993,True,-1,stimulus_WOAN27_Yes-No Task_2019_Jun_12_1534_136,-1,True,2019_Jun_12_1534,Yes-No Task,2,WOAN27,
Yes-No Task,61,0,61,0,7.5,-1,Hit,0.633811499923,True,-1,stimulus_WOAN27_Yes-No Task_2019_Jun_12_1534_137,-1,True,2019_Jun_12_1534,Yes-No Task,2,WOAN27,
Yes-No Task,62,0,62,0,1.4,-1,Correct Rejection,0.501168600051,False,-1,stimulus_WOAN27_Yes-No Task_2019_Jun_12_1534_138,-1,True,2019_Jun_12_1534,Yes-No Task,2,WOAN27,
Yes-No Task,63,0,63,0,3.8,-1,Correct Rejection,0.433295400115,False,-1,stimulus_WOAN27_Yes-No Task_2019_Jun_12_1534_139,-1,True,2019_Jun_12_1534,Yes-No Task,2,WOAN27,
Yes-No Task,64,0,64,0,12.4,-1,Hit,0.433828500099,True,-1,stimulus_WOAN27_Yes-No Task_2019_Jun_12_1534_140,-1,True,2019_Jun_12_1534,Yes-No Task,2,WOAN27,
Yes-No Task,65,0,65,0,3.8,-1,Correct Rejection,0.533282800112,False,-1,stimulus_WOAN27_Yes-No Task_2019_Jun_12_1534_141,-1,True,2019_Jun_12_1534,Yes-No Task,2,WOAN27,
Yes-No Task,66,0,66,0,1.4,-1,Hit,0.533654499799,True,-1,stimulus_WOAN27_Yes-No Task_2019_Jun_12_1534_142,-1,True,2019_Jun_12_1534,Yes-No Task,2,WOAN27,
Yes-No Task,67,0,67,0,5.8,-1,Correct Rejection,0.632733700098,False,-1,stimulus_WOAN27_Yes-No Task_2019_Jun_12_1534_143,-1,True,2019_Jun_12_1534,Yes-No Task,2,WOAN27,
Yes-No Task,68,0,68,0,1.4,-1,Miss,0.533496200107,True,-1,stimulus_WOAN27_Yes-No Task_2019_Jun_12_1534_144,-1,True,2019_Jun_12_1534,Yes-No Task,2,WOAN27,
Yes-No Task,69,0,69,0,3.8,-1,Miss,0.400445100153,True,-1,stimulus_WOAN27_Yes-No Task_2019_Jun_12_1534_145,-1,True,2019_Jun_12_1534,Yes-No Task,2,WOAN27,
Yes-No Task,70,0,70,0,1.4,-1,Correct Rejection,0.500465300167,False,-1,stimulus_WOAN27_Yes-No Task_2019_Jun_12_1534_146,-1,True,2019_Jun_12_1534,Yes-No Task,2,WOAN27,
Yes-No Task,71,0,71,0,7.5,-1,False Alarm,0.433893300127,False,-1,stimulus_WOAN27_Yes-No Task_2019_Jun_12_1534_147,-1,True,2019_Jun_12_1534,Yes-No Task,2,WOAN27,
Yes-No Task,72,0,72,0,7.5,-1,Correct Rejection,0.36863199994,False,-1,stimulus_WOAN27_Yes-No Task_2019_Jun_12_1534_148,-1,True,2019_Jun_12_1534,Yes-No Task,2,WOAN27,
Yes-No Task,73,0,73,0,10.7,-1,Correct Rejection,0.399954600027,False,-1,stimulus_WOAN27_Yes-No Task_2019_Jun_12_1534_149,-1,True,2019_Jun_12_1534,Yes-No Task,2,WOAN27,
Yes-No Task,74,0,74,0,5.8,-1,Correct Rejection,0.401053899899,False,-1,stimulus_WOAN27_Yes-No Task_2019_Jun_12_1534_150,-1,True,2019_Jun_12_1534,Yes-No Task,2,WOAN27,
Yes-No Task,0,0,0,0,7.5,-1,No Answer,-1,False,-1,stimulus_WOAN27_Yes-No Task_2019_Jun_12_1534_151,-1,True,2019_Jun_12_1534,Yes-No Task,2,WOAN27,
Yes-No Task,1,0,1,0,9.1,-1,Miss,0.033407199895,True,-1,stimulus_WOAN27_Yes-No Task_2019_Jun_12_1534_152,-1,True,2019_Jun_12_1534,Yes-No Task,2,WOAN27,
Yes-No Task,2,0,2,0,5.8,-1,Correct Rejection,0.500453100074,False,-1,stimulus_WOAN27_Yes-No Task_2019_Jun_12_1534_153,-1,True,2019_Jun_12_1534,Yes-No Task,2,WOAN27,
Yes-No Task,3,0,3,0,9.1,-1,Hit,0.500681600068,True,-1,stimulus_WOAN27_Yes-No Task_2019_Jun_12_1534_154,-1,True,2019_Jun_12_1534,Yes-No Task,2,WOAN27,
Yes-No Task,4,0,4,0,14.3,-1,Hit,0.467595599825,True,-1,stimulus_WOAN27_Yes-No Task_2019_Jun_12_1534_155,-1,True,2019_Jun_12_1534,Yes-No Task,2,WOAN27,
Yes-No Task,5,0,5,0,3.8,-1,Correct Rejection,0.434003300034,False,-1,stimulus_WOAN27_Yes-No Task_2019_Jun_12_1534_156,-1,True,2019_Jun_12_1534,Yes-No Task,2,WOAN27,
Yes-No Task,6,0,6,0,7.5,-1,Correct Rejection,0.40054120007,False,-1,stimulus_WOAN27_Yes-No Task_2019_Jun_12_1534_157,-1,True,2019_Jun_12_1534,Yes-No Task,2,WOAN27,
Yes-No Task,7,0,7,0,9.1,-1,Correct Rejection,0.500382000115,False,-1,stimulus_WOAN27_Yes-No Task_2019_Jun_12_1534_158,-1,True,2019_Jun_12_1534,Yes-No Task,2,WOAN27,
Yes-No Task,8,0,8,0,3.8,-1,Miss,0.401212200057,True,-1,stimulus_WOAN27_Yes-No Task_2019_Jun_12_1534_159,-1,True,2019_Jun_12_1534,Yes-No Task,2,WOAN27,
Yes-No Task,9,0,9,0,3.8,-1,Miss,0.334390899865,True,-1,stimulus_WOAN27_Yes-No Task_2019_Jun_12_1534_160,-1,True,2019_Jun_12_1534,Yes-No Task,2,WOAN27,
Yes-No Task,10,0,10,0,10.7,-1,Miss,0.369424500037,True,-1,stimulus_WOAN27_Yes-No Task_2019_Jun_12_1534_161,-1,True,2019_Jun_12_1534,Yes-No Task,2,WOAN27,
Yes-No Task,11,0,11,0,7.5,-1,Correct Rejection,0.366334300023,False,-1,stimulus_WOAN27_Yes-No Task_2019_Jun_12_1534_162,-1,True,2019_Jun_12_1534,Yes-No Task,2,WOAN27,
Yes-No Task,12,0,12,0,7.5,-1,Correct Rejection,0.433822499821,False,-1,stimulus_WOAN27_Yes-No Task_2019_Jun_12_1534_163,-1,True,2019_Jun_12_1534,Yes-No Task,2,WOAN27,
Yes-No Task,13,0,13,0,14.3,-1,False Alarm,0.399769000011,False,-1,stimulus_WOAN27_Yes-No Task_2019_Jun_12_1534_164,-1,True,2019_Jun_12_1534,Yes-No Task,2,WOAN27,
Yes-No Task,14,0,14,0,3.8,-1,No Answer,-1,False,-1,stimulus_WOAN27_Yes-No Task_2019_Jun_12_1534_165,-1,True,2019_Jun_12_1534,Yes-No Task,2,WOAN27,
Yes-No Task,15,0,15,0,5.8,-1,Correct Rejection,0.56758640008,False,-1,stimulus_WOAN27_Yes-No Task_2019_Jun_12_1534_166,-1,True,2019_Jun_12_1534,Yes-No Task,2,WOAN27,
Yes-No Task,16,0,16,0,7.5,-1,Correct Rejection,0.466625100002,False,-1,stimulus_WOAN27_Yes-No Task_2019_Jun_12_1534_167,-1,True,2019_Jun_12_1534,Yes-No Task,2,WOAN27,
Yes-No Task,17,0,17,0,5.8,-1,Hit,0.667185900034,True,-1,stimulus_WOAN27_Yes-No Task_2019_Jun_12_1534_168,-1,True,2019_Jun_12_1534,Yes-No Task,2,WOAN27,
Yes-No Task,18,0,18,0,1.4,-1,Miss,0.400910200085,True,-1,stimulus_WOAN27_Yes-No Task_2019_Jun_12_1534_169,-1,True,2019_Jun_12_1534,Yes-No Task,2,WOAN27,
Yes-No Task,19,0,19,0,9.1,-1,Hit,0.467188099865,True,-1,stimulus_WOAN27_Yes-No Task_2019_Jun_12_1534_170,-1,True,2019_Jun_12_1534,Yes-No Task,2,WOAN27,
Yes-No Task,20,0,20,0,10.7,-1,Correct Rejection,0.433524599997,False,-1,stimulus_WOAN27_Yes-No Task_2019_Jun_12_1534_171,-1,True,2019_Jun_12_1534,Yes-No Task,2,WOAN27,
Yes-No Task,21,0,21,0,14.3,-1,Correct Rejection,0.468371900031,False,-1,stimulus_WOAN27_Yes-No Task_2019_Jun_12_1534_172,-1,True,2019_Jun_12_1534,Yes-No Task,2,WOAN27,
Yes-No Task,22,0,22,0,1.4,-1,Hit,0.533946200041,True,-1,stimulus_WOAN27_Yes-No Task_2019_Jun_12_1534_173,-1,True,2019_Jun_12_1534,Yes-No Task,2,WOAN27,
Yes-No Task,23,0,23,0,12.4,-1,Correct Rejection,0.399961699964,False,-1,stimulus_WOAN27_Yes-No Task_2019_Jun_12_1534_174,-1,True,2019_Jun_12_1534,Yes-No Task,2,WOAN27,
Yes-No Task,24,0,24,0,3.8,-1,Correct Rejection,0.567279600073,False,-1,stimulus_WOAN27_Yes-No Task_2019_Jun_12_1534_175,-1,True,2019_Jun_12_1534,Yes-No Task,2,WOAN27,
Yes-No Task,25,0,25,0,7.5,-1,Hit,0.501768799964,True,-1,stimulus_WOAN27_Yes-No Task_2019_Jun_12_1534_176,-1,True,2019_Jun_12_1534,Yes-No Task,2,WOAN27,
Yes-No Task,26,0,26,0,12.4,-1,Hit,0.399211199954,True,-1,stimulus_WOAN27_Yes-No Task_2019_Jun_12_1534_177,-1,True,2019_Jun_12_1534,Yes-No Task,2,WOAN27,
Yes-No Task,27,0,27,0,14.3,-1,Hit,0.500517100096,True,-1,stimulus_WOAN27_Yes-No Task_2019_Jun_12_1534_178,-1,True,2019_Jun_12_1534,Yes-No Task,2,WOAN27,
Yes-No Task,28,0,28,0,9.1,-1,Hit,0.400544599863,True,-1,stimulus_WOAN27_Yes-No Task_2019_Jun_12_1534_179,-1,True,2019_Jun_12_1534,Yes-No Task,2,WOAN27,
Yes-No Task,29,0,29,0,9.1,-1,Correct Rejection,0.533798199845,False,-1,stimulus_WOAN27_Yes-No Task_2019_Jun_12_1534_180,-1,True,2019_Jun_12_1534,Yes-No Task,2,WOAN27,
Yes-No Task,30,0,30,0,7.5,-1,False Alarm,0.466997900046,False,-1,stimulus_WOAN27_Yes-No Task_2019_Jun_12_1534_181,-1,True,2019_Jun_12_1534,Yes-No Task,2,WOAN27,
Yes-No Task,31,0,31,0,10.7,-1,Correct Rejection,0.600262799999,False,-1,stimulus_WOAN27_Yes-No Task_2019_Jun_12_1534_182,-1,True,2019_Jun_12_1534,Yes-No Task,2,WOAN27,
Yes-No Task,32,0,32,0,1.4,-1,Correct Rejection,0.601398299914,False,-1,stimulus_WOAN27_Yes-No Task_2019_Jun_12_1534_183,-1,True,2019_Jun_12_1534,Yes-No Task,2,WOAN27,
Yes-No Task,33,0,33,0,7.5,-1,Hit,0.400237299968,True,-1,stimulus_WOAN27_Yes-No Task_2019_Jun_12_1534_184,-1,True,2019_Jun_12_1534,Yes-No Task,2,WOAN27,
Yes-No Task,34,0,34,0,9.1,-1,Hit,0.468461799901,True,-1,stimulus_WOAN27_Yes-No Task_2019_Jun_12_1534_185,-1,True,2019_Jun_12_1534,Yes-No Task,2,WOAN27,
Yes-No Task,35,0,35,0,9.1,-1,Hit,0.400054200087,True,-1,stimulus_WOAN27_Yes-No Task_2019_Jun_12_1534_186,-1,True,2019_Jun_12_1534,Yes-No Task,2,WOAN27,
Yes-No Task,36,0,36,0,12.4,-1,Correct Rejection,0.733954600058,False,-1,stimulus_WOAN27_Yes-No Task_2019_Jun_12_1534_187,-1,True,2019_Jun_12_1534,Yes-No Task,2,WOAN27,
Yes-No Task,37,0,37,0,1.4,-1,Correct Rejection,0.667653799988,False,-1,stimulus_WOAN27_Yes-No Task_2019_Jun_12_1534_188,-1,True,2019_Jun_12_1534,Yes-No Task,2,WOAN27,
Yes-No Task,38,0,38,0,3.8,-1,Miss,0.603613700019,True,-1,stimulus_WOAN27_Yes-No Task_2019_Jun_12_1534_189,-1,True,2019_Jun_12_1534,Yes-No Task,2,WOAN27,
Yes-No Task,39,0,39,0,5.8,-1,Miss,0.335125299869,True,-1,stimulus_WOAN27_Yes-No Task_2019_Jun_12_1534_190,-1,True,2019_Jun_12_1534,Yes-No Task,2,WOAN27,
Yes-No Task,40,0,40,0,12.4,-1,Correct Rejection,0.366885100026,False,-1,stimulus_WOAN27_Yes-No Task_2019_Jun_12_1534_191,-1,True,2019_Jun_12_1534,Yes-No Task,2,WOAN27,
Yes-No Task,41,0,41,0,7.5,-1,Hit,0.40096800006,True,-1,stimulus_WOAN27_Yes-No Task_2019_Jun_12_1534_192,-1,True,2019_Jun_12_1534,Yes-No Task,2,WOAN27,
Yes-No Task,42,0,42,0,14.3,-1,Correct Rejection,0.400555300061,False,-1,stimulus_WOAN27_Yes-No Task_2019_Jun_12_1534_193,-1,True,2019_Jun_12_1534,Yes-No Task,2,WOAN27,
Yes-No Task,43,0,43,0,1.4,-1,Correct Rejection,0.467325399863,False,-1,stimulus_WOAN27_Yes-No Task_2019_Jun_12_1534_194,-1,True,2019_Jun_12_1534,Yes-No Task,2,WOAN27,
Yes-No Task,44,0,44,0,5.8,-1,Hit,0.467253600014,True,-1,stimulus_WOAN27_Yes-No Task_2019_Jun_12_1534_195,-1,True,2019_Jun_12_1534,Yes-No Task,2,WOAN27,
Yes-No Task,45,0,45,0,3.8,-1,Miss,0.333971899934,True,-1,stimulus_WOAN27_Yes-No Task_2019_Jun_12_1534_196,-1,True,2019_Jun_12_1534,Yes-No Task,2,WOAN27,
Yes-No Task,46,0,46,0,12.4,-1,Miss,0.235514299944,True,-1,stimulus_WOAN27_Yes-No Task_2019_Jun_12_1534_197,-1,True,2019_Jun_12_1534,Yes-No Task,2,WOAN27,
Yes-No Task,47,0,47,0,14.3,-1,Miss,0.300715900026,True,-1,stimulus_WOAN27_Yes-No Task_2019_Jun_12_1534_198,-1,True,2019_Jun_12_1534,Yes-No Task,2,WOAN27,
Yes-No Task,48,0,48,0,10.7,-1,Miss,0.433730599936,True,-1,stimulus_WOAN27_Yes-No Task_2019_Jun_12_1534_199,-1,True,2019_Jun_12_1534,Yes-No Task,2,WOAN27,
Yes-No Task,49,0,49,0,1.4,-1,Correct Rejection,0.433617600007,False,-1,stimulus_WOAN27_Yes-No Task_2019_Jun_12_1534_200,-1,True,2019_Jun_12_1534,Yes-No Task,2,WOAN27,
Yes-No Task,50,0,50,0,12.4,-1,Hit,0.403103099903,True,-1,stimulus_WOAN27_Yes-No Task_2019_Jun_12_1534_201,-1,True,2019_Jun_12_1534,Yes-No Task,2,WOAN27,
Yes-No Task,51,0,51,0,10.7,-1,Correct Rejection,0.431991499849,False,-1,stimulus_WOAN27_Yes-No Task_2019_Jun_12_1534_202,-1,True,2019_Jun_12_1534,Yes-No Task,2,WOAN27,
Yes-No Task,52,0,52,0,12.4,-1,Correct Rejection,0.46826250013,False,-1,stimulus_WOAN27_Yes-No Task_2019_Jun_12_1534_203,-1,True,2019_Jun_12_1534,Yes-No Task,2,WOAN27,
Yes-No Task,53,0,53,0,9.1,-1,Correct Rejection,0.400019100169,False,-1,stimulus_WOAN27_Yes-No Task_2019_Jun_12_1534_204,-1,True,2019_Jun_12_1534,Yes-No Task,2,WOAN27,
Yes-No Task,54,0,54,0,14.3,-1,Hit,0.433352299966,True,-1,stimulus_WOAN27_Yes-No Task_2019_Jun_12_1534_205,-1,True,2019_Jun_12_1534,Yes-No Task,2,WOAN27,
Yes-No Task,55,0,55,0,9.1,-1,Hit,0.501178400125,True,-1,stimulus_WOAN27_Yes-No Task_2019_Jun_12_1534_206,-1,True,2019_Jun_12_1534,Yes-No Task,2,WOAN27,
Yes-No Task,56,0,56,0,12.4,-1,Correct Rejection,0.433566599851,False,-1,stimulus_WOAN27_Yes-No Task_2019_Jun_12_1534_207,-1,True,2019_Jun_12_1534,Yes-No Task,2,WOAN27,
Yes-No Task,57,0,57,0,9.1,-1,Hit,0.434648599941,True,-1,stimulus_WOAN27_Yes-No Task_2019_Jun_12_1534_208,-1,True,2019_Jun_12_1534,Yes-No Task,2,WOAN27,
Yes-No Task,58,0,58,0,12.4,-1,Hit,0.432071399875,True,-1,stimulus_WOAN27_Yes-No Task_2019_Jun_12_1534_209,-1,True,2019_Jun_12_1534,Yes-No Task,2,WOAN27,
Yes-No Task,59,0,59,0,14.3,-1,Correct Rejection,0.501147300005,False,-1,stimulus_WOAN27_Yes-No Task_2019_Jun_12_1534_210,-1,True,2019_Jun_12_1534,Yes-No Task,2,WOAN27,
Yes-No Task,60,0,60,0,14.3,-1,Hit,0.433891599998,True,-1,stimulus_WOAN27_Yes-No Task_2019_Jun_12_1534_211,-1,True,2019_Jun_12_1534,Yes-No Task,2,WOAN27,
Yes-No Task,61,0,61,0,10.7,-1,Correct Rejection,0.433727099793,False,-1,stimulus_WOAN27_Yes-No Task_2019_Jun_12_1534_212,-1,True,2019_Jun_12_1534,Yes-No Task,2,WOAN27,
Yes-No Task,62,0,62,0,5.8,-1,Correct Rejection,0.53260359983,False,-1,stimulus_WOAN27_Yes-No Task_2019_Jun_12_1534_213,-1,True,2019_Jun_12_1534,Yes-No Task,2,WOAN27,
Yes-No Task,63,0,63,0,12.4,-1,Correct Rejection,0.399998400128,False,-1,stimulus_WOAN27_Yes-No Task_2019_Jun_12_1534_214,-1,True,2019_Jun_12_1534,Yes-No Task,2,WOAN27,
Yes-No Task,64,0,64,0,1.4,-1,Miss,0.400008699857,True,-1,stimulus_WOAN27_Yes-No Task_2019_Jun_12_1534_215,-1,True,2019_Jun_12_1534,Yes-No Task,2,WOAN27,
Yes-No Task,65,0,65,0,9.1,-1,Correct Rejection,0.433801800013,False,-1,stimulus_WOAN27_Yes-No Task_2019_Jun_12_1534_216,-1,True,2019_Jun_12_1534,Yes-No Task,2,WOAN27,
Yes-No Task,66,0,66,0,5.8,-1,Correct Rejection,0.400402799947,False,-1,stimulus_WOAN27_Yes-No Task_2019_Jun_12_1534_217,-1,True,2019_Jun_12_1534,Yes-No Task,2,WOAN27,
Yes-No Task,67,0,67,0,10.7,-1,Correct Rejection,0.400463599944,False,-1,stimulus_WOAN27_Yes-No Task_2019_Jun_12_1534_218,-1,True,2019_Jun_12_1534,Yes-No Task,2,WOAN27,
Yes-No Task,68,0,68,0,9.1,-1,Hit,0.500826400006,True,-1,stimulus_WOAN27_Yes-No Task_2019_Jun_12_1534_219,-1,True,2019_Jun_12_1534,Yes-No Task,2,WOAN27,
Yes-No Task,69,0,69,0,12.4,-1,Correct Rejection,0.400275500026,False,-1,stimulus_WOAN27_Yes-No Task_2019_Jun_12_1534_220,-1,True,2019_Jun_12_1534,Yes-No Task,2,WOAN27,
Yes-No Task,70,0,70,0,14.3,-1,Correct Rejection,0.433995300205,False,-1,stimulus_WOAN27_Yes-No Task_2019_Jun_12_1534_221,-1,True,2019_Jun_12_1534,Yes-No Task,2,WOAN27,
Yes-No Task,71,0,71,0,14.3,-1,Correct Rejection,0.566495599924,False,-1,stimulus_WOAN27_Yes-No Task_2019_Jun_12_1534_222,-1,True,2019_Jun_12_1534,Yes-No Task,2,WOAN27,
Yes-No Task,72,0,72,0,14.3,-1,Hit,0.43387529999,True,-1,stimulus_WOAN27_Yes-No Task_2019_Jun_12_1534_223,-1,True,2019_Jun_12_1534,Yes-No Task,2,WOAN27,
Yes-No Task,73,0,73,0,7.5,-1,Miss,0.367573300144,True,-1,stimulus_WOAN27_Yes-No Task_2019_Jun_12_1534_224,-1,True,2019_Jun_12_1534,Yes-No Task,2,WOAN27,
Yes-No Task,74,0,74,0,10.7,-1,Correct Rejection,0.364686599933,False,-1,stimulus_WOAN27_Yes-No Task_2019_Jun_12_1534_225,-1,True,2019_Jun_12_1534,Yes-No Task,2,WOAN27,
Yes-No Task,0,0,0,0,12.4,-1,Hit,0.534073699964,True,-1,stimulus_WOAN27_Yes-No Task_2019_Jun_12_1534_226,-1,True,2019_Jun_12_1534,Yes-No Task,2,WOAN27,
Yes-No Task,1,0,1,0,12.4,-1,Hit,0.400610700017,True,-1,stimulus_WOAN27_Yes-No Task_2019_Jun_12_1534_227,-1,True,2019_Jun_12_1534,Yes-No Task,2,WOAN27,
Yes-No Task,2,0,2,0,10.7,-1,Correct Rejection,0.46722690016,False,-1,stimulus_WOAN27_Yes-No Task_2019_Jun_12_1534_228,-1,True,2019_Jun_12_1534,Yes-No Task,2,WOAN27,
Yes-No Task,3,0,3,0,10.7,-1,Correct Rejection,0.534466200043,False,-1,stimulus_WOAN27_Yes-No Task_2019_Jun_12_1534_229,-1,True,2019_Jun_12_1534,Yes-No Task,2,WOAN27,
Yes-No Task,4,0,4,0,1.4,-1,False Alarm,0.434108000016,False,-1,stimulus_WOAN27_Yes-No Task_2019_Jun_12_1534_230,-1,True,2019_Jun_12_1534,Yes-No Task,2,WOAN27,
Yes-No Task,5,0,5,0,14.3,-1,Hit,0.567463399842,True,-1,stimulus_WOAN27_Yes-No Task_2019_Jun_12_1534_231,-1,True,2019_Jun_12_1534,Yes-No Task,2,WOAN27,
Yes-No Task,6,0,6,0,1.4,-1,Correct Rejection,0.400403500069,False,-1,stimulus_WOAN27_Yes-No Task_2019_Jun_12_1534_232,-1,True,2019_Jun_12_1534,Yes-No Task,2,WOAN27,
Yes-No Task,7,0,7,0,9.1,-1,Correct Rejection,0.433711099904,False,-1,stimulus_WOAN27_Yes-No Task_2019_Jun_12_1534_233,-1,True,2019_Jun_12_1534,Yes-No Task,2,WOAN27,
Yes-No Task,8,0,8,0,1.4,-1,Correct Rejection,0.467726399889,False,-1,stimulus_WOAN27_Yes-No Task_2019_Jun_12_1534_234,-1,True,2019_Jun_12_1534,Yes-No Task,2,WOAN27,
Yes-No Task,9,0,9,0,3.8,-1,Miss,0.399666900048,True,-1,stimulus_WOAN27_Yes-No Task_2019_Jun_12_1534_235,-1,True,2019_Jun_12_1534,Yes-No Task,2,WOAN27,
Yes-No Task,10,0,10,0,1.4,-1,Miss,0.333881899947,True,-1,stimulus_WOAN27_Yes-No Task_2019_Jun_12_1534_236,-1,True,2019_Jun_12_1534,Yes-No Task,2,WOAN27,
Yes-No Task,11,0,11,0,10.7,-1,Correct Rejection,0.266750900075,False,-1,stimulus_WOAN27_Yes-No Task_2019_Jun_12_1534_237,-1,True,2019_Jun_12_1534,Yes-No Task,2,WOAN27,
Yes-No Task,12,0,12,0,10.7,-1,False Alarm,0.466588299954,False,-1,stimulus_WOAN27_Yes-No Task_2019_Jun_12_1534_238,-1,True,2019_Jun_12_1534,Yes-No Task,2,WOAN27,
Yes-No Task,13,0,13,0,12.4,-1,Correct Rejection,0.30049970001,False,-1,stimulus_WOAN27_Yes-No Task_2019_Jun_12_1534_239,-1,True,2019_Jun_12_1534,Yes-No Task,2,WOAN27,
Yes-No Task,14,0,14,0,3.8,-1,Miss,0.333553999895,True,-1,stimulus_WOAN27_Yes-No Task_2019_Jun_12_1534_240,-1,True,2019_Jun_12_1534,Yes-No Task,2,WOAN27,
Yes-No Task,15,0,15,0,7.5,-1,Correct Rejection,0.367787800031,False,-1,stimulus_WOAN27_Yes-No Task_2019_Jun_12_1534_241,-1,True,2019_Jun_12_1534,Yes-No Task,2,WOAN27,
Yes-No Task,16,0,16,0,5.8,-1,Correct Rejection,0.366740099853,False,-1,stimulus_WOAN27_Yes-No Task_2019_Jun_12_1534_242,-1,True,2019_Jun_12_1534,Yes-No Task,2,WOAN27,
Yes-No Task,17,0,17,0,7.5,-1,Hit,0.468205600046,True,-1,stimulus_WOAN27_Yes-No Task_2019_Jun_12_1534_243,-1,True,2019_Jun_12_1534,Yes-No Task,2,WOAN27,
Yes-No Task,18,0,18,0,14.3,-1,Correct Rejection,0.567376499996,False,-1,stimulus_WOAN27_Yes-No Task_2019_Jun_12_1534_244,-1,True,2019_Jun_12_1534,Yes-No Task,2,WOAN27,
Yes-No Task,19,0,19,0,7.5,-1,Correct Rejection,0.400068499846,False,-1,stimulus_WOAN27_Yes-No Task_2019_Jun_12_1534_245,-1,True,2019_Jun_12_1534,Yes-No Task,2,WOAN27,
Yes-No Task,20,0,20,0,14.3,-1,Hit,0.467129199998,True,-1,stimulus_WOAN27_Yes-No Task_2019_Jun_12_1534_246,-1,True,2019_Jun_12_1534,Yes-No Task,2,WOAN27,
Yes-No Task,21,0,21,0,12.4,-1,Correct Rejection,0.399409399834,False,-1,stimulus_WOAN27_Yes-No Task_2019_Jun_12_1534_247,-1,True,2019_Jun_12_1534,Yes-No Task,2,WOAN27,
Yes-No Task,22,0,22,0,12.4,-1,Hit,0.435584000079,True,-1,stimulus_WOAN27_Yes-No Task_2019_Jun_12_1534_248,-1,True,2019_Jun_12_1534,Yes-No Task,2,WOAN27,
Yes-No Task,23,0,23,0,1.4,-1,Correct Rejection,0.434454099974,False,-1,stimulus_WOAN27_Yes-No Task_2019_Jun_12_1534_249,-1,True,2019_Jun_12_1534,Yes-No Task,2,WOAN27,
Yes-No Task,24,0,24,0,12.4,-1,Correct Rejection,0.466115699848,False,-1,stimulus_WOAN27_Yes-No Task_2019_Jun_12_1534_250,-1,True,2019_Jun_12_1534,Yes-No Task,2,WOAN27,
Yes-No Task,25,0,25,0,10.7,-1,Hit,0.43387129996,True,-1,stimulus_WOAN27_Yes-No Task_2019_Jun_12_1534_251,-1,True,2019_Jun_12_1534,Yes-No Task,2,WOAN27,
Yes-No Task,26,0,26,0,9.1,-1,Hit,0.433590499917,True,-1,stimulus_WOAN27_Yes-No Task_2019_Jun_12_1534_252,-1,True,2019_Jun_12_1534,Yes-No Task,2,WOAN27,
Yes-No Task,27,0,27,0,1.4,-1,False Alarm,0.500571199926,False,-1,stimulus_WOAN27_Yes-No Task_2019_Jun_12_1534_253,-1,True,2019_Jun_12_1534,Yes-No Task,2,WOAN27,
Yes-No Task,28,0,28,0,3.8,-1,False Alarm,0.367400000105,False,-1,stimulus_WOAN27_Yes-No Task_2019_Jun_12_1534_254,-1,True,2019_Jun_12_1534,Yes-No Task,2,WOAN27,
Yes-No Task,29,0,29,0,14.3,-1,Correct Rejection,0.434531999985,False,-1,stimulus_WOAN27_Yes-No Task_2019_Jun_12_1534_255,-1,True,2019_Jun_12_1534,Yes-No Task,2,WOAN27,
Yes-No Task,30,0,30,0,9.1,-1,Correct Rejection,0.465717899846,False,-1,stimulus_WOAN27_Yes-No Task_2019_Jun_12_1534_256,-1,True,2019_Jun_12_1534,Yes-No Task,2,WOAN27,
Yes-No Task,31,0,31,0,1.4,-1,Correct Rejection,0.433597800089,False,-1,stimulus_WOAN27_Yes-No Task_2019_Jun_12_1534_257,-1,True,2019_Jun_12_1534,Yes-No Task,2,WOAN27,
Yes-No Task,32,0,32,0,14.3,-1,Correct Rejection,0.367144600023,False,-1,stimulus_WOAN27_Yes-No Task_2019_Jun_12_1534_258,-1,True,2019_Jun_12_1534,Yes-No Task,2,WOAN27,
Yes-No Task,33,0,33,0,3.8,-1,Correct Rejection,0.434398799902,False,-1,stimulus_WOAN27_Yes-No Task_2019_Jun_12_1534_259,-1,True,2019_Jun_12_1534,Yes-No Task,2,WOAN27,
Yes-No Task,34,0,34,0,10.7,-1,Correct Rejection,0.433814199874,False,-1,stimulus_WOAN27_Yes-No Task_2019_Jun_12_1534_260,-1,True,2019_Jun_12_1534,Yes-No Task,2,WOAN27,
Yes-No Task,35,0,35,0,1.4,-1,Miss,0.433660199866,True,-1,stimulus_WOAN27_Yes-No Task_2019_Jun_12_1534_261,-1,True,2019_Jun_12_1534,Yes-No Task,2,WOAN27,
Yes-No Task,36,0,36,0,9.1,-1,Miss,0.466634799959,True,-1,stimulus_WOAN27_Yes-No Task_2019_Jun_12_1534_262,-1,True,2019_Jun_12_1534,Yes-No Task,2,WOAN27,
Yes-No Task,37,0,37,0,12.4,-1,Hit,0.501343699871,True,-1,stimulus_WOAN27_Yes-No Task_2019_Jun_12_1534_263,-1,True,2019_Jun_12_1534,Yes-No Task,2,WOAN27,
Yes-No Task,38,0,38,0,1.4,-1,Miss,0.466594099998,True,-1,stimulus_WOAN27_Yes-No Task_2019_Jun_12_1534_264,-1,True,2019_Jun_12_1534,Yes-No Task,2,WOAN27,
Yes-No Task,39,0,39,0,7.5,-1,False Alarm,0.601377000101,False,-1,stimulus_WOAN27_Yes-No Task_2019_Jun_12_1534_265,-1,True,2019_Jun_12_1534,Yes-No Task,2,WOAN27,
Yes-No Task,40,0,40,0,3.8,-1,Correct Rejection,0.401887000073,False,-1,stimulus_WOAN27_Yes-No Task_2019_Jun_12_1534_266,-1,True,2019_Jun_12_1534,Yes-No Task,2,WOAN27,
Yes-No Task,41,0,41,0,5.8,-1,Correct Rejection,0.465029299958,False,-1,stimulus_WOAN27_Yes-No Task_2019_Jun_12_1534_267,-1,True,2019_Jun_12_1534,Yes-No Task,2,WOAN27,
Yes-No Task,42,0,42,0,7.5,-1,Miss,0.533862600103,True,-1,stimulus_WOAN27_Yes-No Task_2019_Jun_12_1534_268,-1,True,2019_Jun_12_1534,Yes-No Task,2,WOAN27,
Yes-No Task,43,0,43,0,7.5,-1,Miss,0.400385800051,True,-1,stimulus_WOAN27_Yes-No Task_2019_Jun_12_1534_269,-1,True,2019_Jun_12_1534,Yes-No Task,2,WOAN27,
Yes-No Task,44,0,44,0,1.4,-1,Miss,0.468061600113,True,-1,stimulus_WOAN27_Yes-No Task_2019_Jun_12_1534_270,-1,True,2019_Jun_12_1534,Yes-No Task,2,WOAN27,
Yes-No Task,45,0,45,0,1.4,-1,Miss,0.467103800038,True,-1,stimulus_WOAN27_Yes-No Task_2019_Jun_12_1534_271,-1,True,2019_Jun_12_1534,Yes-No Task,2,WOAN27,
Yes-No Task,46,0,46,0,14.3,-1,Hit,0.533921099966,True,-1,stimulus_WOAN27_Yes-No Task_2019_Jun_12_1534_272,-1,True,2019_Jun_12_1534,Yes-No Task,2,WOAN27,
Yes-No Task,47,0,47,0,5.8,-1,Miss,0.400601699948,True,-1,stimulus_WOAN27_Yes-No Task_2019_Jun_12_1534_273,-1,True,2019_Jun_12_1534,Yes-No Task,2,WOAN27,
Yes-No Task,48,0,48,0,7.5,-1,Correct Rejection,0.63378049992,False,-1,stimulus_WOAN27_Yes-No Task_2019_Jun_12_1534_274,-1,True,2019_Jun_12_1534,Yes-No Task,2,WOAN27,
Yes-No Task,49,0,49,0,5.8,-1,Correct Rejection,0.433859199984,False,-1,stimulus_WOAN27_Yes-No Task_2019_Jun_12_1534_275,-1,True,2019_Jun_12_1534,Yes-No Task,2,WOAN27,
Yes-No Task,50,0,50,0,9.1,-1,Correct Rejection,0.43282909994,False,-1,stimulus_WOAN27_Yes-No Task_2019_Jun_12_1534_276,-1,True,2019_Jun_12_1534,Yes-No Task,2,WOAN27,
Yes-No Task,51,0,51,0,14.3,-1,Correct Rejection,0.333871899871,False,-1,stimulus_WOAN27_Yes-No Task_2019_Jun_12_1534_277,-1,True,2019_Jun_12_1534,Yes-No Task,2,WOAN27,
Yes-No Task,52,0,52,0,5.8,-1,Miss,0.331903199898,True,-1,stimulus_WOAN27_Yes-No Task_2019_Jun_12_1534_278,-1,True,2019_Jun_12_1534,Yes-No Task,2,WOAN27,
Yes-No Task,53,0,53,0,5.8,-1,Miss,0.367551099975,True,-1,stimulus_WOAN27_Yes-No Task_2019_Jun_12_1534_279,-1,True,2019_Jun_12_1534,Yes-No Task,2,WOAN27,
Yes-No Task,54,0,54,0,12.4,-1,Correct Rejection,0.400412000017,False,-1,stimulus_WOAN27_Yes-No Task_2019_Jun_12_1534_280,-1,True,2019_Jun_12_1534,Yes-No Task,2,WOAN27,
Yes-No Task,55,0,55,0,7.5,-1,Correct Rejection,0.300120500149,False,-1,stimulus_WOAN27_Yes-No Task_2019_Jun_12_1534_281,-1,True,2019_Jun_12_1534,Yes-No Task,2,WOAN27,
Yes-No Task,56,0,56,0,9.1,-1,Hit,0.500722599914,True,-1,stimulus_WOAN27_Yes-No Task_2019_Jun_12_1534_282,-1,True,2019_Jun_12_1534,Yes-No Task,2,WOAN27,
Yes-No Task,57,0,57,0,5.8,-1,Miss,0.402096499922,True,-1,stimulus_WOAN27_Yes-No Task_2019_Jun_12_1534_283,-1,True,2019_Jun_12_1534,Yes-No Task,2,WOAN27,
Yes-No Task,58,0,58,0,7.5,-1,Miss,0.433603400132,True,-1,stimulus_WOAN27_Yes-No Task_2019_Jun_12_1534_284,-1,True,2019_Jun_12_1534,Yes-No Task,2,WOAN27,
Yes-No Task,59,0,59,0,14.3,-1,Hit,0.434234300163,True,-1,stimulus_WOAN27_Yes-No Task_2019_Jun_12_1534_285,-1,True,2019_Jun_12_1534,Yes-No Task,2,WOAN27,
Yes-No Task,60,0,60,0,10.7,-1,Hit,0.433917100076,True,-1,stimulus_WOAN27_Yes-No Task_2019_Jun_12_1534_286,-1,True,2019_Jun_12_1534,Yes-No Task,2,WOAN27,
Yes-No Task,61,0,61,0,5.8,-1,Hit,0.399847100023,True,-1,stimulus_WOAN27_Yes-No Task_2019_Jun_12_1534_287,-1,True,2019_Jun_12_1534,Yes-No Task,2,WOAN27,
Yes-No Task,62,0,62,0,5.8,-1,Hit,0.433970500017,True,-1,stimulus_WOAN27_Yes-No Task_2019_Jun_12_1534_288,-1,True,2019_Jun_12_1534,Yes-No Task,2,WOAN27,
Yes-No Task,63,0,63,0,14.3,-1,Hit,0.434601099929,True,-1,stimulus_WOAN27_Yes-No Task_2019_Jun_12_1534_289,-1,True,2019_Jun_12_1534,Yes-No Task,2,WOAN27,
Yes-No Task,64,0,64,0,3.8,-1,Correct Rejection,0.567380500026,False,-1,stimulus_WOAN27_Yes-No Task_2019_Jun_12_1534_290,-1,True,2019_Jun_12_1534,Yes-No Task,2,WOAN27,
Yes-No Task,65,0,65,0,3.8,-1,Hit,0.433770400006,True,-1,stimulus_WOAN27_Yes-No Task_2019_Jun_12_1534_291,-1,True,2019_Jun_12_1534,Yes-No Task,2,WOAN27,
Yes-No Task,66,0,66,0,7.5,-1,Hit,0.433935200097,True,-1,stimulus_WOAN27_Yes-No Task_2019_Jun_12_1534_292,-1,True,2019_Jun_12_1534,Yes-No Task,2,WOAN27,
Yes-No Task,67,0,67,0,14.3,-1,Hit,0.468301099958,True,-1,stimulus_WOAN27_Yes-No Task_2019_Jun_12_1534_293,-1,True,2019_Jun_12_1534,Yes-No Task,2,WOAN27,
Yes-No Task,68,0,68,0,10.7,-1,Hit,0.467412000056,True,-1,stimulus_WOAN27_Yes-No Task_2019_Jun_12_1534_294,-1,True,2019_Jun_12_1534,Yes-No Task,2,WOAN27,
Yes-No Task,69,0,69,0,9.1,-1,Hit,0.500754999928,True,-1,stimulus_WOAN27_Yes-No Task_2019_Jun_12_1534_295,-1,True,2019_Jun_12_1534,Yes-No Task,2,WOAN27,
Yes-No Task,70,0,70,0,12.4,-1,Correct Rejection,0.634036100004,False,-1,stimulus_WOAN27_Yes-No Task_2019_Jun_12_1534_296,-1,True,2019_Jun_12_1534,Yes-No Task,2,WOAN27,
Yes-No Task,71,0,71,0,10.7,-1,Miss,0.433077999856,True,-1,stimulus_WOAN27_Yes-No Task_2019_Jun_12_1534_297,-1,True,2019_Jun_12_1534,Yes-No Task,2,WOAN27,
Yes-No Task,72,0,72,0,3.8,-1,Hit,0.3667725001,True,-1,stimulus_WOAN27_Yes-No Task_2019_Jun_12_1534_298,-1,True,2019_Jun_12_1534,Yes-No Task,2,WOAN27,
Yes-No Task,73,0,73,0,7.5,-1,Hit,0.433193600038,True,-1,stimulus_WOAN27_Yes-No Task_2019_Jun_12_1534_299,-1,True,2019_Jun_12_1534,Yes-No Task,2,WOAN27,
Yes-No Task,74,0,74,0,10.7,-1,Correct Rejection,0.566734199878,False,-1,stimulus_WOAN27_Yes-No Task_2019_Jun_12_1534_300,-1,True,2019_Jun_12_1534,Yes-No Task,2,WOAN27,
Yes-No Task,0,0,0,0,9.1,-1,Miss,0.533867999911,True,-1,stimulus_WOAN27_Yes-No Task_2019_Jun_12_1534_301,-1,True,2019_Jun_12_1534,Yes-No Task,2,WOAN27,
Yes-No Task,1,0,1,0,12.4,-1,Hit,0.399545700056,True,-1,stimulus_WOAN27_Yes-No Task_2019_Jun_12_1534_302,-1,True,2019_Jun_12_1534,Yes-No Task,2,WOAN27,
Yes-No Task,2,0,2,0,3.8,-1,Miss,0.56749099982,True,-1,stimulus_WOAN27_Yes-No Task_2019_Jun_12_1534_303,-1,True,2019_Jun_12_1534,Yes-No Task,2,WOAN27,
Yes-No Task,3,0,3,0,14.3,-1,Correct Rejection,0.667452200083,False,-1,stimulus_WOAN27_Yes-No Task_2019_Jun_12_1534_304,-1,True,2019_Jun_12_1534,Yes-No Task,2,WOAN27,
Yes-No Task,4,0,4,0,14.3,-1,Hit,0.400336300023,True,-1,stimulus_WOAN27_Yes-No Task_2019_Jun_12_1534_305,-1,True,2019_Jun_12_1534,Yes-No Task,2,WOAN27,
Yes-No Task,5,0,5,0,3.8,-1,Miss,0.568033299875,True,-1,stimulus_WOAN27_Yes-No Task_2019_Jun_12_1534_306,-1,True,2019_Jun_12_1534,Yes-No Task,2,WOAN27,
Yes-No Task,6,0,6,0,5.8,-1,Correct Rejection,0.567510300083,False,-1,stimulus_WOAN27_Yes-No Task_2019_Jun_12_1534_307,-1,True,2019_Jun_12_1534,Yes-No Task,2,WOAN27,
Yes-No Task,7,0,7,0,12.4,-1,False Alarm,0.433649300132,False,-1,stimulus_WOAN27_Yes-No Task_2019_Jun_12_1534_308,-1,True,2019_Jun_12_1534,Yes-No Task,2,WOAN27,
Yes-No Task,8,0,8,0,1.4,-1,Correct Rejection,0.3986953001,False,-1,stimulus_WOAN27_Yes-No Task_2019_Jun_12_1534_309,-1,True,2019_Jun_12_1534,Yes-No Task,2,WOAN27,
Yes-No Task,9,0,9,0,9.1,-1,Correct Rejection,0.500604300061,False,-1,stimulus_WOAN27_Yes-No Task_2019_Jun_12_1534_310,-1,True,2019_Jun_12_1534,Yes-No Task,2,WOAN27,
Yes-No Task,10,0,10,0,9.1,-1,Correct Rejection,0.533030299935,False,-1,stimulus_WOAN27_Yes-No Task_2019_Jun_12_1534_311,-1,True,2019_Jun_12_1534,Yes-No Task,2,WOAN27,
Yes-No Task,11,0,11,0,1.4,-1,Correct Rejection,0.466805799864,False,-1,stimulus_WOAN27_Yes-No Task_2019_Jun_12_1534_312,-1,True,2019_Jun_12_1534,Yes-No Task,2,WOAN27,
Yes-No Task,12,0,12,0,12.4,-1,Hit,0.46829920006,True,-1,stimulus_WOAN27_Yes-No Task_2019_Jun_12_1534_313,-1,True,2019_Jun_12_1534,Yes-No Task,2,WOAN27,
Yes-No Task,13,0,13,0,14.3,-1,Correct Rejection,0.434510700172,False,-1,stimulus_WOAN27_Yes-No Task_2019_Jun_12_1534_314,-1,True,2019_Jun_12_1534,Yes-No Task,2,WOAN27,
Yes-No Task,14,0,14,0,5.8,-1,Hit,0.467265000101,True,-1,stimulus_WOAN27_Yes-No Task_2019_Jun_12_1534_315,-1,True,2019_Jun_12_1534,Yes-No Task,2,WOAN27,
Yes-No Task,15,0,15,0,12.4,-1,Correct Rejection,0.732859000098,False,-1,stimulus_WOAN27_Yes-No Task_2019_Jun_12_1534_316,-1,True,2019_Jun_12_1534,Yes-No Task,2,WOAN27,
Yes-No Task,16,0,16,0,1.4,-1,False Alarm,0.401200199965,False,-1,stimulus_WOAN27_Yes-No Task_2019_Jun_12_1534_317,-1,True,2019_Jun_12_1534,Yes-No Task,2,WOAN27,
Yes-No Task,17,0,17,0,12.4,-1,Correct Rejection,0.333786099916,False,-1,stimulus_WOAN27_Yes-No Task_2019_Jun_12_1534_318,-1,True,2019_Jun_12_1534,Yes-No Task,2,WOAN27,
Yes-No Task,18,0,18,0,1.4,-1,Miss,0.468112500152,True,-1,stimulus_WOAN27_Yes-No Task_2019_Jun_12_1534_319,-1,True,2019_Jun_12_1534,Yes-No Task,2,WOAN27,
Yes-No Task,19,0,19,0,1.4,-1,Miss,0.367191999918,True,-1,stimulus_WOAN27_Yes-No Task_2019_Jun_12_1534_320,-1,True,2019_Jun_12_1534,Yes-No Task,2,WOAN27,
Yes-No Task,20,0,20,0,12.4,-1,Correct Rejection,0.400453999871,False,-1,stimulus_WOAN27_Yes-No Task_2019_Jun_12_1534_321,-1,True,2019_Jun_12_1534,Yes-No Task,2,WOAN27,
Yes-No Task,21,0,21,0,5.8,-1,Hit,0.367307799868,True,-1,stimulus_WOAN27_Yes-No Task_2019_Jun_12_1534_322,-1,True,2019_Jun_12_1534,Yes-No Task,2,WOAN27,
Yes-No Task,22,0,22,0,3.8,-1,Hit,0.466127600055,True,-1,stimulus_WOAN27_Yes-No Task_2019_Jun_12_1534_323,-1,True,2019_Jun_12_1534,Yes-No Task,2,WOAN27,
Yes-No Task,23,0,23,0,12.4,-1,Correct Rejection,0.400794499787,False,-1,stimulus_WOAN27_Yes-No Task_2019_Jun_12_1534_324,-1,True,2019_Jun_12_1534,Yes-No Task,2,WOAN27,
Yes-No Task,24,0,24,0,12.4,-1,Hit,0.367937899893,True,-1,stimulus_WOAN27_Yes-No Task_2019_Jun_12_1534_325,-1,True,2019_Jun_12_1534,Yes-No Task,2,WOAN27,
Yes-No Task,25,0,25,0,9.1,-1,Correct Rejection,0.500631400151,False,-1,stimulus_WOAN27_Yes-No Task_2019_Jun_12_1534_326,-1,True,2019_Jun_12_1534,Yes-No Task,2,WOAN27,
Yes-No Task,26,0,26,0,1.4,-1,False Alarm,0.400505100144,False,-1,stimulus_WOAN27_Yes-No Task_2019_Jun_12_1534_327,-1,True,2019_Jun_12_1534,Yes-No Task,2,WOAN27,
Yes-No Task,27,0,27,0,9.1,-1,Correct Rejection,0.300474599935,False,-1,stimulus_WOAN27_Yes-No Task_2019_Jun_12_1534_328,-1,True,2019_Jun_12_1534,Yes-No Task,2,WOAN27,
Yes-No Task,28,0,28,0,12.4,-1,Hit,0.500551899895,True,-1,stimulus_WOAN27_Yes-No Task_2019_Jun_12_1534_329,-1,True,2019_Jun_12_1534,Yes-No Task,2,WOAN27,
Yes-No Task,29,0,29,0,5.8,-1,Hit,0.465933899861,True,-1,stimulus_WOAN27_Yes-No Task_2019_Jun_12_1534_330,-1,True,2019_Jun_12_1534,Yes-No Task,2,WOAN27,
Yes-No Task,30,0,30,0,9.1,-1,False Alarm,0.534034200013,False,-1,stimulus_WOAN27_Yes-No Task_2019_Jun_12_1534_331,-1,True,2019_Jun_12_1534,Yes-No Task,2,WOAN27,
Yes-No Task,31,0,31,0,3.8,-1,Miss,0.267102299957,True,-1,stimulus_WOAN27_Yes-No Task_2019_Jun_12_1534_332,-1,True,2019_Jun_12_1534,Yes-No Task,2,WOAN27,
Yes-No Task,32,0,32,0,1.4,-1,Miss,0.300377399893,True,-1,stimulus_WOAN27_Yes-No Task_2019_Jun_12_1534_333,-1,True,2019_Jun_12_1534,Yes-No Task,2,WOAN27,
Yes-No Task,33,0,33,0,3.8,-1,Miss,0.400351300137,True,-1,stimulus_WOAN27_Yes-No Task_2019_Jun_12_1534_334,-1,True,2019_Jun_12_1534,Yes-No Task,2,WOAN27,
Yes-No Task,34,0,34,0,3.8,-1,Miss,0.333995599998,True,-1,stimulus_WOAN27_Yes-No Task_2019_Jun_12_1534_335,-1,True,2019_Jun_12_1534,Yes-No Task,2,WOAN27,
Yes-No Task,35,0,35,0,1.4,-1,Correct Rejection,0.670072899899,False,-1,stimulus_WOAN27_Yes-No Task_2019_Jun_12_1534_336,-1,True,2019_Jun_12_1534,Yes-No Task,2,WOAN27,
Yes-No Task,36,0,36,0,9.1,-1,False Alarm,0.400369399926,False,-1,stimulus_WOAN27_Yes-No Task_2019_Jun_12_1534_337,-1,True,2019_Jun_12_1534,Yes-No Task,2,WOAN27,
Yes-No Task,37,0,37,0,7.5,-1,Correct Rejection,0.33319159993,False,-1,stimulus_WOAN27_Yes-No Task_2019_Jun_12_1534_338,-1,True,2019_Jun_12_1534,Yes-No Task,2,WOAN27,
Yes-No Task,38,0,38,0,3.8,-1,False Alarm,0.433241000166,False,-1,stimulus_WOAN27_Yes-No Task_2019_Jun_12_1534_339,-1,True,2019_Jun_12_1534,Yes-No Task,2,WOAN27,
Yes-No Task,39,0,39,0,7.5,-1,Miss,0.333547200076,True,-1,stimulus_WOAN27_Yes-No Task_2019_Jun_12_1534_340,-1,True,2019_Jun_12_1534,Yes-No Task,2,WOAN27,
Yes-No Task,40,0,40,0,12.4,-1,False Alarm,0.566913399845,False,-1,stimulus_WOAN27_Yes-No Task_2019_Jun_12_1534_341,-1,True,2019_Jun_12_1534,Yes-No Task,2,WOAN27,
Yes-No Task,41,0,41,0,1.4,-1,Miss,0.567478999961,True,-1,stimulus_WOAN27_Yes-No Task_2019_Jun_12_1534_342,-1,True,2019_Jun_12_1534,Yes-No Task,2,WOAN27,
Yes-No Task,42,0,42,0,9.1,-1,Miss,0.334628699813,True,-1,stimulus_WOAN27_Yes-No Task_2019_Jun_12_1534_343,-1,True,2019_Jun_12_1534,Yes-No Task,2,WOAN27,
Yes-No Task,43,0,43,0,9.1,-1,Correct Rejection,0.433897400042,False,-1,stimulus_WOAN27_Yes-No Task_2019_Jun_12_1534_344,-1,True,2019_Jun_12_1534,Yes-No Task,2,WOAN27,
Yes-No Task,44,0,44,0,14.3,-1,Hit,0.433937200112,True,-1,stimulus_WOAN27_Yes-No Task_2019_Jun_12_1534_345,-1,True,2019_Jun_12_1534,Yes-No Task,2,WOAN27,
Yes-No Task,45,0,45,0,14.3,-1,Hit,0.46834459994,True,-1,stimulus_WOAN27_Yes-No Task_2019_Jun_12_1534_346,-1,True,2019_Jun_12_1534,Yes-No Task,2,WOAN27,
Yes-No Task,46,0,46,0,7.5,-1,False Alarm,0.401981299976,False,-1,stimulus_WOAN27_Yes-No Task_2019_Jun_12_1534_347,-1,True,2019_Jun_12_1534,Yes-No Task,2,WOAN27,
Yes-No Task,47,0,47,0,3.8,-1,Miss,0.267187100137,True,-1,stimulus_WOAN27_Yes-No Task_2019_Jun_12_1534_348,-1,True,2019_Jun_12_1534,Yes-No Task,2,WOAN27,
Yes-No Task,48,0,48,0,14.3,-1,Correct Rejection,0.367084200028,False,-1,stimulus_WOAN27_Yes-No Task_2019_Jun_12_1534_349,-1,True,2019_Jun_12_1534,Yes-No Task,2,WOAN27,
Yes-No Task,49,0,49,0,9.1,-1,Correct Rejection,0.433350000065,False,-1,stimulus_WOAN27_Yes-No Task_2019_Jun_12_1534_350,-1,True,2019_Jun_12_1534,Yes-No Task,2,WOAN27,
Yes-No Task,50,0,50,0,3.8,-1,Correct Rejection,0.437402900076,False,-1,stimulus_WOAN27_Yes-No Task_2019_Jun_12_1534_351,-1,True,2019_Jun_12_1534,Yes-No Task,2,WOAN27,
Yes-No Task,51,0,51,0,3.8,-1,Hit,0.467308799969,True,-1,stimulus_WOAN27_Yes-No Task_2019_Jun_12_1534_352,-1,True,2019_Jun_12_1534,Yes-No Task,2,WOAN27,
Yes-No Task,52,0,52,0,5.8,-1,Correct Rejection,0.334499699995,False,-1,stimulus_WOAN27_Yes-No Task_2019_Jun_12_1534_353,-1,True,2019_Jun_12_1534,Yes-No Task,2,WOAN27,
Yes-No Task,53,0,53,0,3.8,-1,False Alarm,0.368551399792,False,-1,stimulus_WOAN27_Yes-No Task_2019_Jun_12_1534_354,-1,True,2019_Jun_12_1534,Yes-No Task,2,WOAN27,
Yes-No Task,54,0,54,0,1.4,-1,Miss,0.233672800008,True,-1,stimulus_WOAN27_Yes-No Task_2019_Jun_12_1534_355,-1,True,2019_Jun_12_1534,Yes-No Task,2,WOAN27,
Yes-No Task,55,0,55,0,1.4,-1,Miss,0.367389000021,True,-1,stimulus_WOAN27_Yes-No Task_2019_Jun_12_1534_356,-1,True,2019_Jun_12_1534,Yes-No Task,2,WOAN27,
Yes-No Task,56,0,56,0,5.8,-1,Hit,0.433771400014,True,-1,stimulus_WOAN27_Yes-No Task_2019_Jun_12_1534_357,-1,True,2019_Jun_12_1534,Yes-No Task,2,WOAN27,
Yes-No Task,57,0,57,0,5.8,-1,Correct Rejection,0.4003595002,False,-1,stimulus_WOAN27_Yes-No Task_2019_Jun_12_1534_358,-1,True,2019_Jun_12_1534,Yes-No Task,2,WOAN27,
Yes-No Task,58,0,58,0,5.8,-1,Correct Rejection,0.567162800115,False,-1,stimulus_WOAN27_Yes-No Task_2019_Jun_12_1534_359,-1,True,2019_Jun_12_1534,Yes-No Task,2,WOAN27,
Yes-No Task,59,0,59,0,12.4,-1,False Alarm,0.500650699949,False,-1,stimulus_WOAN27_Yes-No Task_2019_Jun_12_1534_360,-1,True,2019_Jun_12_1534,Yes-No Task,2,WOAN27,
Yes-No Task,60,0,60,0,3.8,-1,Correct Rejection,0.400471400004,False,-1,stimulus_WOAN27_Yes-No Task_2019_Jun_12_1534_361,-1,True,2019_Jun_12_1534,Yes-No Task,2,WOAN27,
Yes-No Task,61,0,61,0,3.8,-1,Miss,0.566793899983,True,-1,stimulus_WOAN27_Yes-No Task_2019_Jun_12_1534_362,-1,True,2019_Jun_12_1534,Yes-No Task,2,WOAN27,
Yes-No Task,62,0,62,0,10.7,-1,Correct Rejection,0.535119500011,False,-1,stimulus_WOAN27_Yes-No Task_2019_Jun_12_1534_363,-1,True,2019_Jun_12_1534,Yes-No Task,2,WOAN27,
Yes-No Task,63,0,63,0,14.3,-1,Miss,0.367175500141,True,-1,stimulus_WOAN27_Yes-No Task_2019_Jun_12_1534_364,-1,True,2019_Jun_12_1534,Yes-No Task,2,WOAN27,
Yes-No Task,64,0,64,0,5.8,-1,Correct Rejection,0.53486200003,False,-1,stimulus_WOAN27_Yes-No Task_2019_Jun_12_1534_365,-1,True,2019_Jun_12_1534,Yes-No Task,2,WOAN27,
Yes-No Task,65,0,65,0,3.8,-1,Miss,0.634398500202,True,-1,stimulus_WOAN27_Yes-No Task_2019_Jun_12_1534_366,-1,True,2019_Jun_12_1534,Yes-No Task,2,WOAN27,
Yes-No Task,66,0,66,0,14.3,-1,Hit,0.467168200063,True,-1,stimulus_WOAN27_Yes-No Task_2019_Jun_12_1534_367,-1,True,2019_Jun_12_1534,Yes-No Task,2,WOAN27,
Yes-No Task,67,0,67,0,5.8,-1,Hit,0.469072900014,True,-1,stimulus_WOAN27_Yes-No Task_2019_Jun_12_1534_368,-1,True,2019_Jun_12_1534,Yes-No Task,2,WOAN27,
Yes-No Task,68,0,68,0,5.8,-1,Correct Rejection,0.533750399947,False,-1,stimulus_WOAN27_Yes-No Task_2019_Jun_12_1534_369,-1,True,2019_Jun_12_1534,Yes-No Task,2,WOAN27,
Yes-No Task,69,0,69,0,7.5,-1,Correct Rejection,0.567562500015,False,-1,stimulus_WOAN27_Yes-No Task_2019_Jun_12_1534_370,-1,True,2019_Jun_12_1534,Yes-No Task,2,WOAN27,
Yes-No Task,70,0,70,0,7.5,-1,Correct Rejection,0.500392300077,False,-1,stimulus_WOAN27_Yes-No Task_2019_Jun_12_1534_371,-1,True,2019_Jun_12_1534,Yes-No Task,2,WOAN27,
Yes-No Task,71,0,71,0,3.8,-1,Miss,0.467306700069,True,-1,stimulus_WOAN27_Yes-No Task_2019_Jun_12_1534_372,-1,True,2019_Jun_12_1534,Yes-No Task,2,WOAN27,
Yes-No Task,72,0,72,0,10.7,-1,Correct Rejection,0.332707199967,False,-1,stimulus_WOAN27_Yes-No Task_2019_Jun_12_1534_373,-1,True,2019_Jun_12_1534,Yes-No Task,2,WOAN27,
Yes-No Task,73,0,73,0,1.4,-1,Correct Rejection,0.533968499862,False,-1,stimulus_WOAN27_Yes-No Task_2019_Jun_12_1534_374,-1,True,2019_Jun_12_1534,Yes-No Task,2,WOAN27,
Yes-No Task,74,0,74,0,7.5,-1,Hit,0.467184999958,True,-1,stimulus_WOAN27_Yes-No Task_2019_Jun_12_1534_375,-1,True,2019_Jun_12_1534,Yes-No Task,2,WOAN27,
Yes-No Task,0,0,0,0,9.1,-1,Correct Rejection,0.367164599942,False,-1,stimulus_WOAN27_Yes-No Task_2019_Jun_12_1534_376,-1,True,2019_Jun_12_1534,Yes-No Task,2,WOAN27,
Yes-No Task,1,0,1,0,3.8,-1,Correct Rejection,0.433514000149,False,-1,stimulus_WOAN27_Yes-No Task_2019_Jun_12_1534_377,-1,True,2019_Jun_12_1534,Yes-No Task,2,WOAN27,
Yes-No Task,2,0,2,0,10.7,-1,Correct Rejection,0.433899600059,False,-1,stimulus_WOAN27_Yes-No Task_2019_Jun_12_1534_378,-1,True,2019_Jun_12_1534,Yes-No Task,2,WOAN27,
Yes-No Task,3,0,3,0,3.8,-1,Correct Rejection,0.36805589986,False,-1,stimulus_WOAN27_Yes-No Task_2019_Jun_12_1534_379,-1,True,2019_Jun_12_1534,Yes-No Task,2,WOAN27,
Yes-No Task,4,0,4,0,14.3,-1,Hit,0.466025900096,True,-1,stimulus_WOAN27_Yes-No Task_2019_Jun_12_1534_380,-1,True,2019_Jun_12_1534,Yes-No Task,2,WOAN27,
Yes-No Task,5,0,5,0,14.3,-1,Hit,0.500666899839,True,-1,stimulus_WOAN27_Yes-No Task_2019_Jun_12_1534_381,-1,True,2019_Jun_12_1534,Yes-No Task,2,WOAN27,
Yes-No Task,6,0,6,0,3.8,-1,Miss,0.499808900058,True,-1,stimulus_WOAN27_Yes-No Task_2019_Jun_12_1534_382,-1,True,2019_Jun_12_1534,Yes-No Task,2,WOAN27,
Yes-No Task,7,0,7,0,14.3,-1,Correct Rejection,0.401846399996,False,-1,stimulus_WOAN27_Yes-No Task_2019_Jun_12_1534_383,-1,True,2019_Jun_12_1534,Yes-No Task,2,WOAN27,
Yes-No Task,8,0,8,0,7.5,-1,Hit,0.467144999886,True,-1,stimulus_WOAN27_Yes-No Task_2019_Jun_12_1534_384,-1,True,2019_Jun_12_1534,Yes-No Task,2,WOAN27,
Yes-No Task,9,0,9,0,9.1,-1,Miss,0.499761400046,True,-1,stimulus_WOAN27_Yes-No Task_2019_Jun_12_1534_385,-1,True,2019_Jun_12_1534,Yes-No Task,2,WOAN27,
Yes-No Task,10,0,10,0,5.8,-1,Miss,0.399688099977,True,-1,stimulus_WOAN27_Yes-No Task_2019_Jun_12_1534_386,-1,True,2019_Jun_12_1534,Yes-No Task,2,WOAN27,
Yes-No Task,11,0,11,0,1.4,-1,Correct Rejection,0.566044999985,False,-1,stimulus_WOAN27_Yes-No Task_2019_Jun_12_1534_387,-1,True,2019_Jun_12_1534,Yes-No Task,2,WOAN27,
Yes-No Task,12,0,12,0,14.3,-1,False Alarm,0.367117400048,False,-1,stimulus_WOAN27_Yes-No Task_2019_Jun_12_1534_388,-1,True,2019_Jun_12_1534,Yes-No Task,2,WOAN27,
Yes-No Task,13,0,13,0,14.3,-1,Correct Rejection,0.500490500126,False,-1,stimulus_WOAN27_Yes-No Task_2019_Jun_12_1534_389,-1,True,2019_Jun_12_1534,Yes-No Task,2,WOAN27,
Yes-No Task,14,0,14,0,5.8,-1,Correct Rejection,0.500401499914,False,-1,stimulus_WOAN27_Yes-No Task_2019_Jun_12_1534_390,-1,True,2019_Jun_12_1534,Yes-No Task,2,WOAN27,
Yes-No Task,15,0,15,0,14.3,-1,Correct Rejection,0.434566200012,False,-1,stimulus_WOAN27_Yes-No Task_2019_Jun_12_1534_391,-1,True,2019_Jun_12_1534,Yes-No Task,2,WOAN27,
Yes-No Task,16,0,16,0,14.3,-1,Correct Rejection,0.433894800022,False,-1,stimulus_WOAN27_Yes-No Task_2019_Jun_12_1534_392,-1,True,2019_Jun_12_1534,Yes-No Task,2,WOAN27,
Yes-No Task,17,0,17,0,3.8,-1,Hit,0.532631099923,True,-1,stimulus_WOAN27_Yes-No Task_2019_Jun_12_1534_393,-1,True,2019_Jun_12_1534,Yes-No Task,2,WOAN27,
Yes-No Task,18,0,18,0,10.7,-1,False Alarm,0.467503899941,False,-1,stimulus_WOAN27_Yes-No Task_2019_Jun_12_1534_394,-1,True,2019_Jun_12_1534,Yes-No Task,2,WOAN27,
Yes-No Task,19,0,19,0,7.5,-1,Correct Rejection,0.332520100055,False,-1,stimulus_WOAN27_Yes-No Task_2019_Jun_12_1534_395,-1,True,2019_Jun_12_1534,Yes-No Task,2,WOAN27,
Yes-No Task,20,0,20,0,3.8,-1,Correct Rejection,0.400624600006,False,-1,stimulus_WOAN27_Yes-No Task_2019_Jun_12_1534_396,-1,True,2019_Jun_12_1534,Yes-No Task,2,WOAN27,
Yes-No Task,21,0,21,0,10.7,-1,Correct Rejection,0.467789400136,False,-1,stimulus_WOAN27_Yes-No Task_2019_Jun_12_1534_397,-1,True,2019_Jun_12_1534,Yes-No Task,2,WOAN27,
Yes-No Task,22,0,22,0,9.1,-1,Hit,0.434773099842,True,-1,stimulus_WOAN27_Yes-No Task_2019_Jun_12_1534_398,-1,True,2019_Jun_12_1534,Yes-No Task,2,WOAN27,
Yes-No Task,23,0,23,0,5.8,-1,Miss,0.566691400018,True,-1,stimulus_WOAN27_Yes-No Task_2019_Jun_12_1534_399,-1,True,2019_Jun_12_1534,Yes-No Task,2,WOAN27,
Yes-No Task,24,0,24,0,9.1,-1,Hit,0.46735559986,True,-1,stimulus_WOAN27_Yes-No Task_2019_Jun_12_1534_400,-1,True,2019_Jun_12_1534,Yes-No Task,2,WOAN27,
Yes-No Task,25,0,25,0,1.4,-1,Miss,0.567035400076,True,-1,stimulus_WOAN27_Yes-No Task_2019_Jun_12_1534_401,-1,True,2019_Jun_12_1534,Yes-No Task,2,WOAN27,
Yes-No Task,26,0,26,0,12.4,-1,Miss,0.433971100021,True,-1,stimulus_WOAN27_Yes-No Task_2019_Jun_12_1534_402,-1,True,2019_Jun_12_1534,Yes-No Task,2,WOAN27,
Yes-No Task,27,0,27,0,3.8,-1,Correct Rejection,0.566543000052,False,-1,stimulus_WOAN27_Yes-No Task_2019_Jun_12_1534_403,-1,True,2019_Jun_12_1534,Yes-No Task,2,WOAN27,
Yes-No Task,28,0,28,0,1.4,-1,Hit,0.401165600168,True,-1,stimulus_WOAN27_Yes-No Task_2019_Jun_12_1534_404,-1,True,2019_Jun_12_1534,Yes-No Task,2,WOAN27,
Yes-No Task,29,0,29,0,9.1,-1,Hit,0.466887600021,True,-1,stimulus_WOAN27_Yes-No Task_2019_Jun_12_1534_405,-1,True,2019_Jun_12_1534,Yes-No Task,2,WOAN27,
Yes-No Task,30,0,30,0,5.8,-1,False Alarm,0.400475600036,False,-1,stimulus_WOAN27_Yes-No Task_2019_Jun_12_1534_406,-1,True,2019_Jun_12_1534,Yes-No Task,2,WOAN27,
Yes-No Task,31,0,31,0,12.4,-1,Correct Rejection,0.366822700016,False,-1,stimulus_WOAN27_Yes-No Task_2019_Jun_12_1534_407,-1,True,2019_Jun_12_1534,Yes-No Task,2,WOAN27,
Yes-No Task,32,0,32,0,1.4,-1,Miss,0.434371300042,True,-1,stimulus_WOAN27_Yes-No Task_2019_Jun_12_1534_408,-1,True,2019_Jun_12_1534,Yes-No Task,2,WOAN27,
Yes-No Task,33,0,33,0,14.3,-1,Miss,0.300894299988,True,-1,stimulus_WOAN27_Yes-No Task_2019_Jun_12_1534_409,-1,True,2019_Jun_12_1534,Yes-No Task,2,WOAN27,
Yes-No Task,34,0,34,0,14.3,-1,No Answer,-1,False,-1,stimulus_WOAN27_Yes-No Task_2019_Jun_12_1534_410,-1,True,2019_Jun_12_1534,Yes-No Task,2,WOAN27,
Yes-No Task,35,0,35,0,9.1,-1,Correct Rejection,0.367254700046,False,-1,stimulus_WOAN27_Yes-No Task_2019_Jun_12_1534_411,-1,True,2019_Jun_12_1534,Yes-No Task,2,WOAN27,
Yes-No Task,36,0,36,0,3.8,-1,Correct Rejection,0.399591899943,False,-1,stimulus_WOAN27_Yes-No Task_2019_Jun_12_1534_412,-1,True,2019_Jun_12_1534,Yes-No Task,2,WOAN27,
Yes-No Task,37,0,37,0,5.8,-1,Correct Rejection,0.432857600041,False,-1,stimulus_WOAN27_Yes-No Task_2019_Jun_12_1534_413,-1,True,2019_Jun_12_1534,Yes-No Task,2,WOAN27,
Yes-No Task,38,0,38,0,12.4,-1,Hit,0.533924299991,True,-1,stimulus_WOAN27_Yes-No Task_2019_Jun_12_1534_414,-1,True,2019_Jun_12_1534,Yes-No Task,2,WOAN27,
Yes-No Task,39,0,39,0,9.1,-1,Hit,0.534504199866,True,-1,stimulus_WOAN27_Yes-No Task_2019_Jun_12_1534_415,-1,True,2019_Jun_12_1534,Yes-No Task,2,WOAN27,
Yes-No Task,40,0,40,0,12.4,-1,Correct Rejection,0.600654300069,False,-1,stimulus_WOAN27_Yes-No Task_2019_Jun_12_1534_416,-1,True,2019_Jun_12_1534,Yes-No Task,2,WOAN27,
Yes-No Task,41,0,41,0,1.4,-1,Correct Rejection,0.765737700043,False,-1,stimulus_WOAN27_Yes-No Task_2019_Jun_12_1534_417,-1,True,2019_Jun_12_1534,Yes-No Task,2,WOAN27,
Yes-No Task,42,0,42,0,12.4,-1,Correct Rejection,0.5004586,False,-1,stimulus_WOAN27_Yes-No Task_2019_Jun_12_1534_418,-1,True,2019_Jun_12_1534,Yes-No Task,2,WOAN27,
Yes-No Task,43,0,43,0,7.5,-1,Correct Rejection,0.63387749996,False,-1,stimulus_WOAN27_Yes-No Task_2019_Jun_12_1534_419,-1,True,2019_Jun_12_1534,Yes-No Task,2,WOAN27,
Yes-No Task,44,0,44,0,12.4,-1,Correct Rejection,0.500399100129,False,-1,stimulus_WOAN27_Yes-No Task_2019_Jun_12_1534_420,-1,True,2019_Jun_12_1534,Yes-No Task,2,WOAN27,
Yes-No Task,45,0,45,0,12.4,-1,Correct Rejection,0.433990699938,False,-1,stimulus_WOAN27_Yes-No Task_2019_Jun_12_1534_421,-1,True,2019_Jun_12_1534,Yes-No Task,2,WOAN27,
Yes-No Task,46,0,46,0,3.8,-1,Hit,0.567787500098,True,-1,stimulus_WOAN27_Yes-No Task_2019_Jun_12_1534_422,-1,True,2019_Jun_12_1534,Yes-No Task,2,WOAN27,
Yes-No Task,47,0,47,0,14.3,-1,Correct Rejection,0.500577699859,False,-1,stimulus_WOAN27_Yes-No Task_2019_Jun_12_1534_423,-1,True,2019_Jun_12_1534,Yes-No Task,2,WOAN27,
Yes-No Task,48,0,48,0,14.3,-1,Correct Rejection,0.433253099909,False,-1,stimulus_WOAN27_Yes-No Task_2019_Jun_12_1534_424,-1,True,2019_Jun_12_1534,Yes-No Task,2,WOAN27,
Yes-No Task,49,0,49,0,14.3,-1,Hit,0.464581700042,True,-1,stimulus_WOAN27_Yes-No Task_2019_Jun_12_1534_425,-1,True,2019_Jun_12_1534,Yes-No Task,2,WOAN27,
Yes-No Task,50,0,50,0,3.8,-1,Correct Rejection,0.433699400164,False,-1,stimulus_WOAN27_Yes-No Task_2019_Jun_12_1534_426,-1,True,2019_Jun_12_1534,Yes-No Task,2,WOAN27,
Yes-No Task,51,0,51,0,12.4,-1,Hit,0.400647699833,True,-1,stimulus_WOAN27_Yes-No Task_2019_Jun_12_1534_427,-1,True,2019_Jun_12_1534,Yes-No Task,2,WOAN27,
Yes-No Task,52,0,52,0,9.1,-1,Miss,0.332819400122,True,-1,stimulus_WOAN27_Yes-No Task_2019_Jun_12_1534_428,-1,True,2019_Jun_12_1534,Yes-No Task,2,WOAN27,
Yes-No Task,53,0,53,0,12.4,-1,Miss,0.333503399976,True,-1,stimulus_WOAN27_Yes-No Task_2019_Jun_12_1534_429,-1,True,2019_Jun_12_1534,Yes-No Task,2,WOAN27,
Yes-No Task,54,0,54,0,3.8,-1,Miss,0.565799799981,True,-1,stimulus_WOAN27_Yes-No Task_2019_Jun_12_1534_430,-1,True,2019_Jun_12_1534,Yes-No Task,2,WOAN27,
Yes-No Task,55,0,55,0,9.1,-1,Hit,0.534531199839,True,-1,stimulus_WOAN27_Yes-No Task_2019_Jun_12_1534_431,-1,True,2019_Jun_12_1534,Yes-No Task,2,WOAN27,
Yes-No Task,56,0,56,0,14.3,-1,Correct Rejection,0.432700700127,False,-1,stimulus_WOAN27_Yes-No Task_2019_Jun_12_1534_432,-1,True,2019_Jun_12_1534,Yes-No Task,2,WOAN27,
Yes-No Task,57,0,57,0,5.8,-1,False Alarm,0.400847699959,False,-1,stimulus_WOAN27_Yes-No Task_2019_Jun_12_1534_433,-1,True,2019_Jun_12_1534,Yes-No Task,2,WOAN27,
Yes-No Task,58,0,58,0,5.8,-1,Correct Rejection,0.40053809993,False,-1,stimulus_WOAN27_Yes-No Task_2019_Jun_12_1534_434,-1,True,2019_Jun_12_1534,Yes-No Task,2,WOAN27,
Yes-No Task,59,0,59,0,1.4,-1,Correct Rejection,0.534200900001,False,-1,stimulus_WOAN27_Yes-No Task_2019_Jun_12_1534_435,-1,True,2019_Jun_12_1534,Yes-No Task,2,WOAN27,
Yes-No Task,60,0,60,0,14.3,-1,Correct Rejection,0.502618100028,False,-1,stimulus_WOAN27_Yes-No Task_2019_Jun_12_1534_436,-1,True,2019_Jun_12_1534,Yes-No Task,2,WOAN27,
Yes-No Task,61,0,61,0,5.8,-1,Correct Rejection,0.467171600088,False,-1,stimulus_WOAN27_Yes-No Task_2019_Jun_12_1534_437,-1,True,2019_Jun_12_1534,Yes-No Task,2,WOAN27,
Yes-No Task,62,0,62,0,14.3,-1,Hit,0.433355799876,True,-1,stimulus_WOAN27_Yes-No Task_2019_Jun_12_1534_438,-1,True,2019_Jun_12_1534,Yes-No Task,2,WOAN27,
Yes-No Task,63,0,63,0,9.1,-1,Hit,0.633603399852,True,-1,stimulus_WOAN27_Yes-No Task_2019_Jun_12_1534_439,-1,True,2019_Jun_12_1534,Yes-No Task,2,WOAN27,
Yes-No Task,64,0,64,0,9.1,-1,Hit,0.432576599997,True,-1,stimulus_WOAN27_Yes-No Task_2019_Jun_12_1534_440,-1,True,2019_Jun_12_1534,Yes-No Task,2,WOAN27,
Yes-No Task,65,0,65,0,3.8,-1,Correct Rejection,0.500643800013,False,-1,stimulus_WOAN27_Yes-No Task_2019_Jun_12_1534_441,-1,True,2019_Jun_12_1534,Yes-No Task,2,WOAN27,
Yes-No Task,66,0,66,0,14.3,-1,Correct Rejection,0.433450999903,False,-1,stimulus_WOAN27_Yes-No Task_2019_Jun_12_1534_442,-1,True,2019_Jun_12_1534,Yes-No Task,2,WOAN27,
Yes-No Task,67,0,67,0,9.1,-1,Hit,0.434409300098,True,-1,stimulus_WOAN27_Yes-No Task_2019_Jun_12_1534_443,-1,True,2019_Jun_12_1534,Yes-No Task,2,WOAN27,
Yes-No Task,68,0,68,0,1.4,-1,Correct Rejection,0.435099299997,False,-1,stimulus_WOAN27_Yes-No Task_2019_Jun_12_1534_444,-1,True,2019_Jun_12_1534,Yes-No Task,2,WOAN27,
Yes-No Task,69,0,69,0,7.5,-1,Hit,0.433410299942,True,-1,stimulus_WOAN27_Yes-No Task_2019_Jun_12_1534_445,-1,True,2019_Jun_12_1534,Yes-No Task,2,WOAN27,
Yes-No Task,70,0,70,0,9.1,-1,Miss,0.365848300047,True,-1,stimulus_WOAN27_Yes-No Task_2019_Jun_12_1534_446,-1,True,2019_Jun_12_1534,Yes-No Task,2,WOAN27,
Yes-No Task,71,0,71,0,9.1,-1,Miss,0.300396299921,True,-1,stimulus_WOAN27_Yes-No Task_2019_Jun_12_1534_447,-1,True,2019_Jun_12_1534,Yes-No Task,2,WOAN27,
Yes-No Task,72,0,72,0,7.5,-1,Correct Rejection,0.533461199841,False,-1,stimulus_WOAN27_Yes-No Task_2019_Jun_12_1534_448,-1,True,2019_Jun_12_1534,Yes-No Task,2,WOAN27,
Yes-No Task,73,0,73,0,5.8,-1,Miss,0.43688059994,True,-1,stimulus_WOAN27_Yes-No Task_2019_Jun_12_1534_449,-1,True,2019_Jun_12_1534,Yes-No Task,2,WOAN27,
Yes-No Task,74,0,74,0,3.8,-1,Miss,0.534725199919,True,-1,stimulus_WOAN27_Yes-No Task_2019_Jun_12_1534_450,-1,True,2019_Jun_12_1534,Yes-No Task,2,WOAN27,
Yes-No Task,0,0,0,0,7.5,-1,Miss,0.800758500118,True,-1,stimulus_WOAN27_Yes-No Task_2019_Jun_12_1534_451,-1,True,2019_Jun_12_1534,Yes-No Task,2,WOAN27,
Yes-No Task,1,0,1,0,9.1,-1,Correct Rejection,0.434148400091,False,-1,stimulus_WOAN27_Yes-No Task_2019_Jun_12_1534_452,-1,True,2019_Jun_12_1534,Yes-No Task,2,WOAN27,
Yes-No Task,2,0,2,0,10.7,-1,Correct Rejection,0.433987699915,False,-1,stimulus_WOAN27_Yes-No Task_2019_Jun_12_1534_453,-1,True,2019_Jun_12_1534,Yes-No Task,2,WOAN27,
Yes-No Task,3,0,3,0,3.8,-1,Correct Rejection,0.400640199892,False,-1,stimulus_WOAN27_Yes-No Task_2019_Jun_12_1534_454,-1,True,2019_Jun_12_1534,Yes-No Task,2,WOAN27,
Yes-No Task,4,0,4,0,1.4,-1,Miss,0.40047429991,True,-1,stimulus_WOAN27_Yes-No Task_2019_Jun_12_1534_455,-1,True,2019_Jun_12_1534,Yes-No Task,2,WOAN27,
Yes-No Task,5,0,5,0,12.4,-1,Correct Rejection,0.469101499999,False,-1,stimulus_WOAN27_Yes-No Task_2019_Jun_12_1534_456,-1,True,2019_Jun_12_1534,Yes-No Task,2,WOAN27,
Yes-No Task,6,0,6,0,9.1,-1,Hit,0.433606300037,True,-1,stimulus_WOAN27_Yes-No Task_2019_Jun_12_1534_457,-1,True,2019_Jun_12_1534,Yes-No Task,2,WOAN27,
Yes-No Task,7,0,7,0,1.4,-1,Miss,0.433739100117,True,-1,stimulus_WOAN27_Yes-No Task_2019_Jun_12_1534_458,-1,True,2019_Jun_12_1534,Yes-No Task,2,WOAN27,
Yes-No Task,8,0,8,0,9.1,-1,Hit,0.433464299887,True,-1,stimulus_WOAN27_Yes-No Task_2019_Jun_12_1534_459,-1,True,2019_Jun_12_1534,Yes-No Task,2,WOAN27,
Yes-No Task,9,0,9,0,7.5,-1,Correct Rejection,0.4334638,False,-1,stimulus_WOAN27_Yes-No Task_2019_Jun_12_1534_460,-1,True,2019_Jun_12_1534,Yes-No Task,2,WOAN27,
Yes-No Task,10,0,10,0,10.7,-1,Correct Rejection,0.400377199985,False,-1,stimulus_WOAN27_Yes-No Task_2019_Jun_12_1534_461,-1,True,2019_Jun_12_1534,Yes-No Task,2,WOAN27,
Yes-No Task,11,0,11,0,3.8,-1,False Alarm,0.400503900135,False,-1,stimulus_WOAN27_Yes-No Task_2019_Jun_12_1534_462,-1,True,2019_Jun_12_1534,Yes-No Task,2,WOAN27,
Yes-No Task,12,0,12,0,7.5,-1,Correct Rejection,0.567280300194,False,-1,stimulus_WOAN27_Yes-No Task_2019_Jun_12_1534_463,-1,True,2019_Jun_12_1534,Yes-No Task,2,WOAN27,
Yes-No Task,13,0,13,0,9.1,-1,Correct Rejection,0.467008200008,False,-1,stimulus_WOAN27_Yes-No Task_2019_Jun_12_1534_464,-1,True,2019_Jun_12_1534,Yes-No Task,2,WOAN27,
Yes-No Task,14,0,14,0,5.8,-1,Hit,0.400435799966,True,-1,stimulus_WOAN27_Yes-No Task_2019_Jun_12_1534_465,-1,True,2019_Jun_12_1534,Yes-No Task,2,WOAN27,
Yes-No Task,15,0,15,0,7.5,-1,Correct Rejection,0.36718489998,False,-1,stimulus_WOAN27_Yes-No Task_2019_Jun_12_1534_466,-1,True,2019_Jun_12_1534,Yes-No Task,2,WOAN27,
Yes-No Task,16,0,16,0,12.4,-1,Hit,0.466885800008,True,-1,stimulus_WOAN27_Yes-No Task_2019_Jun_12_1534_467,-1,True,2019_Jun_12_1534,Yes-No Task,2,WOAN27,
Yes-No Task,17,0,17,0,10.7,-1,Hit,0.46717999992,True,-1,stimulus_WOAN27_Yes-No Task_2019_Jun_12_1534_468,-1,True,2019_Jun_12_1534,Yes-No Task,2,WOAN27,
Yes-No Task,18,0,18,0,14.3,-1,Hit,0.466473799897,True,-1,stimulus_WOAN27_Yes-No Task_2019_Jun_12_1534_469,-1,True,2019_Jun_12_1534,Yes-No Task,2,WOAN27,
Yes-No Task,19,0,19,0,9.1,-1,Hit,0.431778999977,True,-1,stimulus_WOAN27_Yes-No Task_2019_Jun_12_1534_470,-1,True,2019_Jun_12_1534,Yes-No Task,2,WOAN27,
Yes-No Task,20,0,20,0,12.4,-1,Hit,0.400879200082,True,-1,stimulus_WOAN27_Yes-No Task_2019_Jun_12_1534_471,-1,True,2019_Jun_12_1534,Yes-No Task,2,WOAN27,
Yes-No Task,21,0,21,0,10.7,-1,Correct Rejection,0.467171200085,False,-1,stimulus_WOAN27_Yes-No Task_2019_Jun_12_1534_472,-1,True,2019_Jun_12_1534,Yes-No Task,2,WOAN27,
Yes-No Task,22,0,22,0,10.7,-1,Hit,0.435528100003,True,-1,stimulus_WOAN27_Yes-No Task_2019_Jun_12_1534_473,-1,True,2019_Jun_12_1534,Yes-No Task,2,WOAN27,
Yes-No Task,23,0,23,0,7.5,-1,Correct Rejection,0.466837399872,False,-1,stimulus_WOAN27_Yes-No Task_2019_Jun_12_1534_474,-1,True,2019_Jun_12_1534,Yes-No Task,2,WOAN27,
Yes-No Task,24,0,24,0,5.8,-1,Correct Rejection,0.533623399911,False,-1,stimulus_WOAN27_Yes-No Task_2019_Jun_12_1534_475,-1,True,2019_Jun_12_1534,Yes-No Task,2,WOAN27,
Yes-No Task,25,0,25,0,5.8,-1,Hit,0.433017100208,True,-1,stimulus_WOAN27_Yes-No Task_2019_Jun_12_1534_476,-1,True,2019_Jun_12_1534,Yes-No Task,2,WOAN27,
Yes-No Task,26,0,26,0,7.5,-1,Correct Rejection,0.634063899983,False,-1,stimulus_WOAN27_Yes-No Task_2019_Jun_12_1534_477,-1,True,2019_Jun_12_1534,Yes-No Task,2,WOAN27,
Yes-No Task,27,0,27,0,9.1,-1,Correct Rejection,0.501434799982,False,-1,stimulus_WOAN27_Yes-No Task_2019_Jun_12_1534_478,-1,True,2019_Jun_12_1534,Yes-No Task,2,WOAN27,
Yes-No Task,28,0,28,0,5.8,-1,Miss,0.466391799971,True,-1,stimulus_WOAN27_Yes-No Task_2019_Jun_12_1534_479,-1,True,2019_Jun_12_1534,Yes-No Task,2,WOAN27,
Yes-No Task,29,0,29,0,9.1,-1,Correct Rejection,0.433411999838,False,-1,stimulus_WOAN27_Yes-No Task_2019_Jun_12_1534_480,-1,True,2019_Jun_12_1534,Yes-No Task,2,WOAN27,
Yes-No Task,30,0,30,0,1.4,-1,Correct Rejection,0.533268200001,False,-1,stimulus_WOAN27_Yes-No Task_2019_Jun_12_1534_481,-1,True,2019_Jun_12_1534,Yes-No Task,2,WOAN27,
Yes-No Task,31,0,31,0,14.3,-1,Correct Rejection,0.567623999901,False,-1,stimulus_WOAN27_Yes-No Task_2019_Jun_12_1534_482,-1,True,2019_Jun_12_1534,Yes-No Task,2,WOAN27,
Yes-No Task,32,0,32,0,3.8,-1,Hit,0.467173800105,True,-1,stimulus_WOAN27_Yes-No Task_2019_Jun_12_1534_483,-1,True,2019_Jun_12_1534,Yes-No Task,2,WOAN27,
Yes-No Task,33,0,33,0,5.8,-1,Correct Rejection,0.600327400025,False,-1,stimulus_WOAN27_Yes-No Task_2019_Jun_12_1534_484,-1,True,2019_Jun_12_1534,Yes-No Task,2,WOAN27,
Yes-No Task,34,0,34,0,5.8,-1,Miss,0.600470799953,True,-1,stimulus_WOAN27_Yes-No Task_2019_Jun_12_1534_485,-1,True,2019_Jun_12_1534,Yes-No Task,2,WOAN27,
Yes-No Task,35,0,35,0,7.5,-1,Miss,0.367206600029,True,-1,stimulus_WOAN27_Yes-No Task_2019_Jun_12_1534_486,-1,True,2019_Jun_12_1534,Yes-No Task,2,WOAN27,
Yes-No Task,36,0,36,0,3.8,-1,Correct Rejection,0.500593899982,False,-1,stimulus_WOAN27_Yes-No Task_2019_Jun_12_1534_487,-1,True,2019_Jun_12_1534,Yes-No Task,2,WOAN27,
Yes-No Task,37,0,37,0,12.4,-1,Hit,0.433659699978,True,-1,stimulus_WOAN27_Yes-No Task_2019_Jun_12_1534_488,-1,True,2019_Jun_12_1534,Yes-No Task,2,WOAN27,
Yes-No Task,38,0,38,0,14.3,-1,Hit,0.500540399924,True,-1,stimulus_WOAN27_Yes-No Task_2019_Jun_12_1534_489,-1,True,2019_Jun_12_1534,Yes-No Task,2,WOAN27,
Yes-No Task,39,0,39,0,12.4,-1,Hit,0.500548799988,True,-1,stimulus_WOAN27_Yes-No Task_2019_Jun_12_1534_490,-1,True,2019_Jun_12_1534,Yes-No Task,2,WOAN27,
Yes-No Task,40,0,40,0,3.8,-1,Correct Rejection,0.567557400092,False,-1,stimulus_WOAN27_Yes-No Task_2019_Jun_12_1534_491,-1,True,2019_Jun_12_1534,Yes-No Task,2,WOAN27,
Yes-No Task,41,0,41,0,14.3,-1,Hit,0.534254299942,True,-1,stimulus_WOAN27_Yes-No Task_2019_Jun_12_1534_492,-1,True,2019_Jun_12_1534,Yes-No Task,2,WOAN27,
Yes-No Task,42,0,42,0,1.4,-1,Miss,0.50042940001,True,-1,stimulus_WOAN27_Yes-No Task_2019_Jun_12_1534_493,-1,True,2019_Jun_12_1534,Yes-No Task,2,WOAN27,
Yes-No Task,43,0,43,0,10.7,-1,Correct Rejection,0.534716399852,False,-1,stimulus_WOAN27_Yes-No Task_2019_Jun_12_1534_494,-1,True,2019_Jun_12_1534,Yes-No Task,2,WOAN27,
Yes-No Task,44,0,44,0,5.8,-1,Hit,0.666620099917,True,-1,stimulus_WOAN27_Yes-No Task_2019_Jun_12_1534_495,-1,True,2019_Jun_12_1534,Yes-No Task,2,WOAN27,
Yes-No Task,45,0,45,0,5.8,-1,Correct Rejection,0.565569999861,False,-1,stimulus_WOAN27_Yes-No Task_2019_Jun_12_1534_496,-1,True,2019_Jun_12_1534,Yes-No Task,2,WOAN27,
Yes-No Task,46,0,46,0,9.1,-1,Correct Rejection,0.467298199888,False,-1,stimulus_WOAN27_Yes-No Task_2019_Jun_12_1534_497,-1,True,2019_Jun_12_1534,Yes-No Task,2,WOAN27,
Yes-No Task,47,0,47,0,1.4,-1,Miss,0.50060410006,True,-1,stimulus_WOAN27_Yes-No Task_2019_Jun_12_1534_498,-1,True,2019_Jun_12_1534,Yes-No Task,2,WOAN27,
Yes-No Task,48,0,48,0,9.1,-1,Miss,0.467185899848,True,-1,stimulus_WOAN27_Yes-No Task_2019_Jun_12_1534_499,-1,True,2019_Jun_12_1534,Yes-No Task,2,WOAN27,
Yes-No Task,49,0,49,0,10.7,-1,Correct Rejection,0.432475900045,False,-1,stimulus_WOAN27_Yes-No Task_2019_Jun_12_1534_500,-1,True,2019_Jun_12_1534,Yes-No Task,2,WOAN27,
Yes-No Task,50,0,50,0,9.1,-1,Correct Rejection,0.46690790006,False,-1,stimulus_WOAN27_Yes-No Task_2019_Jun_12_1534_501,-1,True,2019_Jun_12_1534,Yes-No Task,2,WOAN27,
Yes-No Task,51,0,51,0,14.3,-1,Correct Rejection,0.433790300041,False,-1,stimulus_WOAN27_Yes-No Task_2019_Jun_12_1534_502,-1,True,2019_Jun_12_1534,Yes-No Task,2,WOAN27,
Yes-No Task,52,0,52,0,10.7,-1,Correct Rejection,0.432999300072,False,-1,stimulus_WOAN27_Yes-No Task_2019_Jun_12_1534_503,-1,True,2019_Jun_12_1534,Yes-No Task,2,WOAN27,
Yes-No Task,53,0,53,0,14.3,-1,Correct Rejection,0.470386799891,False,-1,stimulus_WOAN27_Yes-No Task_2019_Jun_12_1534_504,-1,True,2019_Jun_12_1534,Yes-No Task,2,WOAN27,
Yes-No Task,54,0,54,0,7.5,-1,Hit,0.635967099806,True,-1,stimulus_WOAN27_Yes-No Task_2019_Jun_12_1534_505,-1,True,2019_Jun_12_1534,Yes-No Task,2,WOAN27,
Yes-No Task,55,0,55,0,7.5,-1,Miss,0.734321099939,True,-1,stimulus_WOAN27_Yes-No Task_2019_Jun_12_1534_506,-1,True,2019_Jun_12_1534,Yes-No Task,2,WOAN27,
Yes-No Task,56,0,56,0,12.4,-1,Correct Rejection,0.532888300018,False,-1,stimulus_WOAN27_Yes-No Task_2019_Jun_12_1534_507,-1,True,2019_Jun_12_1534,Yes-No Task,2,WOAN27,
Yes-No Task,57,0,57,0,10.7,-1,Correct Rejection,0.400120700011,False,-1,stimulus_WOAN27_Yes-No Task_2019_Jun_12_1534_508,-1,True,2019_Jun_12_1534,Yes-No Task,2,WOAN27,
Yes-No Task,58,0,58,0,3.8,-1,Correct Rejection,0.467075299937,False,-1,stimulus_WOAN27_Yes-No Task_2019_Jun_12_1534_509,-1,True,2019_Jun_12_1534,Yes-No Task,2,WOAN27,
Yes-No Task,59,0,59,0,9.1,-1,Correct Rejection,0.467480899999,False,-1,stimulus_WOAN27_Yes-No Task_2019_Jun_12_1534_510,-1,True,2019_Jun_12_1534,Yes-No Task,2,WOAN27,
Yes-No Task,60,0,60,0,9.1,-1,Hit,0.434203600045,True,-1,stimulus_WOAN27_Yes-No Task_2019_Jun_12_1534_511,-1,True,2019_Jun_12_1534,Yes-No Task,2,WOAN27,
Yes-No Task,61,0,61,0,10.7,-1,Hit,0.433686600067,True,-1,stimulus_WOAN27_Yes-No Task_2019_Jun_12_1534_512,-1,True,2019_Jun_12_1534,Yes-No Task,2,WOAN27,
Yes-No Task,62,0,62,0,10.7,-1,Correct Rejection,0.467323099962,False,-1,stimulus_WOAN27_Yes-No Task_2019_Jun_12_1534_513,-1,True,2019_Jun_12_1534,Yes-No Task,2,WOAN27,
Yes-No Task,63,0,63,0,10.7,-1,Hit,0.402177299839,True,-1,stimulus_WOAN27_Yes-No Task_2019_Jun_12_1534_514,-1,True,2019_Jun_12_1534,Yes-No Task,2,WOAN27,
Yes-No Task,64,0,64,0,1.4,-1,Correct Rejection,0.567927999888,False,-1,stimulus_WOAN27_Yes-No Task_2019_Jun_12_1534_515,-1,True,2019_Jun_12_1534,Yes-No Task,2,WOAN27,
Yes-No Task,65,0,65,0,12.4,-1,Correct Rejection,0.500663599931,False,-1,stimulus_WOAN27_Yes-No Task_2019_Jun_12_1534_516,-1,True,2019_Jun_12_1534,Yes-No Task,2,WOAN27,
Yes-No Task,66,0,66,0,7.5,-1,Correct Rejection,0.467232699972,False,-1,stimulus_WOAN27_Yes-No Task_2019_Jun_12_1534_517,-1,True,2019_Jun_12_1534,Yes-No Task,2,WOAN27,
Yes-No Task,67,0,67,0,14.3,-1,Correct Rejection,0.466306500137,False,-1,stimulus_WOAN27_Yes-No Task_2019_Jun_12_1534_518,-1,True,2019_Jun_12_1534,Yes-No Task,2,WOAN27,
Yes-No Task,68,0,68,0,3.8,-1,Miss,0.466967599932,True,-1,stimulus_WOAN27_Yes-No Task_2019_Jun_12_1534_519,-1,True,2019_Jun_12_1534,Yes-No Task,2,WOAN27,
Yes-No Task,69,0,69,0,3.8,-1,Correct Rejection,0.333746199962,False,-1,stimulus_WOAN27_Yes-No Task_2019_Jun_12_1534_520,-1,True,2019_Jun_12_1534,Yes-No Task,2,WOAN27,
Yes-No Task,70,0,70,0,14.3,-1,Correct Rejection,0.400005399948,False,-1,stimulus_WOAN27_Yes-No Task_2019_Jun_12_1534_521,-1,True,2019_Jun_12_1534,Yes-No Task,2,WOAN27,
Yes-No Task,71,0,71,0,5.8,-1,Miss,0.432294700062,True,-1,stimulus_WOAN27_Yes-No Task_2019_Jun_12_1534_522,-1,True,2019_Jun_12_1534,Yes-No Task,2,WOAN27,
Yes-No Task,72,0,72,0,3.8,-1,Correct Rejection,0.432669700123,False,-1,stimulus_WOAN27_Yes-No Task_2019_Jun_12_1534_523,-1,True,2019_Jun_12_1534,Yes-No Task,2,WOAN27,
Yes-No Task,73,0,73,0,1.4,-1,Correct Rejection,0.499751599971,False,-1,stimulus_WOAN27_Yes-No Task_2019_Jun_12_1534_524,-1,True,2019_Jun_12_1534,Yes-No Task,2,WOAN27,
Yes-No Task,74,0,74,0,7.5,-1,Correct Rejection,0.567467800109,False,-1,stimulus_WOAN27_Yes-No Task_2019_Jun_12_1534_525,-1,True,2019_Jun_12_1534,Yes-No Task,2,WOAN27,
Yes-No Task,0,0,0,0,5.8,-1,No Answer,-1,False,-1,stimulus_WOAN27_Yes-No Task_2019_Jun_12_1534_526,-1,True,2019_Jun_12_1534,Yes-No Task,2,WOAN27,
Yes-No Task,1,0,1,0,12.4,-1,Miss,0.60054130014,True,-1,stimulus_WOAN27_Yes-No Task_2019_Jun_12_1534_527,-1,True,2019_Jun_12_1534,Yes-No Task,2,WOAN27,
Yes-No Task,2,0,2,0,3.8,-1,Miss,0.368747499771,True,-1,stimulus_WOAN27_Yes-No Task_2019_Jun_12_1534_528,-1,True,2019_Jun_12_1534,Yes-No Task,2,WOAN27,
Yes-No Task,3,0,3,0,5.8,-1,Correct Rejection,0.500346499961,False,-1,stimulus_WOAN27_Yes-No Task_2019_Jun_12_1534_529,-1,True,2019_Jun_12_1534,Yes-No Task,2,WOAN27,
Yes-No Task,4,0,4,0,10.7,-1,Correct Rejection,0.433678800007,False,-1,stimulus_WOAN27_Yes-No Task_2019_Jun_12_1534_530,-1,True,2019_Jun_12_1534,Yes-No Task,2,WOAN27,
Yes-No Task,5,0,5,0,3.8,-1,Miss,0.467441899935,True,-1,stimulus_WOAN27_Yes-No Task_2019_Jun_12_1534_531,-1,True,2019_Jun_12_1534,Yes-No Task,2,WOAN27,
Yes-No Task,6,0,6,0,3.8,-1,Miss,0.433592499932,True,-1,stimulus_WOAN27_Yes-No Task_2019_Jun_12_1534_532,-1,True,2019_Jun_12_1534,Yes-No Task,2,WOAN27,
Yes-No Task,7,0,7,0,7.5,-1,Miss,0.499013000168,True,-1,stimulus_WOAN27_Yes-No Task_2019_Jun_12_1534_533,-1,True,2019_Jun_12_1534,Yes-No Task,2,WOAN27,
Yes-No Task,8,0,8,0,1.4,-1,No Answer,-1,False,-1,stimulus_WOAN27_Yes-No Task_2019_Jun_12_1534_534,-1,True,2019_Jun_12_1534,Yes-No Task,2,WOAN27,
Yes-No Task,9,0,9,0,7.5,-1,Miss,0.234007399995,True,-1,stimulus_WOAN27_Yes-No Task_2019_Jun_12_1534_535,-1,True,2019_Jun_12_1534,Yes-No Task,2,WOAN27,
Yes-No Task,10,0,10,0,10.7,-1,False Alarm,0.667614399921,False,-1,stimulus_WOAN27_Yes-No Task_2019_Jun_12_1534_536,-1,True,2019_Jun_12_1534,Yes-No Task,2,WOAN27,
Yes-No Task,11,0,11,0,7.5,-1,Correct Rejection,0.333903499879,False,-1,stimulus_WOAN27_Yes-No Task_2019_Jun_12_1534_537,-1,True,2019_Jun_12_1534,Yes-No Task,2,WOAN27,
Yes-No Task,12,0,12,0,12.4,-1,Correct Rejection,0.433874500217,False,-1,stimulus_WOAN27_Yes-No Task_2019_Jun_12_1534_538,-1,True,2019_Jun_12_1534,Yes-No Task,2,WOAN27,
Yes-No Task,13,0,13,0,10.7,-1,Correct Rejection,0.467042200034,False,-1,stimulus_WOAN27_Yes-No Task_2019_Jun_12_1534_539,-1,True,2019_Jun_12_1534,Yes-No Task,2,WOAN27,
Yes-No Task,14,0,14,0,5.8,-1,Miss,0.566843499895,True,-1,stimulus_WOAN27_Yes-No Task_2019_Jun_12_1534_540,-1,True,2019_Jun_12_1534,Yes-No Task,2,WOAN27,
Yes-No Task,15,0,15,0,9.1,-1,Correct Rejection,0.366621099878,False,-1,stimulus_WOAN27_Yes-No Task_2019_Jun_12_1534_541,-1,True,2019_Jun_12_1534,Yes-No Task,2,WOAN27,
Yes-No Task,16,0,16,0,5.8,-1,Correct Rejection,0.434751299908,False,-1,stimulus_WOAN27_Yes-No Task_2019_Jun_12_1534_542,-1,True,2019_Jun_12_1534,Yes-No Task,2,WOAN27,
Yes-No Task,17,0,17,0,3.8,-1,Miss,0.434097899823,True,-1,stimulus_WOAN27_Yes-No Task_2019_Jun_12_1534_543,-1,True,2019_Jun_12_1534,Yes-No Task,2,WOAN27,
Yes-No Task,18,0,18,0,1.4,-1,Correct Rejection,0.333938699914,False,-1,stimulus_WOAN27_Yes-No Task_2019_Jun_12_1534_544,-1,True,2019_Jun_12_1534,Yes-No Task,2,WOAN27,
Yes-No Task,19,0,19,0,12.4,-1,Hit,0.535227200016,True,-1,stimulus_WOAN27_Yes-No Task_2019_Jun_12_1534_545,-1,True,2019_Jun_12_1534,Yes-No Task,2,WOAN27,
Yes-No Task,20,0,20,0,7.5,-1,Hit,0.501577200135,True,-1,stimulus_WOAN27_Yes-No Task_2019_Jun_12_1534_546,-1,True,2019_Jun_12_1534,Yes-No Task,2,WOAN27,
Yes-No Task,21,0,21,0,14.3,-1,Hit,0.46721199993,True,-1,stimulus_WOAN27_Yes-No Task_2019_Jun_12_1534_547,-1,True,2019_Jun_12_1534,Yes-No Task,2,WOAN27,
Yes-No Task,22,0,22,0,1.4,-1,Miss,0.567131199874,True,-1,stimulus_WOAN27_Yes-No Task_2019_Jun_12_1534_548,-1,True,2019_Jun_12_1534,Yes-No Task,2,WOAN27,
Yes-No Task,23,0,23,0,1.4,-1,Correct Rejection,0.400311100064,False,-1,stimulus_WOAN27_Yes-No Task_2019_Jun_12_1534_549,-1,True,2019_Jun_12_1534,Yes-No Task,2,WOAN27,
Yes-No Task,24,0,24,0,10.7,-1,False Alarm,0.467391600134,False,-1,stimulus_WOAN27_Yes-No Task_2019_Jun_12_1534_550,-1,True,2019_Jun_12_1534,Yes-No Task,2,WOAN27,
Yes-No Task,25,0,25,0,3.8,-1,Miss,0.334296199959,True,-1,stimulus_WOAN27_Yes-No Task_2019_Jun_12_1534_551,-1,True,2019_Jun_12_1534,Yes-No Task,2,WOAN27,
Yes-No Task,26,0,26,0,7.5,-1,Miss,0.300155600067,True,-1,stimulus_WOAN27_Yes-No Task_2019_Jun_12_1534_552,-1,True,2019_Jun_12_1534,Yes-No Task,2,WOAN27,
Yes-No Task,27,0,27,0,5.8,-1,Miss,0.433900099946,True,-1,stimulus_WOAN27_Yes-No Task_2019_Jun_12_1534_553,-1,True,2019_Jun_12_1534,Yes-No Task,2,WOAN27,
Yes-No Task,28,0,28,0,12.4,-1,Correct Rejection,0.401349999942,False,-1,stimulus_WOAN27_Yes-No Task_2019_Jun_12_1534_554,-1,True,2019_Jun_12_1534,Yes-No Task,2,WOAN27,
Yes-No Task,29,0,29,0,3.8,-1,Miss,0.63397970004,True,-1,stimulus_WOAN27_Yes-No Task_2019_Jun_12_1534_555,-1,True,2019_Jun_12_1534,Yes-No Task,2,WOAN27,
Yes-No Task,30,0,30,0,1.4,-1,Miss,0.500056500081,True,-1,stimulus_WOAN27_Yes-No Task_2019_Jun_12_1534_556,-1,True,2019_Jun_12_1534,Yes-No Task,2,WOAN27,
Yes-No Task,31,0,31,0,3.8,-1,False Alarm,0.666748400079,False,-1,stimulus_WOAN27_Yes-No Task_2019_Jun_12_1534_557,-1,True,2019_Jun_12_1534,Yes-No Task,2,WOAN27,
Yes-No Task,32,0,32,0,7.5,-1,Correct Rejection,0.36632520007,False,-1,stimulus_WOAN27_Yes-No Task_2019_Jun_12_1534_558,-1,True,2019_Jun_12_1534,Yes-No Task,2,WOAN27,
Yes-No Task,33,0,33,0,1.4,-1,Miss,0.467280799989,True,-1,stimulus_WOAN27_Yes-No Task_2019_Jun_12_1534_559,-1,True,2019_Jun_12_1534,Yes-No Task,2,WOAN27,
Yes-No Task,34,0,34,0,3.8,-1,Correct Rejection,0.468687500106,False,-1,stimulus_WOAN27_Yes-No Task_2019_Jun_12_1534_560,-1,True,2019_Jun_12_1534,Yes-No Task,2,WOAN27,
Yes-No Task,35,0,35,0,9.1,-1,Correct Rejection,0.53379580006,False,-1,stimulus_WOAN27_Yes-No Task_2019_Jun_12_1534_561,-1,True,2019_Jun_12_1534,Yes-No Task,2,WOAN27,
Yes-No Task,36,0,36,0,5.8,-1,False Alarm,0.498857200146,False,-1,stimulus_WOAN27_Yes-No Task_2019_Jun_12_1534_562,-1,True,2019_Jun_12_1534,Yes-No Task,2,WOAN27,
Yes-No Task,37,0,37,0,14.3,-1,Miss,0.366004899843,True,-1,stimulus_WOAN27_Yes-No Task_2019_Jun_12_1534_563,-1,True,2019_Jun_12_1534,Yes-No Task,2,WOAN27,
Yes-No Task,38,0,38,0,1.4,-1,Miss,0.566210999852,True,-1,stimulus_WOAN27_Yes-No Task_2019_Jun_12_1534_564,-1,True,2019_Jun_12_1534,Yes-No Task,2,WOAN27,
Yes-No Task,39,0,39,0,9.1,-1,Correct Rejection,0.600586899789,False,-1,stimulus_WOAN27_Yes-No Task_2019_Jun_12_1534_565,-1,True,2019_Jun_12_1534,Yes-No Task,2,WOAN27,
Yes-No Task,40,0,40,0,14.3,-1,Correct Rejection,0.533776700031,False,-1,stimulus_WOAN27_Yes-No Task_2019_Jun_12_1534_566,-1,True,2019_Jun_12_1534,Yes-No Task,2,WOAN27,
Yes-No Task,41,0,41,0,14.3,-1,Correct Rejection,0.467010600027,False,-1,stimulus_WOAN27_Yes-No Task_2019_Jun_12_1534_567,-1,True,2019_Jun_12_1534,Yes-No Task,2,WOAN27,
Yes-No Task,42,0,42,0,5.8,-1,Correct Rejection,0.535007200204,False,-1,stimulus_WOAN27_Yes-No Task_2019_Jun_12_1534_568,-1,True,2019_Jun_12_1534,Yes-No Task,2,WOAN27,
Yes-No Task,43,0,43,0,14.3,-1,Correct Rejection,0.436075300211,False,-1,stimulus_WOAN27_Yes-No Task_2019_Jun_12_1534_569,-1,True,2019_Jun_12_1534,Yes-No Task,2,WOAN27,
Yes-No Task,44,0,44,0,10.7,-1,Correct Rejection,0.434959200211,False,-1,stimulus_WOAN27_Yes-No Task_2019_Jun_12_1534_570,-1,True,2019_Jun_12_1534,Yes-No Task,2,WOAN27,
Yes-No Task,45,0,45,0,12.4,-1,Correct Rejection,0.531578199938,False,-1,stimulus_WOAN27_Yes-No Task_2019_Jun_12_1534_571,-1,True,2019_Jun_12_1534,Yes-No Task,2,WOAN27,
Yes-No Task,46,0,46,0,1.4,-1,Miss,0.501595299924,True,-1,stimulus_WOAN27_Yes-No Task_2019_Jun_12_1534_572,-1,True,2019_Jun_12_1534,Yes-No Task,2,WOAN27,
Yes-No Task,47,0,47,0,12.4,-1,Hit,0.731363800121,True,-1,stimulus_WOAN27_Yes-No Task_2019_Jun_12_1534_573,-1,True,2019_Jun_12_1534,Yes-No Task,2,WOAN27,
Yes-No Task,48,0,48,0,1.4,-1,Correct Rejection,0.499560700031,False,-1,stimulus_WOAN27_Yes-No Task_2019_Jun_12_1534_574,-1,True,2019_Jun_12_1534,Yes-No Task,2,WOAN27,
Yes-No Task,49,0,49,0,3.8,-1,Correct Rejection,0.498902400024,False,-1,stimulus_WOAN27_Yes-No Task_2019_Jun_12_1534_575,-1,True,2019_Jun_12_1534,Yes-No Task,2,WOAN27,
Yes-No Task,50,0,50,0,5.8,-1,Correct Rejection,0.500174799934,False,-1,stimulus_WOAN27_Yes-No Task_2019_Jun_12_1534_576,-1,True,2019_Jun_12_1534,Yes-No Task,2,WOAN27,
Yes-No Task,51,0,51,0,1.4,-1,Correct Rejection,0.500738600036,False,-1,stimulus_WOAN27_Yes-No Task_2019_Jun_12_1534_577,-1,True,2019_Jun_12_1534,Yes-No Task,2,WOAN27,
Yes-No Task,52,0,52,0,14.3,-1,Hit,0.46741279983,True,-1,stimulus_WOAN27_Yes-No Task_2019_Jun_12_1534_578,-1,True,2019_Jun_12_1534,Yes-No Task,2,WOAN27,
Yes-No Task,53,0,53,0,12.4,-1,Hit,0.467223399784,True,-1,stimulus_WOAN27_Yes-No Task_2019_Jun_12_1534_579,-1,True,2019_Jun_12_1534,Yes-No Task,2,WOAN27,
Yes-No Task,54,0,54,0,9.1,-1,Correct Rejection,0.467690099962,False,-1,stimulus_WOAN27_Yes-No Task_2019_Jun_12_1534_580,-1,True,2019_Jun_12_1534,Yes-No Task,2,WOAN27,
Yes-No Task,55,0,55,0,7.5,-1,Correct Rejection,0.433593000052,False,-1,stimulus_WOAN27_Yes-No Task_2019_Jun_12_1534_581,-1,True,2019_Jun_12_1534,Yes-No Task,2,WOAN27,
Yes-No Task,56,0,56,0,3.8,-1,Miss,0.531440499937,True,-1,stimulus_WOAN27_Yes-No Task_2019_Jun_12_1534_582,-1,True,2019_Jun_12_1534,Yes-No Task,2,WOAN27,
Yes-No Task,57,0,57,0,3.8,-1,Miss,0.401426600059,True,-1,stimulus_WOAN27_Yes-No Task_2019_Jun_12_1534_583,-1,True,2019_Jun_12_1534,Yes-No Task,2,WOAN27,
Yes-No Task,58,0,58,0,10.7,-1,Miss,0.467426300049,True,-1,stimulus_WOAN27_Yes-No Task_2019_Jun_12_1534_584,-1,True,2019_Jun_12_1534,Yes-No Task,2,WOAN27,
Yes-No Task,59,0,59,0,9.1,-1,Correct Rejection,0.434005100047,False,-1,stimulus_WOAN27_Yes-No Task_2019_Jun_12_1534_585,-1,True,2019_Jun_12_1534,Yes-No Task,2,WOAN27,
Yes-No Task,60,0,60,0,12.4,-1,Hit,0.400216699811,True,-1,stimulus_WOAN27_Yes-No Task_2019_Jun_12_1534_586,-1,True,2019_Jun_12_1534,Yes-No Task,2,WOAN27,
Yes-No Task,61,0,61,0,10.7,-1,Hit,0.500487999991,True,-1,stimulus_WOAN27_Yes-No Task_2019_Jun_12_1534_587,-1,True,2019_Jun_12_1534,Yes-No Task,2,WOAN27,
Yes-No Task,62,0,62,0,14.3,-1,Correct Rejection,0.633667699993,False,-1,stimulus_WOAN27_Yes-No Task_2019_Jun_12_1534_588,-1,True,2019_Jun_12_1534,Yes-No Task,2,WOAN27,
Yes-No Task,63,0,63,0,14.3,-1,Hit,0.43411329994,True,-1,stimulus_WOAN27_Yes-No Task_2019_Jun_12_1534_589,-1,True,2019_Jun_12_1534,Yes-No Task,2,WOAN27,
Yes-No Task,64,0,64,0,7.5,-1,Hit,0.433283099905,True,-1,stimulus_WOAN27_Yes-No Task_2019_Jun_12_1534_590,-1,True,2019_Jun_12_1534,Yes-No Task,2,WOAN27,
Yes-No Task,65,0,65,0,14.3,-1,Hit,0.46735039982,True,-1,stimulus_WOAN27_Yes-No Task_2019_Jun_12_1534_591,-1,True,2019_Jun_12_1534,Yes-No Task,2,WOAN27,
Yes-No Task,66,0,66,0,12.4,-1,Correct Rejection,0.533664799994,False,-1,stimulus_WOAN27_Yes-No Task_2019_Jun_12_1534_592,-1,True,2019_Jun_12_1534,Yes-No Task,2,WOAN27,
Yes-No Task,67,0,67,0,7.5,-1,False Alarm,0.467171899974,False,-1,stimulus_WOAN27_Yes-No Task_2019_Jun_12_1534_593,-1,True,2019_Jun_12_1534,Yes-No Task,2,WOAN27,
Yes-No Task,68,0,68,0,7.5,-1,Hit,0.600248000119,True,-1,stimulus_WOAN27_Yes-No Task_2019_Jun_12_1534_594,-1,True,2019_Jun_12_1534,Yes-No Task,2,WOAN27,
Yes-No Task,69,0,69,0,1.4,-1,Miss,0.433975099819,True,-1,stimulus_WOAN27_Yes-No Task_2019_Jun_12_1534_595,-1,True,2019_Jun_12_1534,Yes-No Task,2,WOAN27,
Yes-No Task,70,0,70,0,7.5,-1,Hit,0.399837200064,True,-1,stimulus_WOAN27_Yes-No Task_2019_Jun_12_1534_596,-1,True,2019_Jun_12_1534,Yes-No Task,2,WOAN27,
Yes-No Task,71,0,71,0,3.8,-1,Correct Rejection,0.534949100111,False,-1,stimulus_WOAN27_Yes-No Task_2019_Jun_12_1534_597,-1,True,2019_Jun_12_1534,Yes-No Task,2,WOAN27,
Yes-No Task,72,0,72,0,12.4,-1,Hit,0.566778599983,True,-1,stimulus_WOAN27_Yes-No Task_2019_Jun_12_1534_598,-1,True,2019_Jun_12_1534,Yes-No Task,2,WOAN27,
Yes-No Task,73,0,73,0,12.4,-1,Hit,0.400673600147,True,-1,stimulus_WOAN27_Yes-No Task_2019_Jun_12_1534_599,-1,True,2019_Jun_12_1534,Yes-No Task,2,WOAN27,
Yes-No Task,74,0,74,0,7.5,-1,Miss,0.333731199848,True,-1,stimulus_WOAN27_Yes-No Task_2019_Jun_12_1534_600,-1,True,2019_Jun_12_1534,Yes-No Task,2,WOAN27,
