Task,trials.thisRepN,trials.thisTrialN,trials.thisN,trials.thisIndex,time_response_second,response_2IFCnew,response_key2Interval_2IFCnew,signal_intensity,constant Value,response,time_response,signal_on_stimuluspos1,signal_on_stimuluspos2,stimulus_name_pos1,stimulus_name_pos2,random_intensity,date,expName,session,participant,
2IFCnew,0,0,0,0,0.297791300109,4,Yes,3.8,-1,Miss,0.601634400198,True,False,stimulusWOAN27_2IFCnew_2019_Jun_12_1557_1,stimulusWOAN27_2IFCnew_2019_Jun_12_1557_2,True,2019_Jun_12_1557,2IFCnew,2,WOAN27,
2IFCnew,1,0,1,0,0.233404099941,2,Yes,3.8,-1,Correct Rejection,0.600478200009,False,True,stimulusWOAN27_2IFCnew_2019_Jun_12_1557_3,stimulusWOAN27_2IFCnew_2019_Jun_12_1557_4,True,2019_Jun_12_1557,2IFCnew,2,WOAN27,
2IFCnew,2,0,2,0,-1,3,Yes,14.3,-1,Correct Rejection,0.502018300118,False,True,stimulusWOAN27_2IFCnew_2019_Jun_12_1557_5,stimulusWOAN27_2IFCnew_2019_Jun_12_1557_6,True,2019_Jun_12_1557,2IFCnew,2,WOAN27,
2IFCnew,3,0,3,0,0.2668765001,2,Yes,1.4,-1,Correct Rejection,0.468528199941,False,True,stimulusWOAN27_2IFCnew_2019_Jun_12_1557_7,stimulusWOAN27_2IFCnew_2019_Jun_12_1557_8,True,2019_Jun_12_1557,2IFCnew,2,WOAN27,
2IFCnew,4,0,4,0,-1,2,Yes,5.8,-1,False Alarm,0.600965300109,False,True,stimulusWOAN27_2IFCnew_2019_Jun_12_1557_9,stimulusWOAN27_2IFCnew_2019_Jun_12_1557_10,True,2019_Jun_12_1557,2IFCnew,2,WOAN27,
2IFCnew,5,0,5,0,0.167144400068,2,Yes,5.8,-1,Correct Rejection,0.46706249984,False,True,stimulusWOAN27_2IFCnew_2019_Jun_12_1557_11,stimulusWOAN27_2IFCnew_2019_Jun_12_1557_12,True,2019_Jun_12_1557,2IFCnew,2,WOAN27,
2IFCnew,6,0,6,0,0.20073859999,6,No,14.3,-1,Miss,0.500550199999,True,False,stimulusWOAN27_2IFCnew_2019_Jun_12_1557_13,stimulusWOAN27_2IFCnew_2019_Jun_12_1557_14,True,2019_Jun_12_1557,2IFCnew,2,WOAN27,
2IFCnew,7,0,7,0,0.133161399979,1,No,14.3,-1,Hit,0.564968799939,True,False,stimulusWOAN27_2IFCnew_2019_Jun_12_1557_15,stimulusWOAN27_2IFCnew_2019_Jun_12_1557_16,True,2019_Jun_12_1557,2IFCnew,2,WOAN27,
2IFCnew,8,0,8,0,0.0993592999876,2,Yes,10.7,-1,Correct Rejection,0.533926800126,False,True,stimulusWOAN27_2IFCnew_2019_Jun_12_1557_17,stimulusWOAN27_2IFCnew_2019_Jun_12_1557_18,True,2019_Jun_12_1557,2IFCnew,2,WOAN27,
2IFCnew,9,0,9,0,0.167076500133,2,Yes,3.8,-1,Correct Rejection,0.466319700005,False,True,stimulusWOAN27_2IFCnew_2019_Jun_12_1557_19,stimulusWOAN27_2IFCnew_2019_Jun_12_1557_20,True,2019_Jun_12_1557,2IFCnew,2,WOAN27,
2IFCnew,10,0,10,0,0.100744600175,1,No,7.5,-1,Hit,0.56653099996,True,False,stimulusWOAN27_2IFCnew_2019_Jun_12_1557_21,stimulusWOAN27_2IFCnew_2019_Jun_12_1557_22,True,2019_Jun_12_1557,2IFCnew,2,WOAN27,
2IFCnew,11,0,11,0,0.0665329999756,1,No,10.7,-1,Hit,0.567565599922,True,False,stimulusWOAN27_2IFCnew_2019_Jun_12_1557_23,stimulusWOAN27_2IFCnew_2019_Jun_12_1557_24,True,2019_Jun_12_1557,2IFCnew,2,WOAN27,
2IFCnew,12,0,12,0,-1,2,No,3.8,-1,False Alarm,0.534073400078,False,True,stimulusWOAN27_2IFCnew_2019_Jun_12_1557_25,stimulusWOAN27_2IFCnew_2019_Jun_12_1557_26,True,2019_Jun_12_1557,2IFCnew,2,WOAN27,
2IFCnew,13,0,13,0,0.033947999822,4,Yes,12.4,-1,Miss,0.467031100066,True,False,stimulusWOAN27_2IFCnew_2019_Jun_12_1557_27,stimulusWOAN27_2IFCnew_2019_Jun_12_1557_28,True,2019_Jun_12_1557,2IFCnew,2,WOAN27,
2IFCnew,14,0,14,0,-1,4,Yes,7.5,-1,Miss,0.633557200199,True,False,stimulusWOAN27_2IFCnew_2019_Jun_12_1557_29,stimulusWOAN27_2IFCnew_2019_Jun_12_1557_30,True,2019_Jun_12_1557,2IFCnew,2,WOAN27,
2IFCnew,15,0,15,0,0.366039899876,2,Yes,1.4,-1,Correct Rejection,0.466943300096,False,True,stimulusWOAN27_2IFCnew_2019_Jun_12_1557_31,stimulusWOAN27_2IFCnew_2019_Jun_12_1557_32,True,2019_Jun_12_1557,2IFCnew,2,WOAN27,
2IFCnew,16,0,16,0,0.100440999959,1,No,7.5,-1,Hit,0.535088199889,True,False,stimulusWOAN27_2IFCnew_2019_Jun_12_1557_33,stimulusWOAN27_2IFCnew_2019_Jun_12_1557_34,True,2019_Jun_12_1557,2IFCnew,2,WOAN27,
2IFCnew,17,0,17,0,0.100233300123,4,Yes,1.4,-1,Miss,0.600284199929,True,False,stimulusWOAN27_2IFCnew_2019_Jun_12_1557_35,stimulusWOAN27_2IFCnew_2019_Jun_12_1557_36,True,2019_Jun_12_1557,2IFCnew,2,WOAN27,
2IFCnew,18,0,18,0,0.0668783998117,4,Yes,10.7,-1,Miss,0.567407999886,True,False,stimulusWOAN27_2IFCnew_2019_Jun_12_1557_37,stimulusWOAN27_2IFCnew_2019_Jun_12_1557_38,True,2019_Jun_12_1557,2IFCnew,2,WOAN27,
2IFCnew,19,0,19,0,0.200379700167,4,Yes,5.8,-1,Miss,0.667855799897,True,False,stimulusWOAN27_2IFCnew_2019_Jun_12_1557_39,stimulusWOAN27_2IFCnew_2019_Jun_12_1557_40,True,2019_Jun_12_1557,2IFCnew,2,WOAN27,
2IFCnew,20,0,20,0,0.167156300042,2,Yes,1.4,-1,Correct Rejection,0.534086399944,False,True,stimulusWOAN27_2IFCnew_2019_Jun_12_1557_41,stimulusWOAN27_2IFCnew_2019_Jun_12_1557_42,True,2019_Jun_12_1557,2IFCnew,2,WOAN27,
2IFCnew,21,0,21,0,0.56487110001,2,Yes,1.4,-1,Correct Rejection,0.600830200128,False,True,stimulusWOAN27_2IFCnew_2019_Jun_12_1557_43,stimulusWOAN27_2IFCnew_2019_Jun_12_1557_44,True,2019_Jun_12_1557,2IFCnew,2,WOAN27,
2IFCnew,22,0,22,0,0.23397880001,2,Yes,14.3,-1,Correct Rejection,0.53353629983,False,True,stimulusWOAN27_2IFCnew_2019_Jun_12_1557_45,stimulusWOAN27_2IFCnew_2019_Jun_12_1557_46,True,2019_Jun_12_1557,2IFCnew,2,WOAN27,
2IFCnew,23,0,23,0,0.134195700055,3,No,3.8,-1,False Alarm,0.634786400013,False,True,stimulusWOAN27_2IFCnew_2019_Jun_12_1557_47,stimulusWOAN27_2IFCnew_2019_Jun_12_1557_48,True,2019_Jun_12_1557,2IFCnew,2,WOAN27,
2IFCnew,24,0,24,0,0.166839199839,2,Yes,12.4,-1,Correct Rejection,0.566950900014,False,True,stimulusWOAN27_2IFCnew_2019_Jun_12_1557_49,stimulusWOAN27_2IFCnew_2019_Jun_12_1557_50,True,2019_Jun_12_1557,2IFCnew,2,WOAN27,
2IFCnew,25,0,25,0,0.501920299837,4,Yes,12.4,-1,Miss,0.767666599946,True,False,stimulusWOAN27_2IFCnew_2019_Jun_12_1557_51,stimulusWOAN27_2IFCnew_2019_Jun_12_1557_52,True,2019_Jun_12_1557,2IFCnew,2,WOAN27,
2IFCnew,26,0,26,0,0.168006599881,2,Yes,3.8,-1,Correct Rejection,0.600803500041,False,True,stimulusWOAN27_2IFCnew_2019_Jun_12_1557_53,stimulusWOAN27_2IFCnew_2019_Jun_12_1557_54,True,2019_Jun_12_1557,2IFCnew,2,WOAN27,
2IFCnew,27,0,27,0,0.133514699992,1,No,10.7,-1,Hit,0.500373800052,True,False,stimulusWOAN27_2IFCnew_2019_Jun_12_1557_55,stimulusWOAN27_2IFCnew_2019_Jun_12_1557_56,True,2019_Jun_12_1557,2IFCnew,2,WOAN27,
2IFCnew,28,0,28,0,-1,0,No,7.5,-1,No Answer,-1,True,False,stimulusWOAN27_2IFCnew_2019_Jun_12_1557_57,stimulusWOAN27_2IFCnew_2019_Jun_12_1557_58,True,2019_Jun_12_1557,2IFCnew,2,WOAN27,
2IFCnew,29,0,29,0,-1,1,No,14.3,-1,Hit,0.601222200086,True,False,stimulusWOAN27_2IFCnew_2019_Jun_12_1557_59,stimulusWOAN27_2IFCnew_2019_Jun_12_1557_60,True,2019_Jun_12_1557,2IFCnew,2,WOAN27,
2IFCnew,30,0,30,0,0.166536099976,2,Yes,5.8,-1,Correct Rejection,0.500510300044,False,True,stimulusWOAN27_2IFCnew_2019_Jun_12_1557_61,stimulusWOAN27_2IFCnew_2019_Jun_12_1557_62,True,2019_Jun_12_1557,2IFCnew,2,WOAN27,
2IFCnew,31,0,31,0,0.132577199955,1,No,12.4,-1,Hit,0.534101899946,True,False,stimulusWOAN27_2IFCnew_2019_Jun_12_1557_63,stimulusWOAN27_2IFCnew_2019_Jun_12_1557_64,True,2019_Jun_12_1557,2IFCnew,2,WOAN27,
2IFCnew,32,0,32,0,0.132786399918,1,No,12.4,-1,Hit,0.534955600044,True,False,stimulusWOAN27_2IFCnew_2019_Jun_12_1557_65,stimulusWOAN27_2IFCnew_2019_Jun_12_1557_66,True,2019_Jun_12_1557,2IFCnew,2,WOAN27,
2IFCnew,33,0,33,0,0.301238699816,6,No,9.1,-1,Miss,0.500832499936,True,False,stimulusWOAN27_2IFCnew_2019_Jun_12_1557_67,stimulusWOAN27_2IFCnew_2019_Jun_12_1557_68,True,2019_Jun_12_1557,2IFCnew,2,WOAN27,
2IFCnew,34,0,34,0,0.0996827001218,3,No,9.1,-1,False Alarm,0.498259099899,False,True,stimulusWOAN27_2IFCnew_2019_Jun_12_1557_69,stimulusWOAN27_2IFCnew_2019_Jun_12_1557_70,True,2019_Jun_12_1557,2IFCnew,2,WOAN27,
2IFCnew,35,0,35,0,0.135642600013,2,Yes,5.8,-1,Correct Rejection,0.498621099861,False,True,stimulusWOAN27_2IFCnew_2019_Jun_12_1557_71,stimulusWOAN27_2IFCnew_2019_Jun_12_1557_72,True,2019_Jun_12_1557,2IFCnew,2,WOAN27,
2IFCnew,36,0,36,0,0.134746500058,2,Yes,1.4,-1,Correct Rejection,0.50023640017,False,True,stimulusWOAN27_2IFCnew_2019_Jun_12_1557_73,stimulusWOAN27_2IFCnew_2019_Jun_12_1557_74,True,2019_Jun_12_1557,2IFCnew,2,WOAN27,
2IFCnew,37,0,37,0,0.233832000056,4,Yes,9.1,-1,Miss,0.667637499981,True,False,stimulusWOAN27_2IFCnew_2019_Jun_12_1557_75,stimulusWOAN27_2IFCnew_2019_Jun_12_1557_76,True,2019_Jun_12_1557,2IFCnew,2,WOAN27,
2IFCnew,38,0,38,0,0.433516999939,4,Yes,12.4,-1,Miss,0.499305999838,True,False,stimulusWOAN27_2IFCnew_2019_Jun_12_1557_77,stimulusWOAN27_2IFCnew_2019_Jun_12_1557_78,True,2019_Jun_12_1557,2IFCnew,2,WOAN27,
2IFCnew,39,0,39,0,-1,3,Yes,3.8,-1,Correct Rejection,0.43370230007,False,True,stimulusWOAN27_2IFCnew_2019_Jun_12_1557_79,stimulusWOAN27_2IFCnew_2019_Jun_12_1557_80,True,2019_Jun_12_1557,2IFCnew,2,WOAN27,
2IFCnew,40,0,40,0,0.1998073,2,Yes,5.8,-1,Correct Rejection,0.633792200126,False,True,stimulusWOAN27_2IFCnew_2019_Jun_12_1557_81,stimulusWOAN27_2IFCnew_2019_Jun_12_1557_82,True,2019_Jun_12_1557,2IFCnew,2,WOAN27,
2IFCnew,41,0,41,0,0.0996884000488,1,No,3.8,-1,Hit,0.567449100083,True,False,stimulusWOAN27_2IFCnew_2019_Jun_12_1557_83,stimulusWOAN27_2IFCnew_2019_Jun_12_1557_84,True,2019_Jun_12_1557,2IFCnew,2,WOAN27,
2IFCnew,42,0,42,0,0.0688368000556,2,Yes,5.8,-1,Correct Rejection,0.500416900031,False,True,stimulusWOAN27_2IFCnew_2019_Jun_12_1557_85,stimulusWOAN27_2IFCnew_2019_Jun_12_1557_86,True,2019_Jun_12_1557,2IFCnew,2,WOAN27,
2IFCnew,43,0,43,0,0.465918899979,3,No,14.3,-1,False Alarm,0.50072770007,False,True,stimulusWOAN27_2IFCnew_2019_Jun_12_1557_87,stimulusWOAN27_2IFCnew_2019_Jun_12_1557_88,True,2019_Jun_12_1557,2IFCnew,2,WOAN27,
2IFCnew,44,0,44,0,0.567100099986,4,Yes,12.4,-1,Miss,0.900649999967,True,False,stimulusWOAN27_2IFCnew_2019_Jun_12_1557_89,stimulusWOAN27_2IFCnew_2019_Jun_12_1557_90,True,2019_Jun_12_1557,2IFCnew,2,WOAN27,
2IFCnew,45,0,45,0,0.333270500181,1,No,14.3,-1,Hit,0.900897100102,True,False,stimulusWOAN27_2IFCnew_2019_Jun_12_1557_91,stimulusWOAN27_2IFCnew_2019_Jun_12_1557_92,True,2019_Jun_12_1557,2IFCnew,2,WOAN27,
2IFCnew,46,0,46,0,0.0343514000997,1,No,14.3,-1,Hit,0.700774600031,True,False,stimulusWOAN27_2IFCnew_2019_Jun_12_1557_93,stimulusWOAN27_2IFCnew_2019_Jun_12_1557_94,True,2019_Jun_12_1557,2IFCnew,2,WOAN27,
2IFCnew,47,0,47,0,0.0994629000779,2,Yes,12.4,-1,Correct Rejection,0.500598799903,False,True,stimulusWOAN27_2IFCnew_2019_Jun_12_1557_95,stimulusWOAN27_2IFCnew_2019_Jun_12_1557_96,True,2019_Jun_12_1557,2IFCnew,2,WOAN27,
2IFCnew,48,0,48,0,0.133124999935,1,No,5.8,-1,Hit,0.534445199883,True,False,stimulusWOAN27_2IFCnew_2019_Jun_12_1557_97,stimulusWOAN27_2IFCnew_2019_Jun_12_1557_98,True,2019_Jun_12_1557,2IFCnew,2,WOAN27,
2IFCnew,49,0,49,0,0.299661800032,1,No,9.1,-1,Hit,0.66886869981,True,False,stimulusWOAN27_2IFCnew_2019_Jun_12_1557_99,stimulusWOAN27_2IFCnew_2019_Jun_12_1557_100,True,2019_Jun_12_1557,2IFCnew,2,WOAN27,
2IFCnew,50,0,50,0,0.133419499965,1,No,9.1,-1,Hit,0.564175799955,True,False,stimulusWOAN27_2IFCnew_2019_Jun_12_1557_101,stimulusWOAN27_2IFCnew_2019_Jun_12_1557_102,True,2019_Jun_12_1557,2IFCnew,2,WOAN27,
2IFCnew,51,0,51,0,0.167182500008,2,Yes,1.4,-1,Correct Rejection,0.599517100025,False,True,stimulusWOAN27_2IFCnew_2019_Jun_12_1557_103,stimulusWOAN27_2IFCnew_2019_Jun_12_1557_104,True,2019_Jun_12_1557,2IFCnew,2,WOAN27,
2IFCnew,52,0,52,0,0.0654692000244,1,No,9.1,-1,Hit,0.53325149999,True,False,stimulusWOAN27_2IFCnew_2019_Jun_12_1557_105,stimulusWOAN27_2IFCnew_2019_Jun_12_1557_106,True,2019_Jun_12_1557,2IFCnew,2,WOAN27,
2IFCnew,53,0,53,0,0.100144299911,1,No,5.8,-1,Hit,0.600451000035,True,False,stimulusWOAN27_2IFCnew_2019_Jun_12_1557_107,stimulusWOAN27_2IFCnew_2019_Jun_12_1557_108,True,2019_Jun_12_1557,2IFCnew,2,WOAN27,
2IFCnew,54,0,54,0,0.399833099917,6,No,12.4,-1,Miss,0.667088499991,True,False,stimulusWOAN27_2IFCnew_2019_Jun_12_1557_109,stimulusWOAN27_2IFCnew_2019_Jun_12_1557_110,True,2019_Jun_12_1557,2IFCnew,2,WOAN27,
2IFCnew,55,0,55,0,0.167562999995,1,No,10.7,-1,Hit,0.53405050002,True,False,stimulusWOAN27_2IFCnew_2019_Jun_12_1557_111,stimulusWOAN27_2IFCnew_2019_Jun_12_1557_112,True,2019_Jun_12_1557,2IFCnew,2,WOAN27,
2IFCnew,56,0,56,0,0.301822500071,2,Yes,1.4,-1,Correct Rejection,0.600117400056,False,True,stimulusWOAN27_2IFCnew_2019_Jun_12_1557_113,stimulusWOAN27_2IFCnew_2019_Jun_12_1557_114,True,2019_Jun_12_1557,2IFCnew,2,WOAN27,
2IFCnew,57,0,57,0,0.333270000061,2,Yes,10.7,-1,Correct Rejection,0.501326500205,False,True,stimulusWOAN27_2IFCnew_2019_Jun_12_1557_115,stimulusWOAN27_2IFCnew_2019_Jun_12_1557_116,True,2019_Jun_12_1557,2IFCnew,2,WOAN27,
2IFCnew,58,0,58,0,0.133198700147,5,Yes,7.5,-1,False Alarm,0.467337999959,False,True,stimulusWOAN27_2IFCnew_2019_Jun_12_1557_117,stimulusWOAN27_2IFCnew_2019_Jun_12_1557_118,True,2019_Jun_12_1557,2IFCnew,2,WOAN27,
2IFCnew,59,0,59,0,0.100507299881,4,Yes,1.4,-1,Miss,0.466425099876,True,False,stimulusWOAN27_2IFCnew_2019_Jun_12_1557_119,stimulusWOAN27_2IFCnew_2019_Jun_12_1557_120,True,2019_Jun_12_1557,2IFCnew,2,WOAN27,
2IFCnew,60,0,60,0,0.300636499887,2,Yes,12.4,-1,Correct Rejection,0.668670699932,False,True,stimulusWOAN27_2IFCnew_2019_Jun_12_1557_121,stimulusWOAN27_2IFCnew_2019_Jun_12_1557_122,True,2019_Jun_12_1557,2IFCnew,2,WOAN27,
2IFCnew,61,0,61,0,0.36700269999,2,Yes,1.4,-1,Correct Rejection,0.46591369994,False,True,stimulusWOAN27_2IFCnew_2019_Jun_12_1557_123,stimulusWOAN27_2IFCnew_2019_Jun_12_1557_124,True,2019_Jun_12_1557,2IFCnew,2,WOAN27,
2IFCnew,62,0,62,0,0.101222899975,2,Yes,12.4,-1,Correct Rejection,0.467155199964,False,True,stimulusWOAN27_2IFCnew_2019_Jun_12_1557_125,stimulusWOAN27_2IFCnew_2019_Jun_12_1557_126,True,2019_Jun_12_1557,2IFCnew,2,WOAN27,
2IFCnew,63,0,63,0,0.368262100033,1,No,12.4,-1,Hit,0.768095599953,True,False,stimulusWOAN27_2IFCnew_2019_Jun_12_1557_127,stimulusWOAN27_2IFCnew_2019_Jun_12_1557_128,True,2019_Jun_12_1557,2IFCnew,2,WOAN27,
2IFCnew,64,0,64,0,0.200630499981,4,Yes,3.8,-1,Miss,0.568848999916,True,False,stimulusWOAN27_2IFCnew_2019_Jun_12_1557_129,stimulusWOAN27_2IFCnew_2019_Jun_12_1557_130,True,2019_Jun_12_1557,2IFCnew,2,WOAN27,
2IFCnew,65,0,65,0,0.0671073999256,1,No,10.7,-1,Hit,0.634917199844,True,False,stimulusWOAN27_2IFCnew_2019_Jun_12_1557_131,stimulusWOAN27_2IFCnew_2019_Jun_12_1557_132,True,2019_Jun_12_1557,2IFCnew,2,WOAN27,
2IFCnew,66,0,66,0,-1,1,No,9.1,-1,Hit,0.500651699957,True,False,stimulusWOAN27_2IFCnew_2019_Jun_12_1557_133,stimulusWOAN27_2IFCnew_2019_Jun_12_1557_134,True,2019_Jun_12_1557,2IFCnew,2,WOAN27,
2IFCnew,67,0,67,0,0.0337896000128,4,Yes,3.8,-1,Miss,0.533776900033,True,False,stimulusWOAN27_2IFCnew_2019_Jun_12_1557_135,stimulusWOAN27_2IFCnew_2019_Jun_12_1557_136,True,2019_Jun_12_1557,2IFCnew,2,WOAN27,
2IFCnew,68,0,68,0,-1,1,Yes,3.8,-1,Hit,0.634011300048,True,False,stimulusWOAN27_2IFCnew_2019_Jun_12_1557_137,stimulusWOAN27_2IFCnew_2019_Jun_12_1557_138,True,2019_Jun_12_1557,2IFCnew,2,WOAN27,
2IFCnew,69,0,69,0,0.200023300014,3,No,10.7,-1,False Alarm,0.667273500003,False,True,stimulusWOAN27_2IFCnew_2019_Jun_12_1557_139,stimulusWOAN27_2IFCnew_2019_Jun_12_1557_140,True,2019_Jun_12_1557,2IFCnew,2,WOAN27,
2IFCnew,70,0,70,0,0.332807299914,2,Yes,10.7,-1,Correct Rejection,0.601169900037,False,True,stimulusWOAN27_2IFCnew_2019_Jun_12_1557_141,stimulusWOAN27_2IFCnew_2019_Jun_12_1557_142,True,2019_Jun_12_1557,2IFCnew,2,WOAN27,
2IFCnew,71,0,71,0,0.335059399949,3,No,12.4,-1,False Alarm,0.66737219994,False,True,stimulusWOAN27_2IFCnew_2019_Jun_12_1557_143,stimulusWOAN27_2IFCnew_2019_Jun_12_1557_144,True,2019_Jun_12_1557,2IFCnew,2,WOAN27,
2IFCnew,72,0,72,0,0.266626399942,2,Yes,3.8,-1,Correct Rejection,0.633788099978,False,True,stimulusWOAN27_2IFCnew_2019_Jun_12_1557_145,stimulusWOAN27_2IFCnew_2019_Jun_12_1557_146,True,2019_Jun_12_1557,2IFCnew,2,WOAN27,
2IFCnew,73,0,73,0,0.0337189000566,2,Yes,14.3,-1,Correct Rejection,0.468434700044,False,True,stimulusWOAN27_2IFCnew_2019_Jun_12_1557_147,stimulusWOAN27_2IFCnew_2019_Jun_12_1557_148,True,2019_Jun_12_1557,2IFCnew,2,WOAN27,
2IFCnew,74,0,74,0,0.166820900049,1,No,5.8,-1,Hit,0.600685599959,True,False,stimulusWOAN27_2IFCnew_2019_Jun_12_1557_149,stimulusWOAN27_2IFCnew_2019_Jun_12_1557_150,True,2019_Jun_12_1557,2IFCnew,2,WOAN27,
2IFCnew,0,0,0,0,-1,1,No,12.4,-1,Hit,0.500822699862,True,False,stimulusWOAN27_2IFCnew_2019_Jun_12_1557_151,stimulusWOAN27_2IFCnew_2019_Jun_12_1557_152,True,2019_Jun_12_1557,2IFCnew,2,WOAN27,
2IFCnew,1,0,1,0,0.232880500145,2,Yes,9.1,-1,Correct Rejection,0.632994599873,False,True,stimulusWOAN27_2IFCnew_2019_Jun_12_1557_153,stimulusWOAN27_2IFCnew_2019_Jun_12_1557_154,True,2019_Jun_12_1557,2IFCnew,2,WOAN27,
2IFCnew,2,0,2,0,0.300034800079,1,No,12.4,-1,Hit,0.600721900119,True,False,stimulusWOAN27_2IFCnew_2019_Jun_12_1557_155,stimulusWOAN27_2IFCnew_2019_Jun_12_1557_156,True,2019_Jun_12_1557,2IFCnew,2,WOAN27,
2IFCnew,3,0,3,0,0.333674299996,2,Yes,12.4,-1,Correct Rejection,0.633239399875,False,True,stimulusWOAN27_2IFCnew_2019_Jun_12_1557_157,stimulusWOAN27_2IFCnew_2019_Jun_12_1557_158,True,2019_Jun_12_1557,2IFCnew,2,WOAN27,
2IFCnew,4,0,4,0,0.56795200007,3,No,3.8,-1,False Alarm,0.70118780015,False,True,stimulusWOAN27_2IFCnew_2019_Jun_12_1557_159,stimulusWOAN27_2IFCnew_2019_Jun_12_1557_160,True,2019_Jun_12_1557,2IFCnew,2,WOAN27,
2IFCnew,5,0,5,0,0.600589900045,2,Yes,9.1,-1,Correct Rejection,0.600739600137,False,True,stimulusWOAN27_2IFCnew_2019_Jun_12_1557_161,stimulusWOAN27_2IFCnew_2019_Jun_12_1557_162,True,2019_Jun_12_1557,2IFCnew,2,WOAN27,
2IFCnew,6,0,6,0,0.267049199902,1,No,10.7,-1,Hit,0.60218799999,True,False,stimulusWOAN27_2IFCnew_2019_Jun_12_1557_163,stimulusWOAN27_2IFCnew_2019_Jun_12_1557_164,True,2019_Jun_12_1557,2IFCnew,2,WOAN27,
2IFCnew,7,0,7,0,0.599978799932,3,No,12.4,-1,False Alarm,0.635130099952,False,True,stimulusWOAN27_2IFCnew_2019_Jun_12_1557_165,stimulusWOAN27_2IFCnew_2019_Jun_12_1557_166,True,2019_Jun_12_1557,2IFCnew,2,WOAN27,
2IFCnew,8,0,8,0,0.166991599835,4,Yes,1.4,-1,Miss,0.533042599913,True,False,stimulusWOAN27_2IFCnew_2019_Jun_12_1557_167,stimulusWOAN27_2IFCnew_2019_Jun_12_1557_168,True,2019_Jun_12_1557,2IFCnew,2,WOAN27,
2IFCnew,9,0,9,0,0.133107400034,3,No,1.4,-1,False Alarm,0.567643400049,False,True,stimulusWOAN27_2IFCnew_2019_Jun_12_1557_169,stimulusWOAN27_2IFCnew_2019_Jun_12_1557_170,True,2019_Jun_12_1557,2IFCnew,2,WOAN27,
2IFCnew,10,0,10,0,0.500135200098,6,No,7.5,-1,Miss,0.63364769984,True,False,stimulusWOAN27_2IFCnew_2019_Jun_12_1557_171,stimulusWOAN27_2IFCnew_2019_Jun_12_1557_172,True,2019_Jun_12_1557,2IFCnew,2,WOAN27,
2IFCnew,11,0,11,0,0.133112299955,8,No,3.8,-1,Correct Rejection,0.50036960002,False,True,stimulusWOAN27_2IFCnew_2019_Jun_12_1557_173,stimulusWOAN27_2IFCnew_2019_Jun_12_1557_174,True,2019_Jun_12_1557,2IFCnew,2,WOAN27,
2IFCnew,12,0,12,0,0.0666400000919,3,No,14.3,-1,False Alarm,0.401225200156,False,True,stimulusWOAN27_2IFCnew_2019_Jun_12_1557_175,stimulusWOAN27_2IFCnew_2019_Jun_12_1557_176,True,2019_Jun_12_1557,2IFCnew,2,WOAN27,
2IFCnew,13,0,13,0,0.734563099919,1,No,7.5,-1,Hit,0.53352720011,True,False,stimulusWOAN27_2IFCnew_2019_Jun_12_1557_177,stimulusWOAN27_2IFCnew_2019_Jun_12_1557_178,True,2019_Jun_12_1557,2IFCnew,2,WOAN27,
2IFCnew,14,0,14,0,0.30125070014,1,No,10.7,-1,Hit,0.733460700139,True,False,stimulusWOAN27_2IFCnew_2019_Jun_12_1557_179,stimulusWOAN27_2IFCnew_2019_Jun_12_1557_180,True,2019_Jun_12_1557,2IFCnew,2,WOAN27,
2IFCnew,15,0,15,0,0.166546900058,2,Yes,1.4,-1,Correct Rejection,0.567248799838,False,True,stimulusWOAN27_2IFCnew_2019_Jun_12_1557_181,stimulusWOAN27_2IFCnew_2019_Jun_12_1557_182,True,2019_Jun_12_1557,2IFCnew,2,WOAN27,
2IFCnew,16,0,16,0,0.133431500057,3,No,1.4,-1,False Alarm,0.633381400025,False,True,stimulusWOAN27_2IFCnew_2019_Jun_12_1557_183,stimulusWOAN27_2IFCnew_2019_Jun_12_1557_184,True,2019_Jun_12_1557,2IFCnew,2,WOAN27,
2IFCnew,17,0,17,0,0.167127199937,1,No,7.5,-1,Hit,0.533683600137,True,False,stimulusWOAN27_2IFCnew_2019_Jun_12_1557_185,stimulusWOAN27_2IFCnew_2019_Jun_12_1557_186,True,2019_Jun_12_1557,2IFCnew,2,WOAN27,
2IFCnew,18,0,18,0,0.133155700052,2,Yes,14.3,-1,Correct Rejection,0.499642399838,False,True,stimulusWOAN27_2IFCnew_2019_Jun_12_1557_187,stimulusWOAN27_2IFCnew_2019_Jun_12_1557_188,True,2019_Jun_12_1557,2IFCnew,2,WOAN27,
2IFCnew,19,0,19,0,0.667409100104,3,No,3.8,-1,False Alarm,0.7006788,False,True,stimulusWOAN27_2IFCnew_2019_Jun_12_1557_189,stimulusWOAN27_2IFCnew_2019_Jun_12_1557_190,True,2019_Jun_12_1557,2IFCnew,2,WOAN27,
2IFCnew,20,0,20,0,0.333830500022,3,No,7.5,-1,False Alarm,0.466617299942,False,True,stimulusWOAN27_2IFCnew_2019_Jun_12_1557_191,stimulusWOAN27_2IFCnew_2019_Jun_12_1557_192,True,2019_Jun_12_1557,2IFCnew,2,WOAN27,
2IFCnew,21,0,21,0,0.100243600085,4,Yes,1.4,-1,Miss,0.468330200063,True,False,stimulusWOAN27_2IFCnew_2019_Jun_12_1557_193,stimulusWOAN27_2IFCnew_2019_Jun_12_1557_194,True,2019_Jun_12_1557,2IFCnew,2,WOAN27,
2IFCnew,22,0,22,0,0.166932299966,1,No,7.5,-1,Hit,0.467052599881,True,False,stimulusWOAN27_2IFCnew_2019_Jun_12_1557_195,stimulusWOAN27_2IFCnew_2019_Jun_12_1557_196,True,2019_Jun_12_1557,2IFCnew,2,WOAN27,
2IFCnew,23,0,23,0,0.134018899873,1,No,1.4,-1,Hit,0.600613099989,True,False,stimulusWOAN27_2IFCnew_2019_Jun_12_1557_197,stimulusWOAN27_2IFCnew_2019_Jun_12_1557_198,True,2019_Jun_12_1557,2IFCnew,2,WOAN27,
2IFCnew,24,0,24,0,0.233750100015,3,No,7.5,-1,False Alarm,0.601802500198,False,True,stimulusWOAN27_2IFCnew_2019_Jun_12_1557_199,stimulusWOAN27_2IFCnew_2019_Jun_12_1557_200,True,2019_Jun_12_1557,2IFCnew,2,WOAN27,
2IFCnew,25,0,25,0,0.266597799957,4,Yes,1.4,-1,Miss,0.634622399928,True,False,stimulusWOAN27_2IFCnew_2019_Jun_12_1557_201,stimulusWOAN27_2IFCnew_2019_Jun_12_1557_202,True,2019_Jun_12_1557,2IFCnew,2,WOAN27,
2IFCnew,26,0,26,0,-1,2,Yes,12.4,-1,False Alarm,0.567596399924,False,True,stimulusWOAN27_2IFCnew_2019_Jun_12_1557_203,stimulusWOAN27_2IFCnew_2019_Jun_12_1557_204,True,2019_Jun_12_1557,2IFCnew,2,WOAN27,
2IFCnew,27,0,27,0,0.500896299956,4,Yes,1.4,-1,Miss,0.601528599858,True,False,stimulusWOAN27_2IFCnew_2019_Jun_12_1557_205,stimulusWOAN27_2IFCnew_2019_Jun_12_1557_206,True,2019_Jun_12_1557,2IFCnew,2,WOAN27,
2IFCnew,28,0,28,0,0.066395400092,3,No,5.8,-1,False Alarm,0.601833600085,False,True,stimulusWOAN27_2IFCnew_2019_Jun_12_1557_207,stimulusWOAN27_2IFCnew_2019_Jun_12_1557_208,True,2019_Jun_12_1557,2IFCnew,2,WOAN27,
2IFCnew,29,0,29,0,0.0335508999415,2,Yes,14.3,-1,Correct Rejection,0.501158300089,False,True,stimulusWOAN27_2IFCnew_2019_Jun_12_1557_209,stimulusWOAN27_2IFCnew_2019_Jun_12_1557_210,True,2019_Jun_12_1557,2IFCnew,2,WOAN27,
2IFCnew,30,0,30,0,0.13429019996,2,Yes,3.8,-1,Correct Rejection,0.534954200033,False,True,stimulusWOAN27_2IFCnew_2019_Jun_12_1557_211,stimulusWOAN27_2IFCnew_2019_Jun_12_1557_212,True,2019_Jun_12_1557,2IFCnew,2,WOAN27,
2IFCnew,31,0,31,0,0.233747299993,4,Yes,5.8,-1,Miss,0.50012099999,True,False,stimulusWOAN27_2IFCnew_2019_Jun_12_1557_213,stimulusWOAN27_2IFCnew_2019_Jun_12_1557_214,True,2019_Jun_12_1557,2IFCnew,2,WOAN27,
2IFCnew,32,0,32,0,0.100431900006,1,No,5.8,-1,Hit,0.633940599859,True,False,stimulusWOAN27_2IFCnew_2019_Jun_12_1557_215,stimulusWOAN27_2IFCnew_2019_Jun_12_1557_216,True,2019_Jun_12_1557,2IFCnew,2,WOAN27,
2IFCnew,33,0,33,0,0.266420900123,1,No,10.7,-1,Hit,0.734318099916,True,False,stimulusWOAN27_2IFCnew_2019_Jun_12_1557_217,stimulusWOAN27_2IFCnew_2019_Jun_12_1557_218,True,2019_Jun_12_1557,2IFCnew,2,WOAN27,
2IFCnew,34,0,34,0,0.267132499954,1,No,9.1,-1,Hit,0.636488500051,True,False,stimulusWOAN27_2IFCnew_2019_Jun_12_1557_219,stimulusWOAN27_2IFCnew_2019_Jun_12_1557_220,True,2019_Jun_12_1557,2IFCnew,2,WOAN27,
2IFCnew,35,0,35,0,0.133465099847,2,Yes,14.3,-1,Correct Rejection,0.635303399991,False,True,stimulusWOAN27_2IFCnew_2019_Jun_12_1557_221,stimulusWOAN27_2IFCnew_2019_Jun_12_1557_222,True,2019_Jun_12_1557,2IFCnew,2,WOAN27,
2IFCnew,36,0,36,0,0.100886200089,2,Yes,5.8,-1,Correct Rejection,0.601455399999,False,True,stimulusWOAN27_2IFCnew_2019_Jun_12_1557_223,stimulusWOAN27_2IFCnew_2019_Jun_12_1557_224,True,2019_Jun_12_1557,2IFCnew,2,WOAN27,
2IFCnew,37,0,37,0,-1,3,Yes,10.7,-1,Correct Rejection,0.60117290006,False,True,stimulusWOAN27_2IFCnew_2019_Jun_12_1557_225,stimulusWOAN27_2IFCnew_2019_Jun_12_1557_226,True,2019_Jun_12_1557,2IFCnew,2,WOAN27,
2IFCnew,38,0,38,0,0.799858299782,3,No,12.4,-1,False Alarm,0.801316900179,False,True,stimulusWOAN27_2IFCnew_2019_Jun_12_1557_227,stimulusWOAN27_2IFCnew_2019_Jun_12_1557_228,True,2019_Jun_12_1557,2IFCnew,2,WOAN27,
2IFCnew,39,0,39,0,0.433921900112,4,Yes,5.8,-1,Miss,0.700651400024,True,False,stimulusWOAN27_2IFCnew_2019_Jun_12_1557_229,stimulusWOAN27_2IFCnew_2019_Jun_12_1557_230,True,2019_Jun_12_1557,2IFCnew,2,WOAN27,
2IFCnew,40,0,40,0,0.434425499989,3,No,12.4,-1,False Alarm,0.602726799902,False,True,stimulusWOAN27_2IFCnew_2019_Jun_12_1557_231,stimulusWOAN27_2IFCnew_2019_Jun_12_1557_232,True,2019_Jun_12_1557,2IFCnew,2,WOAN27,
2IFCnew,41,0,41,0,0.500513399951,3,No,10.7,-1,False Alarm,0.534316000063,False,True,stimulusWOAN27_2IFCnew_2019_Jun_12_1557_233,stimulusWOAN27_2IFCnew_2019_Jun_12_1557_234,True,2019_Jun_12_1557,2IFCnew,2,WOAN27,
2IFCnew,42,0,42,0,-1,0,No,7.5,-1,No Answer,-1,False,True,stimulusWOAN27_2IFCnew_2019_Jun_12_1557_235,stimulusWOAN27_2IFCnew_2019_Jun_12_1557_236,True,2019_Jun_12_1557,2IFCnew,2,WOAN27,
2IFCnew,43,0,43,0,0.367331100162,2,Yes,14.3,-1,Correct Rejection,0.500975499861,False,True,stimulusWOAN27_2IFCnew_2019_Jun_12_1557_237,stimulusWOAN27_2IFCnew_2019_Jun_12_1557_238,True,2019_Jun_12_1557,2IFCnew,2,WOAN27,
2IFCnew,44,0,44,0,0.502145400038,2,Yes,7.5,-1,Correct Rejection,0.494337700075,False,True,stimulusWOAN27_2IFCnew_2019_Jun_12_1557_239,stimulusWOAN27_2IFCnew_2019_Jun_12_1557_240,True,2019_Jun_12_1557,2IFCnew,2,WOAN27,
2IFCnew,45,0,45,0,0.266255900031,1,No,12.4,-1,Hit,0.600798199885,True,False,stimulusWOAN27_2IFCnew_2019_Jun_12_1557_241,stimulusWOAN27_2IFCnew_2019_Jun_12_1557_242,True,2019_Jun_12_1557,2IFCnew,2,WOAN27,
2IFCnew,46,0,46,0,0.434024000075,4,Yes,5.8,-1,Miss,0.568975999951,True,False,stimulusWOAN27_2IFCnew_2019_Jun_12_1557_243,stimulusWOAN27_2IFCnew_2019_Jun_12_1557_244,True,2019_Jun_12_1557,2IFCnew,2,WOAN27,
2IFCnew,47,0,47,0,0.433824399952,8,No,9.1,-1,Correct Rejection,0.567552099936,False,True,stimulusWOAN27_2IFCnew_2019_Jun_12_1557_245,stimulusWOAN27_2IFCnew_2019_Jun_12_1557_246,True,2019_Jun_12_1557,2IFCnew,2,WOAN27,
2IFCnew,48,0,48,0,0.133642899804,2,Yes,1.4,-1,Correct Rejection,0.567253699992,False,True,stimulusWOAN27_2IFCnew_2019_Jun_12_1557_247,stimulusWOAN27_2IFCnew_2019_Jun_12_1557_248,True,2019_Jun_12_1557,2IFCnew,2,WOAN27,
2IFCnew,49,0,49,0,0.435997699853,6,No,3.8,-1,Miss,0.702348100021,True,False,stimulusWOAN27_2IFCnew_2019_Jun_12_1557_249,stimulusWOAN27_2IFCnew_2019_Jun_12_1557_250,True,2019_Jun_12_1557,2IFCnew,2,WOAN27,
2IFCnew,50,0,50,0,0.532972899964,6,No,5.8,-1,Miss,0.567830599844,True,False,stimulusWOAN27_2IFCnew_2019_Jun_12_1557_251,stimulusWOAN27_2IFCnew_2019_Jun_12_1557_252,True,2019_Jun_12_1557,2IFCnew,2,WOAN27,
2IFCnew,51,0,51,0,0.433801500127,6,No,10.7,-1,Miss,0.467110099969,True,False,stimulusWOAN27_2IFCnew_2019_Jun_12_1557_253,stimulusWOAN27_2IFCnew_2019_Jun_12_1557_254,True,2019_Jun_12_1557,2IFCnew,2,WOAN27,
2IFCnew,52,0,52,0,0.333380199969,1,No,9.1,-1,Hit,0.53387140017,True,False,stimulusWOAN27_2IFCnew_2019_Jun_12_1557_255,stimulusWOAN27_2IFCnew_2019_Jun_12_1557_256,True,2019_Jun_12_1557,2IFCnew,2,WOAN27,
2IFCnew,53,0,53,0,0.633486599894,2,Yes,9.1,-1,Correct Rejection,0.500659500016,False,True,stimulusWOAN27_2IFCnew_2019_Jun_12_1557_257,stimulusWOAN27_2IFCnew_2019_Jun_12_1557_258,True,2019_Jun_12_1557,2IFCnew,2,WOAN27,
2IFCnew,54,0,54,0,0.333745500073,8,No,10.7,-1,Correct Rejection,0.467203400098,False,True,stimulusWOAN27_2IFCnew_2019_Jun_12_1557_259,stimulusWOAN27_2IFCnew_2019_Jun_12_1557_260,True,2019_Jun_12_1557,2IFCnew,2,WOAN27,
2IFCnew,55,0,55,0,0.599063600181,6,No,7.5,-1,Miss,0.501065999968,True,False,stimulusWOAN27_2IFCnew_2019_Jun_12_1557_261,stimulusWOAN27_2IFCnew_2019_Jun_12_1557_262,True,2019_Jun_12_1557,2IFCnew,2,WOAN27,
2IFCnew,56,0,56,0,0.69944620016,2,Yes,7.5,-1,Correct Rejection,0.53395000007,False,True,stimulusWOAN27_2IFCnew_2019_Jun_12_1557_263,stimulusWOAN27_2IFCnew_2019_Jun_12_1557_264,True,2019_Jun_12_1557,2IFCnew,2,WOAN27,
2IFCnew,57,0,57,0,0.333962099859,2,Yes,1.4,-1,Correct Rejection,0.634067999898,False,True,stimulusWOAN27_2IFCnew_2019_Jun_12_1557_265,stimulusWOAN27_2IFCnew_2019_Jun_12_1557_266,True,2019_Jun_12_1557,2IFCnew,2,WOAN27,
2IFCnew,58,0,58,0,0.300532100024,2,Yes,5.8,-1,Correct Rejection,0.634929900058,False,True,stimulusWOAN27_2IFCnew_2019_Jun_12_1557_267,stimulusWOAN27_2IFCnew_2019_Jun_12_1557_268,True,2019_Jun_12_1557,2IFCnew,2,WOAN27,
2IFCnew,59,0,59,0,0.267165800091,1,No,5.8,-1,Hit,0.6341273,True,False,stimulusWOAN27_2IFCnew_2019_Jun_12_1557_269,stimulusWOAN27_2IFCnew_2019_Jun_12_1557_270,True,2019_Jun_12_1557,2IFCnew,2,WOAN27,
2IFCnew,60,0,60,0,0.133337799925,1,No,10.7,-1,Hit,0.534629700007,True,False,stimulusWOAN27_2IFCnew_2019_Jun_12_1557_271,stimulusWOAN27_2IFCnew_2019_Jun_12_1557_272,True,2019_Jun_12_1557,2IFCnew,2,WOAN27,
2IFCnew,61,0,61,0,0.267126200022,2,Yes,7.5,-1,Correct Rejection,0.666920799995,False,True,stimulusWOAN27_2IFCnew_2019_Jun_12_1557_273,stimulusWOAN27_2IFCnew_2019_Jun_12_1557_274,True,2019_Jun_12_1557,2IFCnew,2,WOAN27,
2IFCnew,62,0,62,0,0.333772699814,3,No,10.7,-1,False Alarm,0.732829799876,False,True,stimulusWOAN27_2IFCnew_2019_Jun_12_1557_275,stimulusWOAN27_2IFCnew_2019_Jun_12_1557_276,True,2019_Jun_12_1557,2IFCnew,2,WOAN27,
2IFCnew,63,0,63,0,0.233642699895,3,No,3.8,-1,False Alarm,0.600694700144,False,True,stimulusWOAN27_2IFCnew_2019_Jun_12_1557_277,stimulusWOAN27_2IFCnew_2019_Jun_12_1557_278,True,2019_Jun_12_1557,2IFCnew,2,WOAN27,
2IFCnew,64,0,64,0,0.23388439999,1,No,9.1,-1,Hit,0.701420699945,True,False,stimulusWOAN27_2IFCnew_2019_Jun_12_1557_279,stimulusWOAN27_2IFCnew_2019_Jun_12_1557_280,True,2019_Jun_12_1557,2IFCnew,2,WOAN27,
2IFCnew,65,0,65,0,0.233565600123,2,Yes,7.5,-1,Correct Rejection,0.567391199991,False,True,stimulusWOAN27_2IFCnew_2019_Jun_12_1557_281,stimulusWOAN27_2IFCnew_2019_Jun_12_1557_282,True,2019_Jun_12_1557,2IFCnew,2,WOAN27,
2IFCnew,66,0,66,0,0.102109699976,4,Yes,3.8,-1,Miss,0.666359500028,True,False,stimulusWOAN27_2IFCnew_2019_Jun_12_1557_283,stimulusWOAN27_2IFCnew_2019_Jun_12_1557_284,True,2019_Jun_12_1557,2IFCnew,2,WOAN27,
2IFCnew,67,0,67,0,0.533870500047,2,Yes,14.3,-1,Correct Rejection,0.634009399917,False,True,stimulusWOAN27_2IFCnew_2019_Jun_12_1557_285,stimulusWOAN27_2IFCnew_2019_Jun_12_1557_286,True,2019_Jun_12_1557,2IFCnew,2,WOAN27,
2IFCnew,68,0,68,0,0.333300499944,1,No,1.4,-1,Hit,0.702032199828,True,False,stimulusWOAN27_2IFCnew_2019_Jun_12_1557_287,stimulusWOAN27_2IFCnew_2019_Jun_12_1557_288,True,2019_Jun_12_1557,2IFCnew,2,WOAN27,
2IFCnew,69,0,69,0,-1,0,No,7.5,-1,No Answer,-1,False,True,stimulusWOAN27_2IFCnew_2019_Jun_12_1557_289,stimulusWOAN27_2IFCnew_2019_Jun_12_1557_290,True,2019_Jun_12_1557,2IFCnew,2,WOAN27,
2IFCnew,70,0,70,0,0.0676593000535,1,No,14.3,-1,Hit,0.567880499875,True,False,stimulusWOAN27_2IFCnew_2019_Jun_12_1557_291,stimulusWOAN27_2IFCnew_2019_Jun_12_1557_292,True,2019_Jun_12_1557,2IFCnew,2,WOAN27,
2IFCnew,71,0,71,0,0.233548199991,1,No,7.5,-1,Hit,0.633411299903,True,False,stimulusWOAN27_2IFCnew_2019_Jun_12_1557_293,stimulusWOAN27_2IFCnew_2019_Jun_12_1557_294,True,2019_Jun_12_1557,2IFCnew,2,WOAN27,
2IFCnew,72,0,72,0,0.500364399981,4,Yes,12.4,-1,Miss,0.666664500022,True,False,stimulusWOAN27_2IFCnew_2019_Jun_12_1557_295,stimulusWOAN27_2IFCnew_2019_Jun_12_1557_296,True,2019_Jun_12_1557,2IFCnew,2,WOAN27,
2IFCnew,73,0,73,0,-1,2,Yes,5.8,-1,False Alarm,0.500873700017,False,True,stimulusWOAN27_2IFCnew_2019_Jun_12_1557_297,stimulusWOAN27_2IFCnew_2019_Jun_12_1557_298,True,2019_Jun_12_1557,2IFCnew,2,WOAN27,
2IFCnew,74,0,74,0,0.367770799901,2,Yes,1.4,-1,Correct Rejection,0.633502499899,False,True,stimulusWOAN27_2IFCnew_2019_Jun_12_1557_299,stimulusWOAN27_2IFCnew_2019_Jun_12_1557_300,True,2019_Jun_12_1557,2IFCnew,2,WOAN27,
2IFCnew,0,0,0,0,-1,0,Yes,5.8,-1,No Answer,-1,False,True,stimulusWOAN27_2IFCnew_2019_Jun_12_1557_301,stimulusWOAN27_2IFCnew_2019_Jun_12_1557_302,True,2019_Jun_12_1557,2IFCnew,2,WOAN27,
2IFCnew,1,0,1,0,0.232807299821,2,Yes,5.8,-1,Correct Rejection,0.633976799902,False,True,stimulusWOAN27_2IFCnew_2019_Jun_12_1557_303,stimulusWOAN27_2IFCnew_2019_Jun_12_1557_304,True,2019_Jun_12_1557,2IFCnew,2,WOAN27,
2IFCnew,2,0,2,0,0.266923899995,2,Yes,7.5,-1,Correct Rejection,0.600960799959,False,True,stimulusWOAN27_2IFCnew_2019_Jun_12_1557_305,stimulusWOAN27_2IFCnew_2019_Jun_12_1557_306,True,2019_Jun_12_1557,2IFCnew,2,WOAN27,
2IFCnew,3,0,3,0,0.300866800128,2,Yes,1.4,-1,Correct Rejection,0.53556400002,False,True,stimulusWOAN27_2IFCnew_2019_Jun_12_1557_307,stimulusWOAN27_2IFCnew_2019_Jun_12_1557_308,True,2019_Jun_12_1557,2IFCnew,2,WOAN27,
2IFCnew,4,0,4,0,0.133847799851,2,Yes,5.8,-1,Correct Rejection,0.633168900153,False,True,stimulusWOAN27_2IFCnew_2019_Jun_12_1557_309,stimulusWOAN27_2IFCnew_2019_Jun_12_1557_310,True,2019_Jun_12_1557,2IFCnew,2,WOAN27,
2IFCnew,5,0,5,0,0.233279500157,1,No,14.3,-1,Hit,0.467645399971,True,False,stimulusWOAN27_2IFCnew_2019_Jun_12_1557_311,stimulusWOAN27_2IFCnew_2019_Jun_12_1557_312,True,2019_Jun_12_1557,2IFCnew,2,WOAN27,
2IFCnew,6,0,6,0,0.199162899982,4,Yes,7.5,-1,Miss,0.567298699869,True,False,stimulusWOAN27_2IFCnew_2019_Jun_12_1557_313,stimulusWOAN27_2IFCnew_2019_Jun_12_1557_314,True,2019_Jun_12_1557,2IFCnew,2,WOAN27,
2IFCnew,7,0,7,0,0.0329185000155,1,No,3.8,-1,Hit,0.467103600036,True,False,stimulusWOAN27_2IFCnew_2019_Jun_12_1557_315,stimulusWOAN27_2IFCnew_2019_Jun_12_1557_316,True,2019_Jun_12_1557,2IFCnew,2,WOAN27,
2IFCnew,8,0,8,0,0.267866999842,4,Yes,1.4,-1,Miss,0.567296300083,True,False,stimulusWOAN27_2IFCnew_2019_Jun_12_1557_317,stimulusWOAN27_2IFCnew_2019_Jun_12_1557_318,True,2019_Jun_12_1557,2IFCnew,2,WOAN27,
2IFCnew,9,0,9,0,0.266255100025,2,Yes,5.8,-1,Correct Rejection,0.600115300156,False,True,stimulusWOAN27_2IFCnew_2019_Jun_12_1557_319,stimulusWOAN27_2IFCnew_2019_Jun_12_1557_320,True,2019_Jun_12_1557,2IFCnew,2,WOAN27,
2IFCnew,10,0,10,0,0.166671300074,4,Yes,3.8,-1,Miss,0.502142300131,True,False,stimulusWOAN27_2IFCnew_2019_Jun_12_1557_321,stimulusWOAN27_2IFCnew_2019_Jun_12_1557_322,True,2019_Jun_12_1557,2IFCnew,2,WOAN27,
2IFCnew,11,0,11,0,0.333916899981,8,No,3.8,-1,Correct Rejection,0.500252600061,False,True,stimulusWOAN27_2IFCnew_2019_Jun_12_1557_323,stimulusWOAN27_2IFCnew_2019_Jun_12_1557_324,True,2019_Jun_12_1557,2IFCnew,2,WOAN27,
2IFCnew,12,0,12,0,0.500322799897,4,Yes,1.4,-1,Miss,0.401584400097,True,False,stimulusWOAN27_2IFCnew_2019_Jun_12_1557_325,stimulusWOAN27_2IFCnew_2019_Jun_12_1557_326,True,2019_Jun_12_1557,2IFCnew,2,WOAN27,
2IFCnew,13,0,13,0,0.398911699886,8,No,7.5,-1,Correct Rejection,0.534052399918,False,True,stimulusWOAN27_2IFCnew_2019_Jun_12_1557_327,stimulusWOAN27_2IFCnew_2019_Jun_12_1557_328,True,2019_Jun_12_1557,2IFCnew,2,WOAN27,
2IFCnew,14,0,14,0,0.30068450002,2,Yes,10.7,-1,Correct Rejection,0.534459099872,False,True,stimulusWOAN27_2IFCnew_2019_Jun_12_1557_329,stimulusWOAN27_2IFCnew_2019_Jun_12_1557_330,True,2019_Jun_12_1557,2IFCnew,2,WOAN27,
2IFCnew,15,0,15,0,0.867602200015,1,No,7.5,-1,Hit,0.868162600091,True,False,stimulusWOAN27_2IFCnew_2019_Jun_12_1557_331,stimulusWOAN27_2IFCnew_2019_Jun_12_1557_332,True,2019_Jun_12_1557,2IFCnew,2,WOAN27,
2IFCnew,16,0,16,0,0.199610200012,3,No,1.4,-1,False Alarm,0.733949000016,False,True,stimulusWOAN27_2IFCnew_2019_Jun_12_1557_333,stimulusWOAN27_2IFCnew_2019_Jun_12_1557_334,True,2019_Jun_12_1557,2IFCnew,2,WOAN27,
2IFCnew,17,0,17,0,0.333550000098,1,No,5.8,-1,Hit,0.834298699861,True,False,stimulusWOAN27_2IFCnew_2019_Jun_12_1557_335,stimulusWOAN27_2IFCnew_2019_Jun_12_1557_336,True,2019_Jun_12_1557,2IFCnew,2,WOAN27,
2IFCnew,18,0,18,0,0.133326499956,2,Yes,14.3,-1,Correct Rejection,0.534260799875,False,True,stimulusWOAN27_2IFCnew_2019_Jun_12_1557_337,stimulusWOAN27_2IFCnew_2019_Jun_12_1557_338,True,2019_Jun_12_1557,2IFCnew,2,WOAN27,
2IFCnew,19,0,19,0,0.201181299984,2,Yes,14.3,-1,Correct Rejection,0.632993999869,False,True,stimulusWOAN27_2IFCnew_2019_Jun_12_1557_339,stimulusWOAN27_2IFCnew_2019_Jun_12_1557_340,True,2019_Jun_12_1557,2IFCnew,2,WOAN27,
2IFCnew,20,0,20,0,0.167138400022,2,Yes,7.5,-1,Correct Rejection,0.533682500012,False,True,stimulusWOAN27_2IFCnew_2019_Jun_12_1557_341,stimulusWOAN27_2IFCnew_2019_Jun_12_1557_342,True,2019_Jun_12_1557,2IFCnew,2,WOAN27,
2IFCnew,21,0,21,0,0.100659799995,2,Yes,12.4,-1,Correct Rejection,0.500481799943,False,True,stimulusWOAN27_2IFCnew_2019_Jun_12_1557_343,stimulusWOAN27_2IFCnew_2019_Jun_12_1557_344,True,2019_Jun_12_1557,2IFCnew,2,WOAN27,
2IFCnew,22,0,22,0,0.266963599948,3,No,7.5,-1,False Alarm,0.566817600047,False,True,stimulusWOAN27_2IFCnew_2019_Jun_12_1557_345,stimulusWOAN27_2IFCnew_2019_Jun_12_1557_346,True,2019_Jun_12_1557,2IFCnew,2,WOAN27,
2IFCnew,23,0,23,0,0.366656699916,1,No,1.4,-1,Hit,0.734529800015,True,False,stimulusWOAN27_2IFCnew_2019_Jun_12_1557_347,stimulusWOAN27_2IFCnew_2019_Jun_12_1557_348,True,2019_Jun_12_1557,2IFCnew,2,WOAN27,
2IFCnew,24,0,24,0,0.667497899849,1,No,14.3,-1,Hit,0.734387800097,True,False,stimulusWOAN27_2IFCnew_2019_Jun_12_1557_349,stimulusWOAN27_2IFCnew_2019_Jun_12_1557_350,True,2019_Jun_12_1557,2IFCnew,2,WOAN27,
2IFCnew,25,0,25,0,0.267185600009,2,Yes,5.8,-1,Correct Rejection,0.700918600196,False,True,stimulusWOAN27_2IFCnew_2019_Jun_12_1557_351,stimulusWOAN27_2IFCnew_2019_Jun_12_1557_352,True,2019_Jun_12_1557,2IFCnew,2,WOAN27,
2IFCnew,26,0,26,0,0.234317699913,2,Yes,10.7,-1,Correct Rejection,0.570135300048,False,True,stimulusWOAN27_2IFCnew_2019_Jun_12_1557_353,stimulusWOAN27_2IFCnew_2019_Jun_12_1557_354,True,2019_Jun_12_1557,2IFCnew,2,WOAN27,
2IFCnew,27,0,27,0,0.332968999865,2,Yes,12.4,-1,Correct Rejection,0.667551300023,False,True,stimulusWOAN27_2IFCnew_2019_Jun_12_1557_355,stimulusWOAN27_2IFCnew_2019_Jun_12_1557_356,True,2019_Jun_12_1557,2IFCnew,2,WOAN27,
2IFCnew,28,0,28,0,0.766643600073,7,Yes,3.8,-1,Hit,0.568027400179,True,False,stimulusWOAN27_2IFCnew_2019_Jun_12_1557_357,stimulusWOAN27_2IFCnew_2019_Jun_12_1557_358,True,2019_Jun_12_1557,2IFCnew,2,WOAN27,
2IFCnew,29,0,29,0,0.467536700191,1,No,5.8,-1,Hit,0.568299100036,True,False,stimulusWOAN27_2IFCnew_2019_Jun_12_1557_359,stimulusWOAN27_2IFCnew_2019_Jun_12_1557_360,True,2019_Jun_12_1557,2IFCnew,2,WOAN27,
2IFCnew,30,0,30,0,0.0346333000343,1,No,10.7,-1,Hit,0.500574999955,True,False,stimulusWOAN27_2IFCnew_2019_Jun_12_1557_361,stimulusWOAN27_2IFCnew_2019_Jun_12_1557_362,True,2019_Jun_12_1557,2IFCnew,2,WOAN27,
2IFCnew,31,0,31,0,0.200477600098,4,Yes,1.4,-1,Miss,0.632770800032,True,False,stimulusWOAN27_2IFCnew_2019_Jun_12_1557_363,stimulusWOAN27_2IFCnew_2019_Jun_12_1557_364,True,2019_Jun_12_1557,2IFCnew,2,WOAN27,
2IFCnew,32,0,32,0,0.133563800016,3,No,5.8,-1,False Alarm,0.534997300012,False,True,stimulusWOAN27_2IFCnew_2019_Jun_12_1557_365,stimulusWOAN27_2IFCnew_2019_Jun_12_1557_366,True,2019_Jun_12_1557,2IFCnew,2,WOAN27,
2IFCnew,33,0,33,0,0.234886300052,1,No,12.4,-1,Hit,0.568624599837,True,False,stimulusWOAN27_2IFCnew_2019_Jun_12_1557_367,stimulusWOAN27_2IFCnew_2019_Jun_12_1557_368,True,2019_Jun_12_1557,2IFCnew,2,WOAN27,
2IFCnew,34,0,34,0,0.400524300057,2,Yes,3.8,-1,Correct Rejection,0.53301470005,False,True,stimulusWOAN27_2IFCnew_2019_Jun_12_1557_369,stimulusWOAN27_2IFCnew_2019_Jun_12_1557_370,True,2019_Jun_12_1557,2IFCnew,2,WOAN27,
2IFCnew,35,0,35,0,0.700624400051,3,No,1.4,-1,False Alarm,0.767704600003,False,True,stimulusWOAN27_2IFCnew_2019_Jun_12_1557_371,stimulusWOAN27_2IFCnew_2019_Jun_12_1557_372,True,2019_Jun_12_1557,2IFCnew,2,WOAN27,
2IFCnew,36,0,36,0,0.434024600079,4,Yes,3.8,-1,Miss,0.500571599929,True,False,stimulusWOAN27_2IFCnew_2019_Jun_12_1557_373,stimulusWOAN27_2IFCnew_2019_Jun_12_1557_374,True,2019_Jun_12_1557,2IFCnew,2,WOAN27,
2IFCnew,37,0,37,0,0.266982399859,4,Yes,14.3,-1,Miss,0.801412699977,True,False,stimulusWOAN27_2IFCnew_2019_Jun_12_1557_375,stimulusWOAN27_2IFCnew_2019_Jun_12_1557_376,True,2019_Jun_12_1557,2IFCnew,2,WOAN27,
2IFCnew,38,0,38,0,0.267438000068,1,No,7.5,-1,Hit,0.568252699915,True,False,stimulusWOAN27_2IFCnew_2019_Jun_12_1557_377,stimulusWOAN27_2IFCnew_2019_Jun_12_1557_378,True,2019_Jun_12_1557,2IFCnew,2,WOAN27,
2IFCnew,39,0,39,0,0.434104999993,2,Yes,14.3,-1,Correct Rejection,0.46718310006,False,True,stimulusWOAN27_2IFCnew_2019_Jun_12_1557_379,stimulusWOAN27_2IFCnew_2019_Jun_12_1557_380,True,2019_Jun_12_1557,2IFCnew,2,WOAN27,
2IFCnew,40,0,40,0,-1,0,Yes,3.8,-1,No Answer,-1,False,True,stimulusWOAN27_2IFCnew_2019_Jun_12_1557_381,stimulusWOAN27_2IFCnew_2019_Jun_12_1557_382,True,2019_Jun_12_1557,2IFCnew,2,WOAN27,
2IFCnew,41,0,41,0,0.533848999999,2,Yes,9.1,-1,Correct Rejection,0.401539399987,False,True,stimulusWOAN27_2IFCnew_2019_Jun_12_1557_383,stimulusWOAN27_2IFCnew_2019_Jun_12_1557_384,True,2019_Jun_12_1557,2IFCnew,2,WOAN27,
2IFCnew,42,0,42,0,0.500760799972,6,No,9.1,-1,Miss,0.568081400124,True,False,stimulusWOAN27_2IFCnew_2019_Jun_12_1557_385,stimulusWOAN27_2IFCnew_2019_Jun_12_1557_386,True,2019_Jun_12_1557,2IFCnew,2,WOAN27,
2IFCnew,43,0,43,0,0.436127200024,1,No,12.4,-1,Hit,0.567452599993,True,False,stimulusWOAN27_2IFCnew_2019_Jun_12_1557_387,stimulusWOAN27_2IFCnew_2019_Jun_12_1557_388,True,2019_Jun_12_1557,2IFCnew,2,WOAN27,
2IFCnew,44,0,44,0,0.433593900176,6,No,5.8,-1,Miss,0.536062999861,True,False,stimulusWOAN27_2IFCnew_2019_Jun_12_1557_389,stimulusWOAN27_2IFCnew_2019_Jun_12_1557_390,True,2019_Jun_12_1557,2IFCnew,2,WOAN27,
2IFCnew,45,0,45,0,0.632662699791,6,No,3.8,-1,Miss,0.767378499964,True,False,stimulusWOAN27_2IFCnew_2019_Jun_12_1557_391,stimulusWOAN27_2IFCnew_2019_Jun_12_1557_392,True,2019_Jun_12_1557,2IFCnew,2,WOAN27,
2IFCnew,46,0,46,0,0.234356899979,6,No,1.4,-1,Miss,0.472333099926,True,False,stimulusWOAN27_2IFCnew_2019_Jun_12_1557_393,stimulusWOAN27_2IFCnew_2019_Jun_12_1557_394,True,2019_Jun_12_1557,2IFCnew,2,WOAN27,
2IFCnew,47,0,47,0,0.26692590001,8,No,10.7,-1,Correct Rejection,0.401940499898,False,True,stimulusWOAN27_2IFCnew_2019_Jun_12_1557_395,stimulusWOAN27_2IFCnew_2019_Jun_12_1557_396,True,2019_Jun_12_1557,2IFCnew,2,WOAN27,
2IFCnew,48,0,48,0,0.266794899944,1,No,10.7,-1,Hit,0.568441000069,True,False,stimulusWOAN27_2IFCnew_2019_Jun_12_1557_397,stimulusWOAN27_2IFCnew_2019_Jun_12_1557_398,True,2019_Jun_12_1557,2IFCnew,2,WOAN27,
2IFCnew,49,0,49,0,0.500639300095,8,No,5.8,-1,Correct Rejection,0.60051109991,False,True,stimulusWOAN27_2IFCnew_2019_Jun_12_1557_399,stimulusWOAN27_2IFCnew_2019_Jun_12_1557_400,True,2019_Jun_12_1557,2IFCnew,2,WOAN27,
2IFCnew,50,0,50,0,0.333859999897,1,No,10.7,-1,Hit,0.500737100141,True,False,stimulusWOAN27_2IFCnew_2019_Jun_12_1557_401,stimulusWOAN27_2IFCnew_2019_Jun_12_1557_402,True,2019_Jun_12_1557,2IFCnew,2,WOAN27,
2IFCnew,51,0,51,0,0.267151300097,1,No,10.7,-1,Hit,0.600927399937,True,False,stimulusWOAN27_2IFCnew_2019_Jun_12_1557_403,stimulusWOAN27_2IFCnew_2019_Jun_12_1557_404,True,2019_Jun_12_1557,2IFCnew,2,WOAN27,
2IFCnew,52,0,52,0,0.333222300047,1,No,12.4,-1,Hit,0.568046499975,True,False,stimulusWOAN27_2IFCnew_2019_Jun_12_1557_405,stimulusWOAN27_2IFCnew_2019_Jun_12_1557_406,True,2019_Jun_12_1557,2IFCnew,2,WOAN27,
2IFCnew,53,0,53,0,0.366952599958,4,Yes,7.5,-1,Miss,0.597893500002,True,False,stimulusWOAN27_2IFCnew_2019_Jun_12_1557_407,stimulusWOAN27_2IFCnew_2019_Jun_12_1557_408,True,2019_Jun_12_1557,2IFCnew,2,WOAN27,
2IFCnew,54,0,54,0,0.599871400045,6,No,3.8,-1,Miss,0.467441699933,True,False,stimulusWOAN27_2IFCnew_2019_Jun_12_1557_409,stimulusWOAN27_2IFCnew_2019_Jun_12_1557_410,True,2019_Jun_12_1557,2IFCnew,2,WOAN27,
2IFCnew,55,0,55,0,0.266861600103,1,No,12.4,-1,Hit,0.56816200004,True,False,stimulusWOAN27_2IFCnew_2019_Jun_12_1557_411,stimulusWOAN27_2IFCnew_2019_Jun_12_1557_412,True,2019_Jun_12_1557,2IFCnew,2,WOAN27,
2IFCnew,56,0,56,0,0.734341499861,5,Yes,7.5,-1,False Alarm,0.633257000009,False,True,stimulusWOAN27_2IFCnew_2019_Jun_12_1557_413,stimulusWOAN27_2IFCnew_2019_Jun_12_1557_414,True,2019_Jun_12_1557,2IFCnew,2,WOAN27,
2IFCnew,57,0,57,0,-1,4,Yes,1.4,-1,Miss,0.834115799982,True,False,stimulusWOAN27_2IFCnew_2019_Jun_12_1557_415,stimulusWOAN27_2IFCnew_2019_Jun_12_1557_416,True,2019_Jun_12_1557,2IFCnew,2,WOAN27,
2IFCnew,58,0,58,0,0.434759299969,1,No,3.8,-1,Hit,0.701077200007,True,False,stimulusWOAN27_2IFCnew_2019_Jun_12_1557_417,stimulusWOAN27_2IFCnew_2019_Jun_12_1557_418,True,2019_Jun_12_1557,2IFCnew,2,WOAN27,
2IFCnew,59,0,59,0,0.635133499978,2,Yes,10.7,-1,Correct Rejection,0.534083300037,False,True,stimulusWOAN27_2IFCnew_2019_Jun_12_1557_419,stimulusWOAN27_2IFCnew_2019_Jun_12_1557_420,True,2019_Jun_12_1557,2IFCnew,2,WOAN27,
2IFCnew,60,0,60,0,0.233717799885,1,No,10.7,-1,Hit,0.633890599944,True,False,stimulusWOAN27_2IFCnew_2019_Jun_12_1557_421,stimulusWOAN27_2IFCnew_2019_Jun_12_1557_422,True,2019_Jun_12_1557,2IFCnew,2,WOAN27,
2IFCnew,61,0,61,0,0.468421400059,8,No,1.4,-1,Correct Rejection,0.603121399879,False,True,stimulusWOAN27_2IFCnew_2019_Jun_12_1557_423,stimulusWOAN27_2IFCnew_2019_Jun_12_1557_424,True,2019_Jun_12_1557,2IFCnew,2,WOAN27,
2IFCnew,62,0,62,0,0.534027199959,2,Yes,5.8,-1,Correct Rejection,0.533946300158,False,True,stimulusWOAN27_2IFCnew_2019_Jun_12_1557_425,stimulusWOAN27_2IFCnew_2019_Jun_12_1557_426,True,2019_Jun_12_1557,2IFCnew,2,WOAN27,
2IFCnew,63,0,63,0,0.367716499837,1,No,7.5,-1,Hit,0.666860199999,True,False,stimulusWOAN27_2IFCnew_2019_Jun_12_1557_427,stimulusWOAN27_2IFCnew_2019_Jun_12_1557_428,True,2019_Jun_12_1557,2IFCnew,2,WOAN27,
2IFCnew,64,0,64,0,0.400297099957,2,Yes,7.5,-1,Correct Rejection,0.533246200066,False,True,stimulusWOAN27_2IFCnew_2019_Jun_12_1557_429,stimulusWOAN27_2IFCnew_2019_Jun_12_1557_430,True,2019_Jun_12_1557,2IFCnew,2,WOAN27,
2IFCnew,65,0,65,0,0.200448299991,2,Yes,1.4,-1,Correct Rejection,0.50228190003,False,True,stimulusWOAN27_2IFCnew_2019_Jun_12_1557_431,stimulusWOAN27_2IFCnew_2019_Jun_12_1557_432,True,2019_Jun_12_1557,2IFCnew,2,WOAN27,
2IFCnew,66,0,66,0,0.167069900082,3,No,3.8,-1,False Alarm,0.536530500045,False,True,stimulusWOAN27_2IFCnew_2019_Jun_12_1557_433,stimulusWOAN27_2IFCnew_2019_Jun_12_1557_434,True,2019_Jun_12_1557,2IFCnew,2,WOAN27,
2IFCnew,67,0,67,0,0.400991100119,2,Yes,3.8,-1,Correct Rejection,0.432407000102,False,True,stimulusWOAN27_2IFCnew_2019_Jun_12_1557_435,stimulusWOAN27_2IFCnew_2019_Jun_12_1557_436,True,2019_Jun_12_1557,2IFCnew,2,WOAN27,
2IFCnew,68,0,68,0,0.467278999975,2,Yes,7.5,-1,Correct Rejection,0.666344500147,False,True,stimulusWOAN27_2IFCnew_2019_Jun_12_1557_437,stimulusWOAN27_2IFCnew_2019_Jun_12_1557_438,True,2019_Jun_12_1557,2IFCnew,2,WOAN27,
2IFCnew,69,0,69,0,0.73391900002,4,Yes,3.8,-1,Miss,0.701436599949,True,False,stimulusWOAN27_2IFCnew_2019_Jun_12_1557_439,stimulusWOAN27_2IFCnew_2019_Jun_12_1557_440,True,2019_Jun_12_1557,2IFCnew,2,WOAN27,
2IFCnew,70,0,70,0,-1,4,Yes,1.4,-1,Miss,0.666667999933,True,False,stimulusWOAN27_2IFCnew_2019_Jun_12_1557_441,stimulusWOAN27_2IFCnew_2019_Jun_12_1557_442,True,2019_Jun_12_1557,2IFCnew,2,WOAN27,
2IFCnew,71,0,71,0,-1,3,Yes,3.8,-1,Correct Rejection,0.734075500164,False,True,stimulusWOAN27_2IFCnew_2019_Jun_12_1557_443,stimulusWOAN27_2IFCnew_2019_Jun_12_1557_444,True,2019_Jun_12_1557,2IFCnew,2,WOAN27,
2IFCnew,72,0,72,0,0.265857000137,1,No,7.5,-1,Hit,0.566222100053,True,False,stimulusWOAN27_2IFCnew_2019_Jun_12_1557_445,stimulusWOAN27_2IFCnew_2019_Jun_12_1557_446,True,2019_Jun_12_1557,2IFCnew,2,WOAN27,
2IFCnew,73,0,73,0,0.399561099941,6,No,3.8,-1,Miss,0.599992000032,True,False,stimulusWOAN27_2IFCnew_2019_Jun_12_1557_447,stimulusWOAN27_2IFCnew_2019_Jun_12_1557_448,True,2019_Jun_12_1557,2IFCnew,2,WOAN27,
2IFCnew,74,0,74,0,0.600350500084,2,Yes,9.1,-1,Correct Rejection,0.533916500164,False,True,stimulusWOAN27_2IFCnew_2019_Jun_12_1557_449,stimulusWOAN27_2IFCnew_2019_Jun_12_1557_450,True,2019_Jun_12_1557,2IFCnew,2,WOAN27,
2IFCnew,0,0,0,0,0.267090399982,2,Yes,3.8,-1,Correct Rejection,0.533844999969,False,True,stimulusWOAN27_2IFCnew_2019_Jun_12_1557_451,stimulusWOAN27_2IFCnew_2019_Jun_12_1557_452,True,2019_Jun_12_1557,2IFCnew,2,WOAN27,
2IFCnew,1,0,1,0,0.466827899916,1,No,5.8,-1,Hit,0.533791099908,True,False,stimulusWOAN27_2IFCnew_2019_Jun_12_1557_453,stimulusWOAN27_2IFCnew_2019_Jun_12_1557_454,True,2019_Jun_12_1557,2IFCnew,2,WOAN27,
2IFCnew,2,0,2,0,0.234100899892,4,Yes,5.8,-1,Miss,0.566530599957,True,False,stimulusWOAN27_2IFCnew_2019_Jun_12_1557_455,stimulusWOAN27_2IFCnew_2019_Jun_12_1557_456,True,2019_Jun_12_1557,2IFCnew,2,WOAN27,
2IFCnew,3,0,3,0,0.200799999991,4,Yes,10.7,-1,Miss,0.633760099998,True,False,stimulusWOAN27_2IFCnew_2019_Jun_12_1557_457,stimulusWOAN27_2IFCnew_2019_Jun_12_1557_458,True,2019_Jun_12_1557,2IFCnew,2,WOAN27,
2IFCnew,4,0,4,0,-1,1,Yes,12.4,-1,Hit,0.366279500071,True,False,stimulusWOAN27_2IFCnew_2019_Jun_12_1557_459,stimulusWOAN27_2IFCnew_2019_Jun_12_1557_460,True,2019_Jun_12_1557,2IFCnew,2,WOAN27,
2IFCnew,5,0,5,0,0.233688399894,2,Yes,1.4,-1,Correct Rejection,0.567911999999,False,True,stimulusWOAN27_2IFCnew_2019_Jun_12_1557_461,stimulusWOAN27_2IFCnew_2019_Jun_12_1557_462,True,2019_Jun_12_1557,2IFCnew,2,WOAN27,
2IFCnew,6,0,6,0,0.23379229987,3,No,9.1,-1,False Alarm,0.466943100095,False,True,stimulusWOAN27_2IFCnew_2019_Jun_12_1557_463,stimulusWOAN27_2IFCnew_2019_Jun_12_1557_464,True,2019_Jun_12_1557,2IFCnew,2,WOAN27,
2IFCnew,7,0,7,0,0.235433599912,1,No,10.7,-1,Hit,0.667401700048,True,False,stimulusWOAN27_2IFCnew_2019_Jun_12_1557_465,stimulusWOAN27_2IFCnew_2019_Jun_12_1557_466,True,2019_Jun_12_1557,2IFCnew,2,WOAN27,
2IFCnew,8,0,8,0,0.100531900069,2,Yes,10.7,-1,Correct Rejection,0.467302900041,False,True,stimulusWOAN27_2IFCnew_2019_Jun_12_1557_467,stimulusWOAN27_2IFCnew_2019_Jun_12_1557_468,True,2019_Jun_12_1557,2IFCnew,2,WOAN27,
2IFCnew,9,0,9,0,0.132911700057,1,No,9.1,-1,Hit,0.566233600024,True,False,stimulusWOAN27_2IFCnew_2019_Jun_12_1557_469,stimulusWOAN27_2IFCnew_2019_Jun_12_1557_470,True,2019_Jun_12_1557,2IFCnew,2,WOAN27,
2IFCnew,10,0,10,0,0.167219100054,1,No,5.8,-1,Hit,0.602259699954,True,False,stimulusWOAN27_2IFCnew_2019_Jun_12_1557_471,stimulusWOAN27_2IFCnew_2019_Jun_12_1557_472,True,2019_Jun_12_1557,2IFCnew,2,WOAN27,
2IFCnew,11,0,11,0,0.433958200039,2,Yes,9.1,-1,Correct Rejection,0.567069099983,False,True,stimulusWOAN27_2IFCnew_2019_Jun_12_1557_473,stimulusWOAN27_2IFCnew_2019_Jun_12_1557_474,True,2019_Jun_12_1557,2IFCnew,2,WOAN27,
2IFCnew,12,0,12,0,0.233768699924,2,Yes,12.4,-1,Correct Rejection,0.701527099824,False,True,stimulusWOAN27_2IFCnew_2019_Jun_12_1557_475,stimulusWOAN27_2IFCnew_2019_Jun_12_1557_476,True,2019_Jun_12_1557,2IFCnew,2,WOAN27,
2IFCnew,13,0,13,0,0.333955399925,2,Yes,7.5,-1,Correct Rejection,0.666930499952,False,True,stimulusWOAN27_2IFCnew_2019_Jun_12_1557_477,stimulusWOAN27_2IFCnew_2019_Jun_12_1557_478,True,2019_Jun_12_1557,2IFCnew,2,WOAN27,
2IFCnew,14,0,14,0,0.133439199999,3,No,14.3,-1,False Alarm,0.667802199954,False,True,stimulusWOAN27_2IFCnew_2019_Jun_12_1557_479,stimulusWOAN27_2IFCnew_2019_Jun_12_1557_480,True,2019_Jun_12_1557,2IFCnew,2,WOAN27,
2IFCnew,15,0,15,0,0.166990000056,2,Yes,12.4,-1,Correct Rejection,0.701360000065,False,True,stimulusWOAN27_2IFCnew_2019_Jun_12_1557_481,stimulusWOAN27_2IFCnew_2019_Jun_12_1557_482,True,2019_Jun_12_1557,2IFCnew,2,WOAN27,
2IFCnew,16,0,16,0,0.464391199872,2,Yes,14.3,-1,Correct Rejection,0.900612500031,False,True,stimulusWOAN27_2IFCnew_2019_Jun_12_1557_483,stimulusWOAN27_2IFCnew_2019_Jun_12_1557_484,True,2019_Jun_12_1557,2IFCnew,2,WOAN27,
2IFCnew,17,0,17,0,0.167866199976,1,No,12.4,-1,Hit,0.533667299896,True,False,stimulusWOAN27_2IFCnew_2019_Jun_12_1557_485,stimulusWOAN27_2IFCnew_2019_Jun_12_1557_486,True,2019_Jun_12_1557,2IFCnew,2,WOAN27,
2IFCnew,18,0,18,0,0.367109900108,2,Yes,14.3,-1,Correct Rejection,0.63522759988,False,True,stimulusWOAN27_2IFCnew_2019_Jun_12_1557_487,stimulusWOAN27_2IFCnew_2019_Jun_12_1557_488,True,2019_Jun_12_1557,2IFCnew,2,WOAN27,
2IFCnew,19,0,19,0,0.267400400015,1,No,9.1,-1,Hit,0.534271300072,True,False,stimulusWOAN27_2IFCnew_2019_Jun_12_1557_489,stimulusWOAN27_2IFCnew_2019_Jun_12_1557_490,True,2019_Jun_12_1557,2IFCnew,2,WOAN27,
2IFCnew,20,0,20,0,0.167111000046,2,Yes,3.8,-1,Correct Rejection,0.634785600007,False,True,stimulusWOAN27_2IFCnew_2019_Jun_12_1557_491,stimulusWOAN27_2IFCnew_2019_Jun_12_1557_492,True,2019_Jun_12_1557,2IFCnew,2,WOAN27,
2IFCnew,21,0,21,0,0.300210400019,3,No,3.8,-1,False Alarm,0.79957139981,False,True,stimulusWOAN27_2IFCnew_2019_Jun_12_1557_493,stimulusWOAN27_2IFCnew_2019_Jun_12_1557_494,True,2019_Jun_12_1557,2IFCnew,2,WOAN27,
2IFCnew,22,0,22,0,0.399467000039,2,Yes,7.5,-1,Correct Rejection,0.567609100137,False,True,stimulusWOAN27_2IFCnew_2019_Jun_12_1557_495,stimulusWOAN27_2IFCnew_2019_Jun_12_1557_496,True,2019_Jun_12_1557,2IFCnew,2,WOAN27,
2IFCnew,23,0,23,0,0.337459499948,1,No,14.3,-1,Hit,0.567127299961,True,False,stimulusWOAN27_2IFCnew_2019_Jun_12_1557_497,stimulusWOAN27_2IFCnew_2019_Jun_12_1557_498,True,2019_Jun_12_1557,2IFCnew,2,WOAN27,
2IFCnew,24,0,24,0,0.100077200215,2,Yes,10.7,-1,Correct Rejection,0.699969300069,False,True,stimulusWOAN27_2IFCnew_2019_Jun_12_1557_499,stimulusWOAN27_2IFCnew_2019_Jun_12_1557_500,True,2019_Jun_12_1557,2IFCnew,2,WOAN27,
2IFCnew,25,0,25,0,0.300215499941,1,No,14.3,-1,Hit,0.600678599905,True,False,stimulusWOAN27_2IFCnew_2019_Jun_12_1557_501,stimulusWOAN27_2IFCnew_2019_Jun_12_1557_502,True,2019_Jun_12_1557,2IFCnew,2,WOAN27,
2IFCnew,26,0,26,0,0.434261499904,6,No,5.8,-1,Miss,0.635309400037,True,False,stimulusWOAN27_2IFCnew_2019_Jun_12_1557_503,stimulusWOAN27_2IFCnew_2019_Jun_12_1557_504,True,2019_Jun_12_1557,2IFCnew,2,WOAN27,
2IFCnew,27,0,27,0,0.200266700005,4,Yes,3.8,-1,Miss,0.467394399922,True,False,stimulusWOAN27_2IFCnew_2019_Jun_12_1557_505,stimulusWOAN27_2IFCnew_2019_Jun_12_1557_506,True,2019_Jun_12_1557,2IFCnew,2,WOAN27,
2IFCnew,28,0,28,0,0.298992100172,2,Yes,9.1,-1,Correct Rejection,0.601671899902,False,True,stimulusWOAN27_2IFCnew_2019_Jun_12_1557_507,stimulusWOAN27_2IFCnew_2019_Jun_12_1557_508,True,2019_Jun_12_1557,2IFCnew,2,WOAN27,
2IFCnew,29,0,29,0,0.0999799999408,1,No,9.1,-1,Hit,0.56803630013,True,False,stimulusWOAN27_2IFCnew_2019_Jun_12_1557_509,stimulusWOAN27_2IFCnew_2019_Jun_12_1557_510,True,2019_Jun_12_1557,2IFCnew,2,WOAN27,
2IFCnew,30,0,30,0,0.367438600166,8,No,7.5,-1,Correct Rejection,0.6020016002,False,True,stimulusWOAN27_2IFCnew_2019_Jun_12_1557_511,stimulusWOAN27_2IFCnew_2019_Jun_12_1557_512,True,2019_Jun_12_1557,2IFCnew,2,WOAN27,
2IFCnew,31,0,31,0,0.33357249992,6,No,9.1,-1,Miss,0.533735799836,True,False,stimulusWOAN27_2IFCnew_2019_Jun_12_1557_513,stimulusWOAN27_2IFCnew_2019_Jun_12_1557_514,True,2019_Jun_12_1557,2IFCnew,2,WOAN27,
2IFCnew,32,0,32,0,0.767453400185,2,Yes,3.8,-1,Correct Rejection,0.533898300026,False,True,stimulusWOAN27_2IFCnew_2019_Jun_12_1557_515,stimulusWOAN27_2IFCnew_2019_Jun_12_1557_516,True,2019_Jun_12_1557,2IFCnew,2,WOAN27,
2IFCnew,33,0,33,0,0.50013020006,2,Yes,12.4,-1,Correct Rejection,0.533141300082,False,True,stimulusWOAN27_2IFCnew_2019_Jun_12_1557_517,stimulusWOAN27_2IFCnew_2019_Jun_12_1557_518,True,2019_Jun_12_1557,2IFCnew,2,WOAN27,
2IFCnew,34,0,34,0,0.866991700139,1,No,9.1,-1,Hit,0.803225999931,True,False,stimulusWOAN27_2IFCnew_2019_Jun_12_1557_519,stimulusWOAN27_2IFCnew_2019_Jun_12_1557_520,True,2019_Jun_12_1557,2IFCnew,2,WOAN27,
2IFCnew,35,0,35,0,0.333059499972,4,Yes,7.5,-1,Miss,0.700365399942,True,False,stimulusWOAN27_2IFCnew_2019_Jun_12_1557_521,stimulusWOAN27_2IFCnew_2019_Jun_12_1557_522,True,2019_Jun_12_1557,2IFCnew,2,WOAN27,
2IFCnew,36,0,36,0,0.399487599963,1,No,5.8,-1,Hit,0.56815279997,True,False,stimulusWOAN27_2IFCnew_2019_Jun_12_1557_523,stimulusWOAN27_2IFCnew_2019_Jun_12_1557_524,True,2019_Jun_12_1557,2IFCnew,2,WOAN27,
2IFCnew,37,0,37,0,0.333460999886,3,No,9.1,-1,False Alarm,0.667936800048,False,True,stimulusWOAN27_2IFCnew_2019_Jun_12_1557_525,stimulusWOAN27_2IFCnew_2019_Jun_12_1557_526,True,2019_Jun_12_1557,2IFCnew,2,WOAN27,
2IFCnew,38,0,38,0,0.30047919997,4,Yes,5.8,-1,Miss,0.567724100081,True,False,stimulusWOAN27_2IFCnew_2019_Jun_12_1557_527,stimulusWOAN27_2IFCnew_2019_Jun_12_1557_528,True,2019_Jun_12_1557,2IFCnew,2,WOAN27,
2IFCnew,39,0,39,0,0.267033299897,3,No,7.5,-1,False Alarm,0.533815099858,False,True,stimulusWOAN27_2IFCnew_2019_Jun_12_1557_529,stimulusWOAN27_2IFCnew_2019_Jun_12_1557_530,True,2019_Jun_12_1557,2IFCnew,2,WOAN27,
2IFCnew,40,0,40,0,0.500621699961,1,No,9.1,-1,Hit,0.567801199853,True,False,stimulusWOAN27_2IFCnew_2019_Jun_12_1557_531,stimulusWOAN27_2IFCnew_2019_Jun_12_1557_532,True,2019_Jun_12_1557,2IFCnew,2,WOAN27,
2IFCnew,41,0,41,0,0.167644900037,2,Yes,12.4,-1,Correct Rejection,0.600488999858,False,True,stimulusWOAN27_2IFCnew_2019_Jun_12_1557_533,stimulusWOAN27_2IFCnew_2019_Jun_12_1557_534,True,2019_Jun_12_1557,2IFCnew,2,WOAN27,
2IFCnew,42,0,42,0,0.0670086999889,2,Yes,5.8,-1,Correct Rejection,0.533886800054,False,True,stimulusWOAN27_2IFCnew_2019_Jun_12_1557_535,stimulusWOAN27_2IFCnew_2019_Jun_12_1557_536,True,2019_Jun_12_1557,2IFCnew,2,WOAN27,
2IFCnew,43,0,43,0,0.234012499917,1,No,12.4,-1,Hit,0.500763399992,True,False,stimulusWOAN27_2IFCnew_2019_Jun_12_1557_537,stimulusWOAN27_2IFCnew_2019_Jun_12_1557_538,True,2019_Jun_12_1557,2IFCnew,2,WOAN27,
2IFCnew,44,0,44,0,0.100441300077,2,Yes,12.4,-1,Correct Rejection,0.598221600056,False,True,stimulusWOAN27_2IFCnew_2019_Jun_12_1557_539,stimulusWOAN27_2IFCnew_2019_Jun_12_1557_540,True,2019_Jun_12_1557,2IFCnew,2,WOAN27,
2IFCnew,45,0,45,0,0.26711760019,1,No,10.7,-1,Hit,0.500257000094,True,False,stimulusWOAN27_2IFCnew_2019_Jun_12_1557_541,stimulusWOAN27_2IFCnew_2019_Jun_12_1557_542,True,2019_Jun_12_1557,2IFCnew,2,WOAN27,
2IFCnew,46,0,46,0,0.200119800167,2,Yes,12.4,-1,Correct Rejection,0.667371900054,False,True,stimulusWOAN27_2IFCnew_2019_Jun_12_1557_543,stimulusWOAN27_2IFCnew_2019_Jun_12_1557_544,True,2019_Jun_12_1557,2IFCnew,2,WOAN27,
2IFCnew,47,0,47,0,0.667562799994,2,Yes,3.8,-1,Correct Rejection,0.667515299981,False,True,stimulusWOAN27_2IFCnew_2019_Jun_12_1557_545,stimulusWOAN27_2IFCnew_2019_Jun_12_1557_546,True,2019_Jun_12_1557,2IFCnew,2,WOAN27,
2IFCnew,48,0,48,0,0.267090700101,1,No,14.3,-1,Hit,0.534100900171,True,False,stimulusWOAN27_2IFCnew_2019_Jun_12_1557_547,stimulusWOAN27_2IFCnew_2019_Jun_12_1557_548,True,2019_Jun_12_1557,2IFCnew,2,WOAN27,
2IFCnew,49,0,49,0,0.432297599968,5,Yes,7.5,-1,False Alarm,0.801018900005,False,True,stimulusWOAN27_2IFCnew_2019_Jun_12_1557_549,stimulusWOAN27_2IFCnew_2019_Jun_12_1557_550,True,2019_Jun_12_1557,2IFCnew,2,WOAN27,
2IFCnew,50,0,50,0,0.399829400005,2,Yes,3.8,-1,Correct Rejection,0.535447899951,False,True,stimulusWOAN27_2IFCnew_2019_Jun_12_1557_551,stimulusWOAN27_2IFCnew_2019_Jun_12_1557_552,True,2019_Jun_12_1557,2IFCnew,2,WOAN27,
2IFCnew,51,0,51,0,0.33379189996,1,No,12.4,-1,Hit,0.500909700058,True,False,stimulusWOAN27_2IFCnew_2019_Jun_12_1557_553,stimulusWOAN27_2IFCnew_2019_Jun_12_1557_554,True,2019_Jun_12_1557,2IFCnew,2,WOAN27,
2IFCnew,52,0,52,0,0.300357999979,1,No,9.1,-1,Hit,0.533055000007,True,False,stimulusWOAN27_2IFCnew_2019_Jun_12_1557_555,stimulusWOAN27_2IFCnew_2019_Jun_12_1557_556,True,2019_Jun_12_1557,2IFCnew,2,WOAN27,
2IFCnew,53,0,53,0,0.400401199935,2,Yes,10.7,-1,Correct Rejection,0.601128399838,False,True,stimulusWOAN27_2IFCnew_2019_Jun_12_1557_557,stimulusWOAN27_2IFCnew_2019_Jun_12_1557_558,True,2019_Jun_12_1557,2IFCnew,2,WOAN27,
2IFCnew,54,0,54,0,0.601030400023,2,Yes,5.8,-1,Correct Rejection,0.635358799947,False,True,stimulusWOAN27_2IFCnew_2019_Jun_12_1557_559,stimulusWOAN27_2IFCnew_2019_Jun_12_1557_560,True,2019_Jun_12_1557,2IFCnew,2,WOAN27,
2IFCnew,55,0,55,0,0.167017499916,1,No,10.7,-1,Hit,0.434385100147,True,False,stimulusWOAN27_2IFCnew_2019_Jun_12_1557_561,stimulusWOAN27_2IFCnew_2019_Jun_12_1557_562,True,2019_Jun_12_1557,2IFCnew,2,WOAN27,
2IFCnew,56,0,56,0,0.433983399998,2,Yes,14.3,-1,Correct Rejection,0.600838799961,False,True,stimulusWOAN27_2IFCnew_2019_Jun_12_1557_563,stimulusWOAN27_2IFCnew_2019_Jun_12_1557_564,True,2019_Jun_12_1557,2IFCnew,2,WOAN27,
2IFCnew,57,0,57,0,0.333347900072,1,No,12.4,-1,Hit,0.569516699994,True,False,stimulusWOAN27_2IFCnew_2019_Jun_12_1557_565,stimulusWOAN27_2IFCnew_2019_Jun_12_1557_566,True,2019_Jun_12_1557,2IFCnew,2,WOAN27,
2IFCnew,58,0,58,0,0.333847400034,1,No,14.3,-1,Hit,0.535015800036,True,False,stimulusWOAN27_2IFCnew_2019_Jun_12_1557_567,stimulusWOAN27_2IFCnew_2019_Jun_12_1557_568,True,2019_Jun_12_1557,2IFCnew,2,WOAN27,
2IFCnew,59,0,59,0,0.300400200067,2,Yes,9.1,-1,Correct Rejection,0.534755099798,False,True,stimulusWOAN27_2IFCnew_2019_Jun_12_1557_569,stimulusWOAN27_2IFCnew_2019_Jun_12_1557_570,True,2019_Jun_12_1557,2IFCnew,2,WOAN27,
2IFCnew,60,0,60,0,0.300284599885,1,No,3.8,-1,Hit,0.702112100087,True,False,stimulusWOAN27_2IFCnew_2019_Jun_12_1557_571,stimulusWOAN27_2IFCnew_2019_Jun_12_1557_572,True,2019_Jun_12_1557,2IFCnew,2,WOAN27,
2IFCnew,61,0,61,0,0.166497000027,2,Yes,10.7,-1,Correct Rejection,0.6337625999,False,True,stimulusWOAN27_2IFCnew_2019_Jun_12_1557_573,stimulusWOAN27_2IFCnew_2019_Jun_12_1557_574,True,2019_Jun_12_1557,2IFCnew,2,WOAN27,
2IFCnew,62,0,62,0,-1,0,Yes,7.5,-1,No Answer,-1,False,True,stimulusWOAN27_2IFCnew_2019_Jun_12_1557_575,stimulusWOAN27_2IFCnew_2019_Jun_12_1557_576,True,2019_Jun_12_1557,2IFCnew,2,WOAN27,
2IFCnew,63,0,63,0,0.233314299956,1,No,10.7,-1,Hit,0.635093000019,True,False,stimulusWOAN27_2IFCnew_2019_Jun_12_1557_577,stimulusWOAN27_2IFCnew_2019_Jun_12_1557_578,True,2019_Jun_12_1557,2IFCnew,2,WOAN27,
2IFCnew,64,0,64,0,0.132982600015,1,No,9.1,-1,Hit,0.634421999799,True,False,stimulusWOAN27_2IFCnew_2019_Jun_12_1557_579,stimulusWOAN27_2IFCnew_2019_Jun_12_1557_580,True,2019_Jun_12_1557,2IFCnew,2,WOAN27,
2IFCnew,65,0,65,0,0.201127200155,2,Yes,14.3,-1,Correct Rejection,0.600497600157,False,True,stimulusWOAN27_2IFCnew_2019_Jun_12_1557_581,stimulusWOAN27_2IFCnew_2019_Jun_12_1557_582,True,2019_Jun_12_1557,2IFCnew,2,WOAN27,
2IFCnew,66,0,66,0,0.0338842000347,1,No,9.1,-1,Hit,0.700643100077,True,False,stimulusWOAN27_2IFCnew_2019_Jun_12_1557_583,stimulusWOAN27_2IFCnew_2019_Jun_12_1557_584,True,2019_Jun_12_1557,2IFCnew,2,WOAN27,
2IFCnew,67,0,67,0,-1,0,No,9.1,-1,No Answer,-1,True,False,stimulusWOAN27_2IFCnew_2019_Jun_12_1557_585,stimulusWOAN27_2IFCnew_2019_Jun_12_1557_586,True,2019_Jun_12_1557,2IFCnew,2,WOAN27,
2IFCnew,68,0,68,0,0.300564500038,2,Yes,14.3,-1,Correct Rejection,0.567243600031,False,True,stimulusWOAN27_2IFCnew_2019_Jun_12_1557_587,stimulusWOAN27_2IFCnew_2019_Jun_12_1557_588,True,2019_Jun_12_1557,2IFCnew,2,WOAN27,
2IFCnew,69,0,69,0,0.200307099847,1,No,7.5,-1,Hit,0.598804600071,True,False,stimulusWOAN27_2IFCnew_2019_Jun_12_1557_589,stimulusWOAN27_2IFCnew_2019_Jun_12_1557_590,True,2019_Jun_12_1557,2IFCnew,2,WOAN27,
2IFCnew,70,0,70,0,0.366631600074,1,No,9.1,-1,Hit,0.500532899983,True,False,stimulusWOAN27_2IFCnew_2019_Jun_12_1557_591,stimulusWOAN27_2IFCnew_2019_Jun_12_1557_592,True,2019_Jun_12_1557,2IFCnew,2,WOAN27,
2IFCnew,71,0,71,0,0.165619599866,4,Yes,3.8,-1,Miss,0.568169299979,True,False,stimulusWOAN27_2IFCnew_2019_Jun_12_1557_593,stimulusWOAN27_2IFCnew_2019_Jun_12_1557_594,True,2019_Jun_12_1557,2IFCnew,2,WOAN27,
2IFCnew,72,0,72,0,0.233621000079,3,No,10.7,-1,False Alarm,0.567349700024,False,True,stimulusWOAN27_2IFCnew_2019_Jun_12_1557_595,stimulusWOAN27_2IFCnew_2019_Jun_12_1557_596,True,2019_Jun_12_1557,2IFCnew,2,WOAN27,
2IFCnew,73,0,73,0,0.0329064000398,4,Yes,5.8,-1,Miss,0.467111600097,True,False,stimulusWOAN27_2IFCnew_2019_Jun_12_1557_597,stimulusWOAN27_2IFCnew_2019_Jun_12_1557_598,True,2019_Jun_12_1557,2IFCnew,2,WOAN27,
2IFCnew,74,0,74,0,0.300546599785,1,No,14.3,-1,Hit,0.534671599977,True,False,stimulusWOAN27_2IFCnew_2019_Jun_12_1557_599,stimulusWOAN27_2IFCnew_2019_Jun_12_1557_600,True,2019_Jun_12_1557,2IFCnew,2,WOAN27,
2IFCnew,0,0,0,0,0.501208900008,2,Yes,14.3,-1,Correct Rejection,0.5002293,False,True,stimulusWOAN27_2IFCnew_2019_Jun_12_1557_601,stimulusWOAN27_2IFCnew_2019_Jun_12_1557_602,True,2019_Jun_12_1557,2IFCnew,2,WOAN27,
2IFCnew,1,0,1,0,0.767066299915,3,No,5.8,-1,False Alarm,0.568209399935,False,True,stimulusWOAN27_2IFCnew_2019_Jun_12_1557_603,stimulusWOAN27_2IFCnew_2019_Jun_12_1557_604,True,2019_Jun_12_1557,2IFCnew,2,WOAN27,
2IFCnew,2,0,2,0,0.16678739991,2,Yes,5.8,-1,Correct Rejection,0.500381699996,False,True,stimulusWOAN27_2IFCnew_2019_Jun_12_1557_605,stimulusWOAN27_2IFCnew_2019_Jun_12_1557_606,True,2019_Jun_12_1557,2IFCnew,2,WOAN27,
2IFCnew,3,0,3,0,0.134549800074,2,Yes,12.4,-1,Correct Rejection,0.500518300105,False,True,stimulusWOAN27_2IFCnew_2019_Jun_12_1557_607,stimulusWOAN27_2IFCnew_2019_Jun_12_1557_608,True,2019_Jun_12_1557,2IFCnew,2,WOAN27,
2IFCnew,4,0,4,0,0.134203900117,1,No,10.7,-1,Hit,0.400706399931,True,False,stimulusWOAN27_2IFCnew_2019_Jun_12_1557_609,stimulusWOAN27_2IFCnew_2019_Jun_12_1557_610,True,2019_Jun_12_1557,2IFCnew,2,WOAN27,
2IFCnew,5,0,5,0,0.133334599901,3,No,9.1,-1,False Alarm,0.600368299987,False,True,stimulusWOAN27_2IFCnew_2019_Jun_12_1557_611,stimulusWOAN27_2IFCnew_2019_Jun_12_1557_612,True,2019_Jun_12_1557,2IFCnew,2,WOAN27,
2IFCnew,6,0,6,0,0.167718700133,1,No,14.3,-1,Hit,0.500907100039,True,False,stimulusWOAN27_2IFCnew_2019_Jun_12_1557_613,stimulusWOAN27_2IFCnew_2019_Jun_12_1557_614,True,2019_Jun_12_1557,2IFCnew,2,WOAN27,
2IFCnew,7,0,7,0,0.300429500174,3,No,1.4,-1,False Alarm,0.633939099964,False,True,stimulusWOAN27_2IFCnew_2019_Jun_12_1557_615,stimulusWOAN27_2IFCnew_2019_Jun_12_1557_616,True,2019_Jun_12_1557,2IFCnew,2,WOAN27,
2IFCnew,8,0,8,0,0.135031099897,2,Yes,10.7,-1,Correct Rejection,0.500112199923,False,True,stimulusWOAN27_2IFCnew_2019_Jun_12_1557_617,stimulusWOAN27_2IFCnew_2019_Jun_12_1557_618,True,2019_Jun_12_1557,2IFCnew,2,WOAN27,
2IFCnew,9,0,9,0,0.233921299921,4,Yes,5.8,-1,Miss,0.633556500077,True,False,stimulusWOAN27_2IFCnew_2019_Jun_12_1557_619,stimulusWOAN27_2IFCnew_2019_Jun_12_1557_620,True,2019_Jun_12_1557,2IFCnew,2,WOAN27,
2IFCnew,10,0,10,0,0.467388600111,3,No,3.8,-1,False Alarm,0.766792499926,False,True,stimulusWOAN27_2IFCnew_2019_Jun_12_1557_621,stimulusWOAN27_2IFCnew_2019_Jun_12_1557_622,True,2019_Jun_12_1557,2IFCnew,2,WOAN27,
2IFCnew,11,0,11,0,-1,3,No,12.4,-1,Correct Rejection,0.501544900006,False,True,stimulusWOAN27_2IFCnew_2019_Jun_12_1557_623,stimulusWOAN27_2IFCnew_2019_Jun_12_1557_624,True,2019_Jun_12_1557,2IFCnew,2,WOAN27,
2IFCnew,12,0,12,0,0.199947299901,2,Yes,5.8,-1,Correct Rejection,0.60179789993,False,True,stimulusWOAN27_2IFCnew_2019_Jun_12_1557_625,stimulusWOAN27_2IFCnew_2019_Jun_12_1557_626,True,2019_Jun_12_1557,2IFCnew,2,WOAN27,
2IFCnew,13,0,13,0,0.233578999992,1,No,12.4,-1,Hit,0.465515499935,True,False,stimulusWOAN27_2IFCnew_2019_Jun_12_1557_627,stimulusWOAN27_2IFCnew_2019_Jun_12_1557_628,True,2019_Jun_12_1557,2IFCnew,2,WOAN27,
2IFCnew,14,0,14,0,0.300484600011,1,No,5.8,-1,Hit,0.767386900028,True,False,stimulusWOAN27_2IFCnew_2019_Jun_12_1557_629,stimulusWOAN27_2IFCnew_2019_Jun_12_1557_630,True,2019_Jun_12_1557,2IFCnew,2,WOAN27,
2IFCnew,15,0,15,0,0.135464600055,2,Yes,3.8,-1,Correct Rejection,0.567583699943,False,True,stimulusWOAN27_2IFCnew_2019_Jun_12_1557_631,stimulusWOAN27_2IFCnew_2019_Jun_12_1557_632,True,2019_Jun_12_1557,2IFCnew,2,WOAN27,
2IFCnew,16,0,16,0,0.200116800144,1,No,12.4,-1,Hit,0.499460499967,True,False,stimulusWOAN27_2IFCnew_2019_Jun_12_1557_633,stimulusWOAN27_2IFCnew_2019_Jun_12_1557_634,True,2019_Jun_12_1557,2IFCnew,2,WOAN27,
2IFCnew,17,0,17,0,0.166277700104,2,Yes,1.4,-1,Correct Rejection,0.601571099833,False,True,stimulusWOAN27_2IFCnew_2019_Jun_12_1557_635,stimulusWOAN27_2IFCnew_2019_Jun_12_1557_636,True,2019_Jun_12_1557,2IFCnew,2,WOAN27,
2IFCnew,18,0,18,0,0.300489899935,3,No,9.1,-1,False Alarm,0.602445000084,False,True,stimulusWOAN27_2IFCnew_2019_Jun_12_1557_637,stimulusWOAN27_2IFCnew_2019_Jun_12_1557_638,True,2019_Jun_12_1557,2IFCnew,2,WOAN27,
2IFCnew,19,0,19,0,0.29932069988,1,No,3.8,-1,Hit,0.634726099903,True,False,stimulusWOAN27_2IFCnew_2019_Jun_12_1557_639,stimulusWOAN27_2IFCnew_2019_Jun_12_1557_640,True,2019_Jun_12_1557,2IFCnew,2,WOAN27,
2IFCnew,20,0,20,0,0.300397300161,1,No,10.7,-1,Hit,0.66772040003,True,False,stimulusWOAN27_2IFCnew_2019_Jun_12_1557_641,stimulusWOAN27_2IFCnew_2019_Jun_12_1557_642,True,2019_Jun_12_1557,2IFCnew,2,WOAN27,
2IFCnew,21,0,21,0,0.234185300069,3,No,14.3,-1,False Alarm,0.53411379992,False,True,stimulusWOAN27_2IFCnew_2019_Jun_12_1557_643,stimulusWOAN27_2IFCnew_2019_Jun_12_1557_644,True,2019_Jun_12_1557,2IFCnew,2,WOAN27,
2IFCnew,22,0,22,0,0.434180299984,1,No,9.1,-1,Hit,0.500708199805,True,False,stimulusWOAN27_2IFCnew_2019_Jun_12_1557_645,stimulusWOAN27_2IFCnew_2019_Jun_12_1557_646,True,2019_Jun_12_1557,2IFCnew,2,WOAN27,
2IFCnew,23,0,23,0,0.200792199932,2,Yes,9.1,-1,Correct Rejection,0.533994199941,False,True,stimulusWOAN27_2IFCnew_2019_Jun_12_1557_647,stimulusWOAN27_2IFCnew_2019_Jun_12_1557_648,True,2019_Jun_12_1557,2IFCnew,2,WOAN27,
2IFCnew,24,0,24,0,0.567204300081,1,No,12.4,-1,Hit,0.60074350005,True,False,stimulusWOAN27_2IFCnew_2019_Jun_12_1557_649,stimulusWOAN27_2IFCnew_2019_Jun_12_1557_650,True,2019_Jun_12_1557,2IFCnew,2,WOAN27,
2IFCnew,25,0,25,0,0.800585200079,2,Yes,1.4,-1,Correct Rejection,0.767170100007,False,True,stimulusWOAN27_2IFCnew_2019_Jun_12_1557_651,stimulusWOAN27_2IFCnew_2019_Jun_12_1557_652,True,2019_Jun_12_1557,2IFCnew,2,WOAN27,
2IFCnew,26,0,26,0,0.867578699952,5,Yes,14.3,-1,False Alarm,0.534190900158,False,True,stimulusWOAN27_2IFCnew_2019_Jun_12_1557_653,stimulusWOAN27_2IFCnew_2019_Jun_12_1557_654,True,2019_Jun_12_1557,2IFCnew,2,WOAN27,
2IFCnew,27,0,27,0,0.399195299949,4,Yes,1.4,-1,Miss,0.633954300079,True,False,stimulusWOAN27_2IFCnew_2019_Jun_12_1557_655,stimulusWOAN27_2IFCnew_2019_Jun_12_1557_656,True,2019_Jun_12_1557,2IFCnew,2,WOAN27,
2IFCnew,28,0,28,0,0.133632199839,2,Yes,12.4,-1,Correct Rejection,0.533918099944,False,True,stimulusWOAN27_2IFCnew_2019_Jun_12_1557_657,stimulusWOAN27_2IFCnew_2019_Jun_12_1557_658,True,2019_Jun_12_1557,2IFCnew,2,WOAN27,
2IFCnew,29,0,29,0,0.200611499837,1,No,14.3,-1,Hit,0.467778299935,True,False,stimulusWOAN27_2IFCnew_2019_Jun_12_1557_659,stimulusWOAN27_2IFCnew_2019_Jun_12_1557_660,True,2019_Jun_12_1557,2IFCnew,2,WOAN27,
2IFCnew,30,0,30,0,0.331763499882,1,No,12.4,-1,Hit,0.568448000122,True,False,stimulusWOAN27_2IFCnew_2019_Jun_12_1557_661,stimulusWOAN27_2IFCnew_2019_Jun_12_1557_662,True,2019_Jun_12_1557,2IFCnew,2,WOAN27,
2IFCnew,31,0,31,0,0.2324945,2,Yes,14.3,-1,Correct Rejection,0.601668399991,False,True,stimulusWOAN27_2IFCnew_2019_Jun_12_1557_663,stimulusWOAN27_2IFCnew_2019_Jun_12_1557_664,True,2019_Jun_12_1557,2IFCnew,2,WOAN27,
2IFCnew,32,0,32,0,0.16696000006,1,No,10.7,-1,Hit,0.533905000193,True,False,stimulusWOAN27_2IFCnew_2019_Jun_12_1557_665,stimulusWOAN27_2IFCnew_2019_Jun_12_1557_666,True,2019_Jun_12_1557,2IFCnew,2,WOAN27,
2IFCnew,33,0,33,0,0.233544799965,2,Yes,3.8,-1,Correct Rejection,0.601255899994,False,True,stimulusWOAN27_2IFCnew_2019_Jun_12_1557_667,stimulusWOAN27_2IFCnew_2019_Jun_12_1557_668,True,2019_Jun_12_1557,2IFCnew,2,WOAN27,
2IFCnew,34,0,34,0,-1,1,Yes,12.4,-1,Hit,0.634407799924,True,False,stimulusWOAN27_2IFCnew_2019_Jun_12_1557_669,stimulusWOAN27_2IFCnew_2019_Jun_12_1557_670,True,2019_Jun_12_1557,2IFCnew,2,WOAN27,
2IFCnew,35,0,35,0,0.100463900017,4,Yes,1.4,-1,Miss,0.601352800149,True,False,stimulusWOAN27_2IFCnew_2019_Jun_12_1557_671,stimulusWOAN27_2IFCnew_2019_Jun_12_1557_672,True,2019_Jun_12_1557,2IFCnew,2,WOAN27,
2IFCnew,36,0,36,0,-1,0,Yes,3.8,-1,No Answer,-1,False,True,stimulusWOAN27_2IFCnew_2019_Jun_12_1557_673,stimulusWOAN27_2IFCnew_2019_Jun_12_1557_674,True,2019_Jun_12_1557,2IFCnew,2,WOAN27,
2IFCnew,37,0,37,0,0.167229299899,2,Yes,14.3,-1,Correct Rejection,0.564808499999,False,True,stimulusWOAN27_2IFCnew_2019_Jun_12_1557_675,stimulusWOAN27_2IFCnew_2019_Jun_12_1557_676,True,2019_Jun_12_1557,2IFCnew,2,WOAN27,
2IFCnew,38,0,38,0,0.1670132,2,Yes,12.4,-1,Correct Rejection,0.567390199983,False,True,stimulusWOAN27_2IFCnew_2019_Jun_12_1557_677,stimulusWOAN27_2IFCnew_2019_Jun_12_1557_678,True,2019_Jun_12_1557,2IFCnew,2,WOAN27,
2IFCnew,39,0,39,0,0.10039320006,2,Yes,7.5,-1,Correct Rejection,0.502427200088,False,True,stimulusWOAN27_2IFCnew_2019_Jun_12_1557_679,stimulusWOAN27_2IFCnew_2019_Jun_12_1557_680,True,2019_Jun_12_1557,2IFCnew,2,WOAN27,
2IFCnew,40,0,40,0,0.233652200084,4,Yes,7.5,-1,Miss,0.500673800008,True,False,stimulusWOAN27_2IFCnew_2019_Jun_12_1557_681,stimulusWOAN27_2IFCnew_2019_Jun_12_1557_682,True,2019_Jun_12_1557,2IFCnew,2,WOAN27,
2IFCnew,41,0,41,0,0.0667326999828,1,No,5.8,-1,Hit,0.534153599991,True,False,stimulusWOAN27_2IFCnew_2019_Jun_12_1557_683,stimulusWOAN27_2IFCnew_2019_Jun_12_1557_684,True,2019_Jun_12_1557,2IFCnew,2,WOAN27,
2IFCnew,42,0,42,0,0.166587600019,1,No,5.8,-1,Hit,0.566056499956,True,False,stimulusWOAN27_2IFCnew_2019_Jun_12_1557_685,stimulusWOAN27_2IFCnew_2019_Jun_12_1557_686,True,2019_Jun_12_1557,2IFCnew,2,WOAN27,
2IFCnew,43,0,43,0,0.0338908000849,4,Yes,10.7,-1,Miss,0.567225900013,True,False,stimulusWOAN27_2IFCnew_2019_Jun_12_1557_687,stimulusWOAN27_2IFCnew_2019_Jun_12_1557_688,True,2019_Jun_12_1557,2IFCnew,2,WOAN27,
2IFCnew,44,0,44,0,-1,2,Yes,9.1,-1,False Alarm,0.533214899944,False,True,stimulusWOAN27_2IFCnew_2019_Jun_12_1557_689,stimulusWOAN27_2IFCnew_2019_Jun_12_1557_690,True,2019_Jun_12_1557,2IFCnew,2,WOAN27,
2IFCnew,45,0,45,0,0.200946199941,2,Yes,10.7,-1,Correct Rejection,0.567339900183,False,True,stimulusWOAN27_2IFCnew_2019_Jun_12_1557_691,stimulusWOAN27_2IFCnew_2019_Jun_12_1557_692,True,2019_Jun_12_1557,2IFCnew,2,WOAN27,
2IFCnew,46,0,46,0,0.0336575000547,4,Yes,5.8,-1,Miss,0.700260400074,True,False,stimulusWOAN27_2IFCnew_2019_Jun_12_1557_693,stimulusWOAN27_2IFCnew_2019_Jun_12_1557_694,True,2019_Jun_12_1557,2IFCnew,2,WOAN27,
2IFCnew,47,0,47,0,0.233598399907,2,Yes,12.4,-1,Correct Rejection,0.533889299957,False,True,stimulusWOAN27_2IFCnew_2019_Jun_12_1557_695,stimulusWOAN27_2IFCnew_2019_Jun_12_1557_696,True,2019_Jun_12_1557,2IFCnew,2,WOAN27,
2IFCnew,48,0,48,0,0.433911700035,6,No,1.4,-1,Miss,0.533243100159,True,False,stimulusWOAN27_2IFCnew_2019_Jun_12_1557_697,stimulusWOAN27_2IFCnew_2019_Jun_12_1557_698,True,2019_Jun_12_1557,2IFCnew,2,WOAN27,
2IFCnew,49,0,49,0,0.634648600128,8,No,5.8,-1,Correct Rejection,0.567388700088,False,True,stimulusWOAN27_2IFCnew_2019_Jun_12_1557_699,stimulusWOAN27_2IFCnew_2019_Jun_12_1557_700,True,2019_Jun_12_1557,2IFCnew,2,WOAN27,
2IFCnew,50,0,50,0,0.432692900067,6,No,5.8,-1,Miss,0.700754699996,True,False,stimulusWOAN27_2IFCnew_2019_Jun_12_1557_701,stimulusWOAN27_2IFCnew_2019_Jun_12_1557_702,True,2019_Jun_12_1557,2IFCnew,2,WOAN27,
2IFCnew,51,0,51,0,0.436816399917,2,Yes,9.1,-1,Correct Rejection,0.532947500004,False,True,stimulusWOAN27_2IFCnew_2019_Jun_12_1557_703,stimulusWOAN27_2IFCnew_2019_Jun_12_1557_704,True,2019_Jun_12_1557,2IFCnew,2,WOAN27,
2IFCnew,52,0,52,0,0.300084099872,1,No,5.8,-1,Hit,0.533043300034,True,False,stimulusWOAN27_2IFCnew_2019_Jun_12_1557_705,stimulusWOAN27_2IFCnew_2019_Jun_12_1557_706,True,2019_Jun_12_1557,2IFCnew,2,WOAN27,
2IFCnew,53,0,53,0,0.500870199874,6,No,3.8,-1,Miss,0.567499600118,True,False,stimulusWOAN27_2IFCnew_2019_Jun_12_1557_707,stimulusWOAN27_2IFCnew_2019_Jun_12_1557_708,True,2019_Jun_12_1557,2IFCnew,2,WOAN27,
2IFCnew,54,0,54,0,0.500593899982,8,No,3.8,-1,Correct Rejection,0.467443800066,False,True,stimulusWOAN27_2IFCnew_2019_Jun_12_1557_709,stimulusWOAN27_2IFCnew_2019_Jun_12_1557_710,True,2019_Jun_12_1557,2IFCnew,2,WOAN27,
2IFCnew,55,0,55,0,0.435092400061,6,No,1.4,-1,Miss,0.435355100082,True,False,stimulusWOAN27_2IFCnew_2019_Jun_12_1557_711,stimulusWOAN27_2IFCnew_2019_Jun_12_1557_712,True,2019_Jun_12_1557,2IFCnew,2,WOAN27,
2IFCnew,56,0,56,0,0.567536999937,8,No,1.4,-1,Correct Rejection,0.567988399882,False,True,stimulusWOAN27_2IFCnew_2019_Jun_12_1557_713,stimulusWOAN27_2IFCnew_2019_Jun_12_1557_714,True,2019_Jun_12_1557,2IFCnew,2,WOAN27,
2IFCnew,57,0,57,0,0.400918400148,6,No,5.8,-1,Miss,0.733307299903,True,False,stimulusWOAN27_2IFCnew_2019_Jun_12_1557_715,stimulusWOAN27_2IFCnew_2019_Jun_12_1557_716,True,2019_Jun_12_1557,2IFCnew,2,WOAN27,
2IFCnew,58,0,58,0,0.333653700072,1,No,10.7,-1,Hit,0.533686000155,True,False,stimulusWOAN27_2IFCnew_2019_Jun_12_1557_717,stimulusWOAN27_2IFCnew_2019_Jun_12_1557_718,True,2019_Jun_12_1557,2IFCnew,2,WOAN27,
2IFCnew,59,0,59,0,0.30031890003,1,No,9.1,-1,Hit,0.600955100032,True,False,stimulusWOAN27_2IFCnew_2019_Jun_12_1557_719,stimulusWOAN27_2IFCnew_2019_Jun_12_1557_720,True,2019_Jun_12_1557,2IFCnew,2,WOAN27,
2IFCnew,60,0,60,0,0.199771699961,2,Yes,7.5,-1,Correct Rejection,0.568683600053,False,True,stimulusWOAN27_2IFCnew_2019_Jun_12_1557_721,stimulusWOAN27_2IFCnew_2019_Jun_12_1557_722,True,2019_Jun_12_1557,2IFCnew,2,WOAN27,
2IFCnew,61,0,61,0,0.133607999887,1,No,9.1,-1,Hit,0.800676699961,True,False,stimulusWOAN27_2IFCnew_2019_Jun_12_1557_723,stimulusWOAN27_2IFCnew_2019_Jun_12_1557_724,True,2019_Jun_12_1557,2IFCnew,2,WOAN27,
2IFCnew,62,0,62,0,0.0672302001622,2,Yes,14.3,-1,Correct Rejection,0.567391900113,False,True,stimulusWOAN27_2IFCnew_2019_Jun_12_1557_725,stimulusWOAN27_2IFCnew_2019_Jun_12_1557_726,True,2019_Jun_12_1557,2IFCnew,2,WOAN27,
2IFCnew,63,0,63,0,0.233011499979,2,Yes,14.3,-1,Correct Rejection,0.533827799838,False,True,stimulusWOAN27_2IFCnew_2019_Jun_12_1557_727,stimulusWOAN27_2IFCnew_2019_Jun_12_1557_728,True,2019_Jun_12_1557,2IFCnew,2,WOAN27,
2IFCnew,64,0,64,0,0.299660600023,1,No,14.3,-1,Hit,0.500233700033,True,False,stimulusWOAN27_2IFCnew_2019_Jun_12_1557_729,stimulusWOAN27_2IFCnew_2019_Jun_12_1557_730,True,2019_Jun_12_1557,2IFCnew,2,WOAN27,
2IFCnew,65,0,65,0,0.166937600123,4,Yes,3.8,-1,Miss,0.467203899985,True,False,stimulusWOAN27_2IFCnew_2019_Jun_12_1557_731,stimulusWOAN27_2IFCnew_2019_Jun_12_1557_732,True,2019_Jun_12_1557,2IFCnew,2,WOAN27,
2IFCnew,66,0,66,0,0.133556300076,2,Yes,9.1,-1,Correct Rejection,0.500970999943,False,True,stimulusWOAN27_2IFCnew_2019_Jun_12_1557_733,stimulusWOAN27_2IFCnew_2019_Jun_12_1557_734,True,2019_Jun_12_1557,2IFCnew,2,WOAN27,
2IFCnew,67,0,67,0,0.301947499858,1,No,14.3,-1,Hit,0.567364099901,True,False,stimulusWOAN27_2IFCnew_2019_Jun_12_1557_735,stimulusWOAN27_2IFCnew_2019_Jun_12_1557_736,True,2019_Jun_12_1557,2IFCnew,2,WOAN27,
2IFCnew,68,0,68,0,0.267041099956,4,Yes,3.8,-1,Miss,0.567573299864,True,False,stimulusWOAN27_2IFCnew_2019_Jun_12_1557_737,stimulusWOAN27_2IFCnew_2019_Jun_12_1557_738,True,2019_Jun_12_1557,2IFCnew,2,WOAN27,
2IFCnew,69,0,69,0,0.233043499989,1,No,5.8,-1,Hit,0.465984099777,True,False,stimulusWOAN27_2IFCnew_2019_Jun_12_1557_739,stimulusWOAN27_2IFCnew_2019_Jun_12_1557_740,True,2019_Jun_12_1557,2IFCnew,2,WOAN27,
2IFCnew,70,0,70,0,0.635000400012,2,Yes,10.7,-1,Correct Rejection,0.79927619989,False,True,stimulusWOAN27_2IFCnew_2019_Jun_12_1557_741,stimulusWOAN27_2IFCnew_2019_Jun_12_1557_742,True,2019_Jun_12_1557,2IFCnew,2,WOAN27,
2IFCnew,71,0,71,0,0.50086749997,2,Yes,5.8,-1,Correct Rejection,0.533193199895,False,True,stimulusWOAN27_2IFCnew_2019_Jun_12_1557_743,stimulusWOAN27_2IFCnew_2019_Jun_12_1557_744,True,2019_Jun_12_1557,2IFCnew,2,WOAN27,
2IFCnew,72,0,72,0,0.36686329986,4,Yes,10.7,-1,Miss,0.597197500058,True,False,stimulusWOAN27_2IFCnew_2019_Jun_12_1557_745,stimulusWOAN27_2IFCnew_2019_Jun_12_1557_746,True,2019_Jun_12_1557,2IFCnew,2,WOAN27,
2IFCnew,73,0,73,0,-1,0,Yes,10.7,-1,No Answer,-1,False,True,stimulusWOAN27_2IFCnew_2019_Jun_12_1557_747,stimulusWOAN27_2IFCnew_2019_Jun_12_1557_748,True,2019_Jun_12_1557,2IFCnew,2,WOAN27,
2IFCnew,74,0,74,0,0.567161899991,1,No,5.8,-1,Hit,0.334137799917,True,False,stimulusWOAN27_2IFCnew_2019_Jun_12_1557_749,stimulusWOAN27_2IFCnew_2019_Jun_12_1557_750,True,2019_Jun_12_1557,2IFCnew,2,WOAN27,
2IFCnew,0,0,0,0,-1,0,No,9.1,-1,No Answer,-1,True,False,stimulusWOAN27_2IFCnew_2019_Jun_12_1557_751,stimulusWOAN27_2IFCnew_2019_Jun_12_1557_752,True,2019_Jun_12_1557,2IFCnew,2,WOAN27,
2IFCnew,1,0,1,0,-1,4,No,3.8,-1,Miss,0.3337512,True,False,stimulusWOAN27_2IFCnew_2019_Jun_12_1557_753,stimulusWOAN27_2IFCnew_2019_Jun_12_1557_754,True,2019_Jun_12_1557,2IFCnew,2,WOAN27,
2IFCnew,2,0,2,0,0.0998280998319,3,No,9.1,-1,False Alarm,0.466879100073,False,True,stimulusWOAN27_2IFCnew_2019_Jun_12_1557_755,stimulusWOAN27_2IFCnew_2019_Jun_12_1557_756,True,2019_Jun_12_1557,2IFCnew,2,WOAN27,
2IFCnew,3,0,3,0,0.334104900016,4,Yes,3.8,-1,Miss,0.500809099991,True,False,stimulusWOAN27_2IFCnew_2019_Jun_12_1557_757,stimulusWOAN27_2IFCnew_2019_Jun_12_1557_758,True,2019_Jun_12_1557,2IFCnew,2,WOAN27,
2IFCnew,4,0,4,0,0.100456899963,1,No,10.7,-1,Hit,0.400555799948,True,False,stimulusWOAN27_2IFCnew_2019_Jun_12_1557_759,stimulusWOAN27_2IFCnew_2019_Jun_12_1557_760,True,2019_Jun_12_1557,2IFCnew,2,WOAN27,
2IFCnew,5,0,5,0,0.301479300018,6,No,1.4,-1,Miss,0.53338170005,True,False,stimulusWOAN27_2IFCnew_2019_Jun_12_1557_761,stimulusWOAN27_2IFCnew_2019_Jun_12_1557_762,True,2019_Jun_12_1557,2IFCnew,2,WOAN27,
2IFCnew,6,0,6,0,0.566293800017,2,Yes,7.5,-1,Correct Rejection,0.434139099903,False,True,stimulusWOAN27_2IFCnew_2019_Jun_12_1557_763,stimulusWOAN27_2IFCnew_2019_Jun_12_1557_764,True,2019_Jun_12_1557,2IFCnew,2,WOAN27,
2IFCnew,7,0,7,0,0.436186200008,6,No,9.1,-1,Miss,0.533999599982,True,False,stimulusWOAN27_2IFCnew_2019_Jun_12_1557_765,stimulusWOAN27_2IFCnew_2019_Jun_12_1557_766,True,2019_Jun_12_1557,2IFCnew,2,WOAN27,
2IFCnew,8,0,8,0,0.402193099959,6,No,3.8,-1,Miss,0.467365799937,True,False,stimulusWOAN27_2IFCnew_2019_Jun_12_1557_767,stimulusWOAN27_2IFCnew_2019_Jun_12_1557_768,True,2019_Jun_12_1557,2IFCnew,2,WOAN27,
2IFCnew,9,0,9,0,0.40103180008,2,Yes,1.4,-1,Correct Rejection,0.433188899886,False,True,stimulusWOAN27_2IFCnew_2019_Jun_12_1557_769,stimulusWOAN27_2IFCnew_2019_Jun_12_1557_770,True,2019_Jun_12_1557,2IFCnew,2,WOAN27,
2IFCnew,10,0,10,0,0.401116600027,6,No,5.8,-1,Miss,0.467222099891,True,False,stimulusWOAN27_2IFCnew_2019_Jun_12_1557_771,stimulusWOAN27_2IFCnew_2019_Jun_12_1557_772,True,2019_Jun_12_1557,2IFCnew,2,WOAN27,
2IFCnew,11,0,11,0,0.267680300167,6,No,3.8,-1,Miss,0.333828399889,True,False,stimulusWOAN27_2IFCnew_2019_Jun_12_1557_773,stimulusWOAN27_2IFCnew_2019_Jun_12_1557_774,True,2019_Jun_12_1557,2IFCnew,2,WOAN27,
2IFCnew,12,0,12,0,0.300448999973,2,Yes,14.3,-1,Correct Rejection,0.434505899902,False,True,stimulusWOAN27_2IFCnew_2019_Jun_12_1557_775,stimulusWOAN27_2IFCnew_2019_Jun_12_1557_776,True,2019_Jun_12_1557,2IFCnew,2,WOAN27,
2IFCnew,13,0,13,0,0.535875199828,4,Yes,3.8,-1,Miss,0.433444499969,True,False,stimulusWOAN27_2IFCnew_2019_Jun_12_1557_777,stimulusWOAN27_2IFCnew_2019_Jun_12_1557_778,True,2019_Jun_12_1557,2IFCnew,2,WOAN27,
2IFCnew,14,0,14,0,0.233851399971,3,No,7.5,-1,False Alarm,0.433856199961,False,True,stimulusWOAN27_2IFCnew_2019_Jun_12_1557_779,stimulusWOAN27_2IFCnew_2019_Jun_12_1557_780,True,2019_Jun_12_1557,2IFCnew,2,WOAN27,
2IFCnew,15,0,15,0,0.534484900068,2,Yes,14.3,-1,Correct Rejection,0.432802299969,False,True,stimulusWOAN27_2IFCnew_2019_Jun_12_1557_781,stimulusWOAN27_2IFCnew_2019_Jun_12_1557_782,True,2019_Jun_12_1557,2IFCnew,2,WOAN27,
2IFCnew,16,0,16,0,0.268152800156,3,No,12.4,-1,False Alarm,0.467599400086,False,True,stimulusWOAN27_2IFCnew_2019_Jun_12_1557_783,stimulusWOAN27_2IFCnew_2019_Jun_12_1557_784,True,2019_Jun_12_1557,2IFCnew,2,WOAN27,
2IFCnew,17,0,17,0,0.267309500137,4,Yes,3.8,-1,Miss,0.567234900082,True,False,stimulusWOAN27_2IFCnew_2019_Jun_12_1557_785,stimulusWOAN27_2IFCnew_2019_Jun_12_1557_786,True,2019_Jun_12_1557,2IFCnew,2,WOAN27,
2IFCnew,18,0,18,0,0.433906499995,2,Yes,9.1,-1,Correct Rejection,0.400091299787,False,True,stimulusWOAN27_2IFCnew_2019_Jun_12_1557_787,stimulusWOAN27_2IFCnew_2019_Jun_12_1557_788,True,2019_Jun_12_1557,2IFCnew,2,WOAN27,
2IFCnew,19,0,19,0,0.133503600024,1,No,5.8,-1,Hit,0.433558299905,True,False,stimulusWOAN27_2IFCnew_2019_Jun_12_1557_789,stimulusWOAN27_2IFCnew_2019_Jun_12_1557_790,True,2019_Jun_12_1557,2IFCnew,2,WOAN27,
2IFCnew,20,0,20,0,0.400703700026,2,Yes,1.4,-1,Correct Rejection,0.566741700051,False,True,stimulusWOAN27_2IFCnew_2019_Jun_12_1557_791,stimulusWOAN27_2IFCnew_2019_Jun_12_1557_792,True,2019_Jun_12_1557,2IFCnew,2,WOAN27,
2IFCnew,21,0,21,0,0.133867600001,2,Yes,7.5,-1,Correct Rejection,0.569125500042,False,True,stimulusWOAN27_2IFCnew_2019_Jun_12_1557_793,stimulusWOAN27_2IFCnew_2019_Jun_12_1557_794,True,2019_Jun_12_1557,2IFCnew,2,WOAN27,
2IFCnew,22,0,22,0,0.265256399987,1,No,14.3,-1,Hit,0.568492599996,True,False,stimulusWOAN27_2IFCnew_2019_Jun_12_1557_795,stimulusWOAN27_2IFCnew_2019_Jun_12_1557_796,True,2019_Jun_12_1557,2IFCnew,2,WOAN27,
2IFCnew,23,0,23,0,0.500487599988,6,No,5.8,-1,Miss,0.600720599992,True,False,stimulusWOAN27_2IFCnew_2019_Jun_12_1557_797,stimulusWOAN27_2IFCnew_2019_Jun_12_1557_798,True,2019_Jun_12_1557,2IFCnew,2,WOAN27,
2IFCnew,24,0,24,0,0.26725689997,1,No,14.3,-1,Hit,0.533760800026,True,False,stimulusWOAN27_2IFCnew_2019_Jun_12_1557_799,stimulusWOAN27_2IFCnew_2019_Jun_12_1557_800,True,2019_Jun_12_1557,2IFCnew,2,WOAN27,
2IFCnew,25,0,25,0,0.533462799853,2,Yes,5.8,-1,Correct Rejection,0.633213599911,False,True,stimulusWOAN27_2IFCnew_2019_Jun_12_1557_801,stimulusWOAN27_2IFCnew_2019_Jun_12_1557_802,True,2019_Jun_12_1557,2IFCnew,2,WOAN27,
2IFCnew,26,0,26,0,0.300785599975,1,No,10.7,-1,Hit,0.635087099858,True,False,stimulusWOAN27_2IFCnew_2019_Jun_12_1557_803,stimulusWOAN27_2IFCnew_2019_Jun_12_1557_804,True,2019_Jun_12_1557,2IFCnew,2,WOAN27,
2IFCnew,27,0,27,0,0.466916699894,2,Yes,14.3,-1,Correct Rejection,0.501639900031,False,True,stimulusWOAN27_2IFCnew_2019_Jun_12_1557_805,stimulusWOAN27_2IFCnew_2019_Jun_12_1557_806,True,2019_Jun_12_1557,2IFCnew,2,WOAN27,
2IFCnew,28,0,28,0,0.466947299894,4,Yes,12.4,-1,Miss,0.867772100028,True,False,stimulusWOAN27_2IFCnew_2019_Jun_12_1557_807,stimulusWOAN27_2IFCnew_2019_Jun_12_1557_808,True,2019_Jun_12_1557,2IFCnew,2,WOAN27,
2IFCnew,29,0,29,0,0.233899299987,2,Yes,7.5,-1,Correct Rejection,0.601475700038,False,True,stimulusWOAN27_2IFCnew_2019_Jun_12_1557_809,stimulusWOAN27_2IFCnew_2019_Jun_12_1557_810,True,2019_Jun_12_1557,2IFCnew,2,WOAN27,
2IFCnew,30,0,30,0,0.200310100103,4,Yes,1.4,-1,Miss,0.567888400052,True,False,stimulusWOAN27_2IFCnew_2019_Jun_12_1557_811,stimulusWOAN27_2IFCnew_2019_Jun_12_1557_812,True,2019_Jun_12_1557,2IFCnew,2,WOAN27,
2IFCnew,31,0,31,0,-1,1,Yes,12.4,-1,Hit,0.400569799822,True,False,stimulusWOAN27_2IFCnew_2019_Jun_12_1557_813,stimulusWOAN27_2IFCnew_2019_Jun_12_1557_814,True,2019_Jun_12_1557,2IFCnew,2,WOAN27,
2IFCnew,32,0,32,0,0.167752799811,2,Yes,14.3,-1,Correct Rejection,0.53402910009,False,True,stimulusWOAN27_2IFCnew_2019_Jun_12_1557_815,stimulusWOAN27_2IFCnew_2019_Jun_12_1557_816,True,2019_Jun_12_1557,2IFCnew,2,WOAN27,
2IFCnew,33,0,33,0,0.133824399905,1,No,5.8,-1,Hit,0.433647099882,True,False,stimulusWOAN27_2IFCnew_2019_Jun_12_1557_817,stimulusWOAN27_2IFCnew_2019_Jun_12_1557_818,True,2019_Jun_12_1557,2IFCnew,2,WOAN27,
2IFCnew,34,0,34,0,0.333683900069,1,No,5.8,-1,Hit,0.567693999968,True,False,stimulusWOAN27_2IFCnew_2019_Jun_12_1557_819,stimulusWOAN27_2IFCnew_2019_Jun_12_1557_820,True,2019_Jun_12_1557,2IFCnew,2,WOAN27,
2IFCnew,35,0,35,0,0.232599399984,2,Yes,14.3,-1,Correct Rejection,0.60045509995,False,True,stimulusWOAN27_2IFCnew_2019_Jun_12_1557_821,stimulusWOAN27_2IFCnew_2019_Jun_12_1557_822,True,2019_Jun_12_1557,2IFCnew,2,WOAN27,
2IFCnew,36,0,36,0,0.199661699822,4,Yes,5.8,-1,Miss,0.636053999886,True,False,stimulusWOAN27_2IFCnew_2019_Jun_12_1557_823,stimulusWOAN27_2IFCnew_2019_Jun_12_1557_824,True,2019_Jun_12_1557,2IFCnew,2,WOAN27,
2IFCnew,37,0,37,0,-1,1,Yes,3.8,-1,Hit,0.567499000113,True,False,stimulusWOAN27_2IFCnew_2019_Jun_12_1557_825,stimulusWOAN27_2IFCnew_2019_Jun_12_1557_826,True,2019_Jun_12_1557,2IFCnew,2,WOAN27,
2IFCnew,38,0,38,0,0.535872099921,8,No,5.8,-1,Correct Rejection,0.633835799992,False,True,stimulusWOAN27_2IFCnew_2019_Jun_12_1557_827,stimulusWOAN27_2IFCnew_2019_Jun_12_1557_828,True,2019_Jun_12_1557,2IFCnew,2,WOAN27,
2IFCnew,39,0,39,0,0.499218199868,2,Yes,7.5,-1,Correct Rejection,0.498627500143,False,True,stimulusWOAN27_2IFCnew_2019_Jun_12_1557_829,stimulusWOAN27_2IFCnew_2019_Jun_12_1557_830,True,2019_Jun_12_1557,2IFCnew,2,WOAN27,
2IFCnew,40,0,40,0,0.434128100052,8,No,3.8,-1,Correct Rejection,0.667293099919,False,True,stimulusWOAN27_2IFCnew_2019_Jun_12_1557_831,stimulusWOAN27_2IFCnew_2019_Jun_12_1557_832,True,2019_Jun_12_1557,2IFCnew,2,WOAN27,
2IFCnew,41,0,41,0,0.400089799892,2,Yes,7.5,-1,Correct Rejection,0.46671479987,False,True,stimulusWOAN27_2IFCnew_2019_Jun_12_1557_833,stimulusWOAN27_2IFCnew_2019_Jun_12_1557_834,True,2019_Jun_12_1557,2IFCnew,2,WOAN27,
2IFCnew,42,0,42,0,0.299711599946,1,No,10.7,-1,Hit,0.534889700124,True,False,stimulusWOAN27_2IFCnew_2019_Jun_12_1557_835,stimulusWOAN27_2IFCnew_2019_Jun_12_1557_836,True,2019_Jun_12_1557,2IFCnew,2,WOAN27,
2IFCnew,43,0,43,0,0.233497099951,4,Yes,3.8,-1,Miss,0.733888000017,True,False,stimulusWOAN27_2IFCnew_2019_Jun_12_1557_837,stimulusWOAN27_2IFCnew_2019_Jun_12_1557_838,True,2019_Jun_12_1557,2IFCnew,2,WOAN27,
2IFCnew,44,0,44,0,0.333577899961,8,No,12.4,-1,Correct Rejection,0.5004718001,False,True,stimulusWOAN27_2IFCnew_2019_Jun_12_1557_839,stimulusWOAN27_2IFCnew_2019_Jun_12_1557_840,True,2019_Jun_12_1557,2IFCnew,2,WOAN27,
2IFCnew,45,0,45,0,0.33386400016,8,No,12.4,-1,Correct Rejection,0.600876900135,False,True,stimulusWOAN27_2IFCnew_2019_Jun_12_1557_841,stimulusWOAN27_2IFCnew_2019_Jun_12_1557_842,True,2019_Jun_12_1557,2IFCnew,2,WOAN27,
2IFCnew,46,0,46,0,0.266231100075,1,No,12.4,-1,Hit,0.632998300018,True,False,stimulusWOAN27_2IFCnew_2019_Jun_12_1557_843,stimulusWOAN27_2IFCnew_2019_Jun_12_1557_844,True,2019_Jun_12_1557,2IFCnew,2,WOAN27,
2IFCnew,47,0,47,0,0.401400699979,1,No,5.8,-1,Hit,0.768852200126,True,False,stimulusWOAN27_2IFCnew_2019_Jun_12_1557_845,stimulusWOAN27_2IFCnew_2019_Jun_12_1557_846,True,2019_Jun_12_1557,2IFCnew,2,WOAN27,
2IFCnew,48,0,48,0,0.23353810003,1,No,14.3,-1,Hit,0.700713900151,True,False,stimulusWOAN27_2IFCnew_2019_Jun_12_1557_847,stimulusWOAN27_2IFCnew_2019_Jun_12_1557_848,True,2019_Jun_12_1557,2IFCnew,2,WOAN27,
2IFCnew,49,0,49,0,0.466624999885,6,No,7.5,-1,Miss,0.801674499875,True,False,stimulusWOAN27_2IFCnew_2019_Jun_12_1557_849,stimulusWOAN27_2IFCnew_2019_Jun_12_1557_850,True,2019_Jun_12_1557,2IFCnew,2,WOAN27,
2IFCnew,50,0,50,0,0.667126999935,6,No,3.8,-1,Miss,0.801159199793,True,False,stimulusWOAN27_2IFCnew_2019_Jun_12_1557_851,stimulusWOAN27_2IFCnew_2019_Jun_12_1557_852,True,2019_Jun_12_1557,2IFCnew,2,WOAN27,
2IFCnew,51,0,51,0,0.333711700048,8,No,1.4,-1,Correct Rejection,0.531091300072,False,True,stimulusWOAN27_2IFCnew_2019_Jun_12_1557_853,stimulusWOAN27_2IFCnew_2019_Jun_12_1557_854,True,2019_Jun_12_1557,2IFCnew,2,WOAN27,
2IFCnew,52,0,52,0,0.300398100168,1,No,9.1,-1,Hit,0.534316699952,True,False,stimulusWOAN27_2IFCnew_2019_Jun_12_1557_855,stimulusWOAN27_2IFCnew_2019_Jun_12_1557_856,True,2019_Jun_12_1557,2IFCnew,2,WOAN27,
2IFCnew,53,0,53,0,0.668452000013,2,Yes,1.4,-1,Correct Rejection,0.766675100196,False,True,stimulusWOAN27_2IFCnew_2019_Jun_12_1557_857,stimulusWOAN27_2IFCnew_2019_Jun_12_1557_858,True,2019_Jun_12_1557,2IFCnew,2,WOAN27,
2IFCnew,54,0,54,0,0.533769299975,2,Yes,10.7,-1,Correct Rejection,0.699949200032,False,True,stimulusWOAN27_2IFCnew_2019_Jun_12_1557_859,stimulusWOAN27_2IFCnew_2019_Jun_12_1557_860,True,2019_Jun_12_1557,2IFCnew,2,WOAN27,
2IFCnew,55,0,55,0,0.3673862,2,Yes,5.8,-1,Correct Rejection,0.501063700067,False,True,stimulusWOAN27_2IFCnew_2019_Jun_12_1557_861,stimulusWOAN27_2IFCnew_2019_Jun_12_1557_862,True,2019_Jun_12_1557,2IFCnew,2,WOAN27,
2IFCnew,56,0,56,0,0.100244999863,3,No,3.8,-1,False Alarm,0.500154800015,False,True,stimulusWOAN27_2IFCnew_2019_Jun_12_1557_863,stimulusWOAN27_2IFCnew_2019_Jun_12_1557_864,True,2019_Jun_12_1557,2IFCnew,2,WOAN27,
2IFCnew,57,0,57,0,0.302480400074,2,Yes,5.8,-1,Correct Rejection,0.533715500031,False,True,stimulusWOAN27_2IFCnew_2019_Jun_12_1557_865,stimulusWOAN27_2IFCnew_2019_Jun_12_1557_866,True,2019_Jun_12_1557,2IFCnew,2,WOAN27,
2IFCnew,58,0,58,0,0.133769700071,2,Yes,5.8,-1,Correct Rejection,0.467065999983,False,True,stimulusWOAN27_2IFCnew_2019_Jun_12_1557_867,stimulusWOAN27_2IFCnew_2019_Jun_12_1557_868,True,2019_Jun_12_1557,2IFCnew,2,WOAN27,
2IFCnew,59,0,59,0,0.165854200022,2,Yes,7.5,-1,Correct Rejection,0.600591700058,False,True,stimulusWOAN27_2IFCnew_2019_Jun_12_1557_869,stimulusWOAN27_2IFCnew_2019_Jun_12_1557_870,True,2019_Jun_12_1557,2IFCnew,2,WOAN27,
2IFCnew,60,0,60,0,0.1684940001,2,Yes,5.8,-1,Correct Rejection,0.533391600009,False,True,stimulusWOAN27_2IFCnew_2019_Jun_12_1557_871,stimulusWOAN27_2IFCnew_2019_Jun_12_1557_872,True,2019_Jun_12_1557,2IFCnew,2,WOAN27,
2IFCnew,61,0,61,0,-1,3,Yes,1.4,-1,Correct Rejection,0.499449300114,False,True,stimulusWOAN27_2IFCnew_2019_Jun_12_1557_873,stimulusWOAN27_2IFCnew_2019_Jun_12_1557_874,True,2019_Jun_12_1557,2IFCnew,2,WOAN27,
2IFCnew,62,0,62,0,0.233470199862,1,No,1.4,-1,Hit,0.601138999918,True,False,stimulusWOAN27_2IFCnew_2019_Jun_12_1557_875,stimulusWOAN27_2IFCnew_2019_Jun_12_1557_876,True,2019_Jun_12_1557,2IFCnew,2,WOAN27,
2IFCnew,63,0,63,0,0.133766300045,3,No,1.4,-1,False Alarm,0.500693100039,False,True,stimulusWOAN27_2IFCnew_2019_Jun_12_1557_877,stimulusWOAN27_2IFCnew_2019_Jun_12_1557_878,True,2019_Jun_12_1557,2IFCnew,2,WOAN27,
2IFCnew,64,0,64,0,-1,4,No,7.5,-1,Miss,0.366871299921,True,False,stimulusWOAN27_2IFCnew_2019_Jun_12_1557_879,stimulusWOAN27_2IFCnew_2019_Jun_12_1557_880,True,2019_Jun_12_1557,2IFCnew,2,WOAN27,
2IFCnew,65,0,65,0,0.2004801,4,Yes,1.4,-1,Miss,0.400573699968,True,False,stimulusWOAN27_2IFCnew_2019_Jun_12_1557_881,stimulusWOAN27_2IFCnew_2019_Jun_12_1557_882,True,2019_Jun_12_1557,2IFCnew,2,WOAN27,
2IFCnew,66,0,66,0,0.300438300008,6,No,7.5,-1,Miss,0.433946199948,True,False,stimulusWOAN27_2IFCnew_2019_Jun_12_1557_883,stimulusWOAN27_2IFCnew_2019_Jun_12_1557_884,True,2019_Jun_12_1557,2IFCnew,2,WOAN27,
2IFCnew,67,0,67,0,0.33385950001,5,Yes,7.5,-1,False Alarm,0.367464399897,False,True,stimulusWOAN27_2IFCnew_2019_Jun_12_1557_885,stimulusWOAN27_2IFCnew_2019_Jun_12_1557_886,True,2019_Jun_12_1557,2IFCnew,2,WOAN27,
2IFCnew,68,0,68,0,0.467157100094,6,No,1.4,-1,Miss,0.634471900063,True,False,stimulusWOAN27_2IFCnew_2019_Jun_12_1557_887,stimulusWOAN27_2IFCnew_2019_Jun_12_1557_888,True,2019_Jun_12_1557,2IFCnew,2,WOAN27,
2IFCnew,69,0,69,0,0.466927499976,1,No,10.7,-1,Hit,0.5343098999,True,False,stimulusWOAN27_2IFCnew_2019_Jun_12_1557_889,stimulusWOAN27_2IFCnew_2019_Jun_12_1557_890,True,2019_Jun_12_1557,2IFCnew,2,WOAN27,
2IFCnew,70,0,70,0,0.133596600033,3,No,7.5,-1,False Alarm,0.533194500022,False,True,stimulusWOAN27_2IFCnew_2019_Jun_12_1557_891,stimulusWOAN27_2IFCnew_2019_Jun_12_1557_892,True,2019_Jun_12_1557,2IFCnew,2,WOAN27,
2IFCnew,71,0,71,0,0.600770500023,6,No,1.4,-1,Miss,0.567796600051,True,False,stimulusWOAN27_2IFCnew_2019_Jun_12_1557_893,stimulusWOAN27_2IFCnew_2019_Jun_12_1557_894,True,2019_Jun_12_1557,2IFCnew,2,WOAN27,
2IFCnew,72,0,72,0,0.566253300058,1,No,7.5,-1,Hit,0.533978799824,True,False,stimulusWOAN27_2IFCnew_2019_Jun_12_1557_895,stimulusWOAN27_2IFCnew_2019_Jun_12_1557_896,True,2019_Jun_12_1557,2IFCnew,2,WOAN27,
2IFCnew,73,0,73,0,0.199937700061,4,Yes,1.4,-1,Miss,0.667677599937,True,False,stimulusWOAN27_2IFCnew_2019_Jun_12_1557_897,stimulusWOAN27_2IFCnew_2019_Jun_12_1557_898,True,2019_Jun_12_1557,2IFCnew,2,WOAN27,
2IFCnew,74,0,74,0,-1,2,Yes,1.4,-1,False Alarm,0.433094100095,False,True,stimulusWOAN27_2IFCnew_2019_Jun_12_1557_899,stimulusWOAN27_2IFCnew_2019_Jun_12_1557_900,True,2019_Jun_12_1557,2IFCnew,2,WOAN27,
2IFCnew,0,0,0,0,-1,0,Yes,1.4,-1,No Answer,-1,False,True,stimulusWOAN27_2IFCnew_2019_Jun_12_1557_901,stimulusWOAN27_2IFCnew_2019_Jun_12_1557_902,True,2019_Jun_12_1557,2IFCnew,2,WOAN27,
2IFCnew,1,0,1,0,0.0999477000441,4,Yes,12.4,-1,Miss,0.165500700008,True,False,stimulusWOAN27_2IFCnew_2019_Jun_12_1557_903,stimulusWOAN27_2IFCnew_2019_Jun_12_1557_904,True,2019_Jun_12_1557,2IFCnew,2,WOAN27,
2IFCnew,2,0,2,0,0.396727900021,2,Yes,3.8,-1,Correct Rejection,0.569633699954,False,True,stimulusWOAN27_2IFCnew_2019_Jun_12_1557_905,stimulusWOAN27_2IFCnew_2019_Jun_12_1557_906,True,2019_Jun_12_1557,2IFCnew,2,WOAN27,
2IFCnew,3,0,3,0,0.133565899916,1,No,9.1,-1,Hit,0.533344199881,True,False,stimulusWOAN27_2IFCnew_2019_Jun_12_1557_907,stimulusWOAN27_2IFCnew_2019_Jun_12_1557_908,True,2019_Jun_12_1557,2IFCnew,2,WOAN27,
2IFCnew,4,0,4,0,-1,3,No,7.5,-1,Correct Rejection,0.434931800002,False,True,stimulusWOAN27_2IFCnew_2019_Jun_12_1557_909,stimulusWOAN27_2IFCnew_2019_Jun_12_1557_910,True,2019_Jun_12_1557,2IFCnew,2,WOAN27,
2IFCnew,5,0,5,0,0.133475300157,2,Yes,5.8,-1,Correct Rejection,0.533812799957,False,True,stimulusWOAN27_2IFCnew_2019_Jun_12_1557_911,stimulusWOAN27_2IFCnew_2019_Jun_12_1557_912,True,2019_Jun_12_1557,2IFCnew,2,WOAN27,
2IFCnew,6,0,6,0,0.233879499836,2,Yes,9.1,-1,Correct Rejection,0.600224799942,False,True,stimulusWOAN27_2IFCnew_2019_Jun_12_1557_913,stimulusWOAN27_2IFCnew_2019_Jun_12_1557_914,True,2019_Jun_12_1557,2IFCnew,2,WOAN27,
2IFCnew,7,0,7,0,0.168303100159,1,No,9.1,-1,Hit,0.534113199916,True,False,stimulusWOAN27_2IFCnew_2019_Jun_12_1557_915,stimulusWOAN27_2IFCnew_2019_Jun_12_1557_916,True,2019_Jun_12_1557,2IFCnew,2,WOAN27,
2IFCnew,8,0,8,0,0.400515699992,1,No,9.1,-1,Hit,0.667306199903,True,False,stimulusWOAN27_2IFCnew_2019_Jun_12_1557_917,stimulusWOAN27_2IFCnew_2019_Jun_12_1557_918,True,2019_Jun_12_1557,2IFCnew,2,WOAN27,
2IFCnew,9,0,9,0,0.199555199826,1,No,9.1,-1,Hit,0.702660200186,True,False,stimulusWOAN27_2IFCnew_2019_Jun_12_1557_919,stimulusWOAN27_2IFCnew_2019_Jun_12_1557_920,True,2019_Jun_12_1557,2IFCnew,2,WOAN27,
2IFCnew,10,0,10,0,0.0342720998451,2,Yes,12.4,-1,Correct Rejection,0.467558700126,False,True,stimulusWOAN27_2IFCnew_2019_Jun_12_1557_921,stimulusWOAN27_2IFCnew_2019_Jun_12_1557_922,True,2019_Jun_12_1557,2IFCnew,2,WOAN27,
2IFCnew,11,0,11,0,0.166693900013,1,No,14.3,-1,Hit,0.467445600079,True,False,stimulusWOAN27_2IFCnew_2019_Jun_12_1557_923,stimulusWOAN27_2IFCnew_2019_Jun_12_1557_924,True,2019_Jun_12_1557,2IFCnew,2,WOAN27,
2IFCnew,12,0,12,0,0.200487500057,1,No,5.8,-1,Hit,0.534591999836,True,False,stimulusWOAN27_2IFCnew_2019_Jun_12_1557_925,stimulusWOAN27_2IFCnew_2019_Jun_12_1557_926,True,2019_Jun_12_1557,2IFCnew,2,WOAN27,
2IFCnew,13,0,13,0,-1,3,No,3.8,-1,Correct Rejection,0.500382500002,False,True,stimulusWOAN27_2IFCnew_2019_Jun_12_1557_927,stimulusWOAN27_2IFCnew_2019_Jun_12_1557_928,True,2019_Jun_12_1557,2IFCnew,2,WOAN27,
2IFCnew,14,0,14,0,0.267856199993,1,No,5.8,-1,Hit,0.600776599953,True,False,stimulusWOAN27_2IFCnew_2019_Jun_12_1557_929,stimulusWOAN27_2IFCnew_2019_Jun_12_1557_930,True,2019_Jun_12_1557,2IFCnew,2,WOAN27,
2IFCnew,15,0,15,0,0.200186300091,2,Yes,9.1,-1,Correct Rejection,0.533050100086,False,True,stimulusWOAN27_2IFCnew_2019_Jun_12_1557_931,stimulusWOAN27_2IFCnew_2019_Jun_12_1557_932,True,2019_Jun_12_1557,2IFCnew,2,WOAN27,
2IFCnew,16,0,16,0,0.165558199864,1,No,12.4,-1,Hit,0.535640999908,True,False,stimulusWOAN27_2IFCnew_2019_Jun_12_1557_933,stimulusWOAN27_2IFCnew_2019_Jun_12_1557_934,True,2019_Jun_12_1557,2IFCnew,2,WOAN27,
2IFCnew,17,0,17,0,0.26523190015,1,No,14.3,-1,Hit,0.700272400165,True,False,stimulusWOAN27_2IFCnew_2019_Jun_12_1557_935,stimulusWOAN27_2IFCnew_2019_Jun_12_1557_936,True,2019_Jun_12_1557,2IFCnew,2,WOAN27,
2IFCnew,18,0,18,0,0.166821399936,2,Yes,3.8,-1,Correct Rejection,0.700561200036,False,True,stimulusWOAN27_2IFCnew_2019_Jun_12_1557_937,stimulusWOAN27_2IFCnew_2019_Jun_12_1557_938,True,2019_Jun_12_1557,2IFCnew,2,WOAN27,
2IFCnew,19,0,19,0,0.265733599896,3,No,3.8,-1,False Alarm,0.667596099898,False,True,stimulusWOAN27_2IFCnew_2019_Jun_12_1557_939,stimulusWOAN27_2IFCnew_2019_Jun_12_1557_940,True,2019_Jun_12_1557,2IFCnew,2,WOAN27,
2IFCnew,20,0,20,0,0.167732199887,3,No,5.8,-1,False Alarm,0.533199300058,False,True,stimulusWOAN27_2IFCnew_2019_Jun_12_1557_941,stimulusWOAN27_2IFCnew_2019_Jun_12_1557_942,True,2019_Jun_12_1557,2IFCnew,2,WOAN27,
2IFCnew,21,0,21,0,0.200122899842,1,No,7.5,-1,Hit,0.667483000085,True,False,stimulusWOAN27_2IFCnew_2019_Jun_12_1557_943,stimulusWOAN27_2IFCnew_2019_Jun_12_1557_944,True,2019_Jun_12_1557,2IFCnew,2,WOAN27,
2IFCnew,22,0,22,0,0.333831700031,1,No,3.8,-1,Hit,0.734600900207,True,False,stimulusWOAN27_2IFCnew_2019_Jun_12_1557_945,stimulusWOAN27_2IFCnew_2019_Jun_12_1557_946,True,2019_Jun_12_1557,2IFCnew,2,WOAN27,
2IFCnew,23,0,23,0,0.33234199998,1,No,7.5,-1,Hit,0.767624700209,True,False,stimulusWOAN27_2IFCnew_2019_Jun_12_1557_947,stimulusWOAN27_2IFCnew_2019_Jun_12_1557_948,True,2019_Jun_12_1557,2IFCnew,2,WOAN27,
2IFCnew,24,0,24,0,0.267037000041,2,Yes,14.3,-1,Correct Rejection,0.700087300036,False,True,stimulusWOAN27_2IFCnew_2019_Jun_12_1557_949,stimulusWOAN27_2IFCnew_2019_Jun_12_1557_950,True,2019_Jun_12_1557,2IFCnew,2,WOAN27,
2IFCnew,25,0,25,0,0.0669537000358,2,Yes,7.5,-1,Correct Rejection,0.500565200113,False,True,stimulusWOAN27_2IFCnew_2019_Jun_12_1557_951,stimulusWOAN27_2IFCnew_2019_Jun_12_1557_952,True,2019_Jun_12_1557,2IFCnew,2,WOAN27,
2IFCnew,26,0,26,0,-1,3,Yes,14.3,-1,Correct Rejection,0.633727800101,False,True,stimulusWOAN27_2IFCnew_2019_Jun_12_1557_953,stimulusWOAN27_2IFCnew_2019_Jun_12_1557_954,True,2019_Jun_12_1557,2IFCnew,2,WOAN27,
2IFCnew,27,0,27,0,0.500286200084,3,No,1.4,-1,False Alarm,0.567782599945,False,True,stimulusWOAN27_2IFCnew_2019_Jun_12_1557_955,stimulusWOAN27_2IFCnew_2019_Jun_12_1557_956,True,2019_Jun_12_1557,2IFCnew,2,WOAN27,
