Task,trials.thisRepN,trials.thisTrialN,trials.thisN,trials.thisIndex,signal_intensity,constant Value,response,time_response,signal_on_stimuluspos1,signal_on_stimuluspos2,stimulus_name_pos1,stimulus_name_pos2,random_intensity,date,expName,session,participant,
2IFC,0,0,0,0,10.7,-1,correct answer,0.831731700106,False,True,stimulusWOAN27_2IFC_2019_Jun_12_1505_1,stimulusWOAN27_2IFC_2019_Jun_12_1505_2,True,2019_Jun_12_1505,2IFC,2,WOAN27,
2IFC,1,0,1,0,14.3,-1,correct answer,0.467421800131,True,False,stimulusWOAN27_2IFC_2019_Jun_12_1505_3,stimulusWOAN27_2IFC_2019_Jun_12_1505_4,True,2019_Jun_12_1505,2IFC,2,WOAN27,
2IFC,2,0,2,0,1.4,-1,wrong answer,0.667102599982,False,True,stimulusWOAN27_2IFC_2019_Jun_12_1505_5,stimulusWOAN27_2IFC_2019_Jun_12_1505_6,True,2019_Jun_12_1505,2IFC,2,WOAN27,
2IFC,3,0,3,0,14.3,-1,correct answer,0.533647800097,False,True,stimulusWOAN27_2IFC_2019_Jun_12_1505_7,stimulusWOAN27_2IFC_2019_Jun_12_1505_8,True,2019_Jun_12_1505,2IFC,2,WOAN27,
2IFC,4,0,4,0,5.8,-1,correct answer,0.502086600056,False,True,stimulusWOAN27_2IFC_2019_Jun_12_1505_9,stimulusWOAN27_2IFC_2019_Jun_12_1505_10,True,2019_Jun_12_1505,2IFC,2,WOAN27,
2IFC,5,0,5,0,1.4,-1,correct answer,0.500514799962,False,True,stimulusWOAN27_2IFC_2019_Jun_12_1505_11,stimulusWOAN27_2IFC_2019_Jun_12_1505_12,True,2019_Jun_12_1505,2IFC,2,WOAN27,
2IFC,6,0,6,0,9.1,-1,correct answer,0.435420900118,False,True,stimulusWOAN27_2IFC_2019_Jun_12_1505_13,stimulusWOAN27_2IFC_2019_Jun_12_1505_14,True,2019_Jun_12_1505,2IFC,2,WOAN27,
2IFC,7,0,7,0,7.5,-1,correct answer,0.500394399976,False,True,stimulusWOAN27_2IFC_2019_Jun_12_1505_15,stimulusWOAN27_2IFC_2019_Jun_12_1505_16,True,2019_Jun_12_1505,2IFC,2,WOAN27,
2IFC,8,0,8,0,12.4,-1,correct answer,0.500719199888,False,True,stimulusWOAN27_2IFC_2019_Jun_12_1505_17,stimulusWOAN27_2IFC_2019_Jun_12_1505_18,True,2019_Jun_12_1505,2IFC,2,WOAN27,
2IFC,9,0,9,0,14.3,-1,correct answer,0.50070149987,True,False,stimulusWOAN27_2IFC_2019_Jun_12_1505_19,stimulusWOAN27_2IFC_2019_Jun_12_1505_20,True,2019_Jun_12_1505,2IFC,2,WOAN27,
2IFC,10,0,10,0,12.4,-1,correct answer,0.501380899921,True,False,stimulusWOAN27_2IFC_2019_Jun_12_1505_21,stimulusWOAN27_2IFC_2019_Jun_12_1505_22,True,2019_Jun_12_1505,2IFC,2,WOAN27,
2IFC,11,0,11,0,5.8,-1,correct answer,0.500862200046,True,False,stimulusWOAN27_2IFC_2019_Jun_12_1505_23,stimulusWOAN27_2IFC_2019_Jun_12_1505_24,True,2019_Jun_12_1505,2IFC,2,WOAN27,
2IFC,12,0,12,0,3.8,-1,correct answer,0.634023300139,True,False,stimulusWOAN27_2IFC_2019_Jun_12_1505_25,stimulusWOAN27_2IFC_2019_Jun_12_1505_26,True,2019_Jun_12_1505,2IFC,2,WOAN27,
2IFC,13,0,13,0,3.8,-1,correct answer,0.6675177,True,False,stimulusWOAN27_2IFC_2019_Jun_12_1505_27,stimulusWOAN27_2IFC_2019_Jun_12_1505_28,True,2019_Jun_12_1505,2IFC,2,WOAN27,
2IFC,14,0,14,0,7.5,-1,correct answer,0.533709399868,True,False,stimulusWOAN27_2IFC_2019_Jun_12_1505_29,stimulusWOAN27_2IFC_2019_Jun_12_1505_30,True,2019_Jun_12_1505,2IFC,2,WOAN27,
2IFC,15,0,15,0,14.3,-1,correct answer,0.432375800097,False,True,stimulusWOAN27_2IFC_2019_Jun_12_1505_31,stimulusWOAN27_2IFC_2019_Jun_12_1505_32,True,2019_Jun_12_1505,2IFC,2,WOAN27,
2IFC,16,0,16,0,12.4,-1,correct answer,0.53410020005,True,False,stimulusWOAN27_2IFC_2019_Jun_12_1505_33,stimulusWOAN27_2IFC_2019_Jun_12_1505_34,True,2019_Jun_12_1505,2IFC,2,WOAN27,
2IFC,17,0,17,0,1.4,-1,correct answer,0.700871800072,True,False,stimulusWOAN27_2IFC_2019_Jun_12_1505_35,stimulusWOAN27_2IFC_2019_Jun_12_1505_36,True,2019_Jun_12_1505,2IFC,2,WOAN27,
2IFC,18,0,18,0,5.8,-1,correct answer,0.433856100077,False,True,stimulusWOAN27_2IFC_2019_Jun_12_1505_37,stimulusWOAN27_2IFC_2019_Jun_12_1505_38,True,2019_Jun_12_1505,2IFC,2,WOAN27,
2IFC,19,0,19,0,12.4,-1,correct answer,0.500299999956,True,False,stimulusWOAN27_2IFC_2019_Jun_12_1505_39,stimulusWOAN27_2IFC_2019_Jun_12_1505_40,True,2019_Jun_12_1505,2IFC,2,WOAN27,
2IFC,20,0,20,0,9.1,-1,correct answer,0.467667900026,False,True,stimulusWOAN27_2IFC_2019_Jun_12_1505_41,stimulusWOAN27_2IFC_2019_Jun_12_1505_42,True,2019_Jun_12_1505,2IFC,2,WOAN27,
2IFC,21,0,21,0,9.1,-1,correct answer,0.601015900029,False,True,stimulusWOAN27_2IFC_2019_Jun_12_1505_43,stimulusWOAN27_2IFC_2019_Jun_12_1505_44,True,2019_Jun_12_1505,2IFC,2,WOAN27,
2IFC,22,0,22,0,5.8,-1,correct answer,0.501258400036,False,True,stimulusWOAN27_2IFC_2019_Jun_12_1505_45,stimulusWOAN27_2IFC_2019_Jun_12_1505_46,True,2019_Jun_12_1505,2IFC,2,WOAN27,
2IFC,23,0,23,0,14.3,-1,correct answer,0.500858900137,True,False,stimulusWOAN27_2IFC_2019_Jun_12_1505_47,stimulusWOAN27_2IFC_2019_Jun_12_1505_48,True,2019_Jun_12_1505,2IFC,2,WOAN27,
2IFC,24,0,24,0,7.5,-1,correct answer,0.499560300028,True,False,stimulusWOAN27_2IFC_2019_Jun_12_1505_49,stimulusWOAN27_2IFC_2019_Jun_12_1505_50,True,2019_Jun_12_1505,2IFC,2,WOAN27,
2IFC,25,0,25,0,9.1,-1,correct answer,0.467228200054,True,False,stimulusWOAN27_2IFC_2019_Jun_12_1505_51,stimulusWOAN27_2IFC_2019_Jun_12_1505_52,True,2019_Jun_12_1505,2IFC,2,WOAN27,
2IFC,26,0,26,0,14.3,-1,correct answer,0.566737099783,True,False,stimulusWOAN27_2IFC_2019_Jun_12_1505_53,stimulusWOAN27_2IFC_2019_Jun_12_1505_54,True,2019_Jun_12_1505,2IFC,2,WOAN27,
2IFC,27,0,27,0,3.8,-1,correct answer,0.499427300179,False,True,stimulusWOAN27_2IFC_2019_Jun_12_1505_55,stimulusWOAN27_2IFC_2019_Jun_12_1505_56,True,2019_Jun_12_1505,2IFC,2,WOAN27,
2IFC,28,0,28,0,9.1,-1,correct answer,0.60050099995,False,True,stimulusWOAN27_2IFC_2019_Jun_12_1505_57,stimulusWOAN27_2IFC_2019_Jun_12_1505_58,True,2019_Jun_12_1505,2IFC,2,WOAN27,
2IFC,29,0,29,0,3.8,-1,wrong answer,0.734259000048,True,False,stimulusWOAN27_2IFC_2019_Jun_12_1505_59,stimulusWOAN27_2IFC_2019_Jun_12_1505_60,True,2019_Jun_12_1505,2IFC,2,WOAN27,
2IFC,30,0,30,0,7.5,-1,correct answer,0.535356599838,False,True,stimulusWOAN27_2IFC_2019_Jun_12_1505_61,stimulusWOAN27_2IFC_2019_Jun_12_1505_62,True,2019_Jun_12_1505,2IFC,2,WOAN27,
2IFC,31,0,31,0,10.7,-1,wrong answer,0.467359799892,False,True,stimulusWOAN27_2IFC_2019_Jun_12_1505_63,stimulusWOAN27_2IFC_2019_Jun_12_1505_64,True,2019_Jun_12_1505,2IFC,2,WOAN27,
2IFC,32,0,32,0,5.8,-1,wrong answer,0.534132900182,True,False,stimulusWOAN27_2IFC_2019_Jun_12_1505_65,stimulusWOAN27_2IFC_2019_Jun_12_1505_66,True,2019_Jun_12_1505,2IFC,2,WOAN27,
2IFC,33,0,33,0,3.8,-1,correct answer,0.501016099937,False,True,stimulusWOAN27_2IFC_2019_Jun_12_1505_67,stimulusWOAN27_2IFC_2019_Jun_12_1505_68,True,2019_Jun_12_1505,2IFC,2,WOAN27,
2IFC,34,0,34,0,10.7,-1,correct answer,0.46752039995,False,True,stimulusWOAN27_2IFC_2019_Jun_12_1505_69,stimulusWOAN27_2IFC_2019_Jun_12_1505_70,True,2019_Jun_12_1505,2IFC,2,WOAN27,
2IFC,35,0,35,0,10.7,-1,correct answer,0.400779000018,True,False,stimulusWOAN27_2IFC_2019_Jun_12_1505_71,stimulusWOAN27_2IFC_2019_Jun_12_1505_72,True,2019_Jun_12_1505,2IFC,2,WOAN27,
2IFC,36,0,36,0,12.4,-1,correct answer,0.433516100049,False,True,stimulusWOAN27_2IFC_2019_Jun_12_1505_73,stimulusWOAN27_2IFC_2019_Jun_12_1505_74,True,2019_Jun_12_1505,2IFC,2,WOAN27,
2IFC,37,0,37,0,5.8,-1,correct answer,0.800974700134,True,False,stimulusWOAN27_2IFC_2019_Jun_12_1505_75,stimulusWOAN27_2IFC_2019_Jun_12_1505_76,True,2019_Jun_12_1505,2IFC,2,WOAN27,
2IFC,38,0,38,0,5.8,-1,correct answer,0.669055500068,True,False,stimulusWOAN27_2IFC_2019_Jun_12_1505_77,stimulusWOAN27_2IFC_2019_Jun_12_1505_78,True,2019_Jun_12_1505,2IFC,2,WOAN27,
2IFC,39,0,39,0,1.4,-1,correct answer,0.434976999881,False,True,stimulusWOAN27_2IFC_2019_Jun_12_1505_79,stimulusWOAN27_2IFC_2019_Jun_12_1505_80,True,2019_Jun_12_1505,2IFC,2,WOAN27,
2IFC,40,0,40,0,14.3,-1,correct answer,0.467449699994,True,False,stimulusWOAN27_2IFC_2019_Jun_12_1505_81,stimulusWOAN27_2IFC_2019_Jun_12_1505_82,True,2019_Jun_12_1505,2IFC,2,WOAN27,
2IFC,41,0,41,0,12.4,-1,correct answer,0.400127700064,False,True,stimulusWOAN27_2IFC_2019_Jun_12_1505_83,stimulusWOAN27_2IFC_2019_Jun_12_1505_84,True,2019_Jun_12_1505,2IFC,2,WOAN27,
2IFC,42,0,42,0,7.5,-1,correct answer,0.566922799917,False,True,stimulusWOAN27_2IFC_2019_Jun_12_1505_85,stimulusWOAN27_2IFC_2019_Jun_12_1505_86,True,2019_Jun_12_1505,2IFC,2,WOAN27,
2IFC,43,0,43,0,14.3,-1,correct answer,0.467428700067,True,False,stimulusWOAN27_2IFC_2019_Jun_12_1505_87,stimulusWOAN27_2IFC_2019_Jun_12_1505_88,True,2019_Jun_12_1505,2IFC,2,WOAN27,
2IFC,44,0,44,0,1.4,-1,wrong answer,0.534100999823,True,False,stimulusWOAN27_2IFC_2019_Jun_12_1505_89,stimulusWOAN27_2IFC_2019_Jun_12_1505_90,True,2019_Jun_12_1505,2IFC,2,WOAN27,
2IFC,45,0,45,0,12.4,-1,correct answer,0.40132840001,False,True,stimulusWOAN27_2IFC_2019_Jun_12_1505_91,stimulusWOAN27_2IFC_2019_Jun_12_1505_92,True,2019_Jun_12_1505,2IFC,2,WOAN27,
2IFC,46,0,46,0,7.5,-1,correct answer,0.46616750001,True,False,stimulusWOAN27_2IFC_2019_Jun_12_1505_93,stimulusWOAN27_2IFC_2019_Jun_12_1505_94,True,2019_Jun_12_1505,2IFC,2,WOAN27,
2IFC,47,0,47,0,14.3,-1,correct answer,0.534037600039,True,False,stimulusWOAN27_2IFC_2019_Jun_12_1505_95,stimulusWOAN27_2IFC_2019_Jun_12_1505_96,True,2019_Jun_12_1505,2IFC,2,WOAN27,
2IFC,48,0,48,0,9.1,-1,correct answer,0.5012842,True,False,stimulusWOAN27_2IFC_2019_Jun_12_1505_97,stimulusWOAN27_2IFC_2019_Jun_12_1505_98,True,2019_Jun_12_1505,2IFC,2,WOAN27,
2IFC,49,0,49,0,5.8,-1,wrong answer,0.700328800129,True,False,stimulusWOAN27_2IFC_2019_Jun_12_1505_99,stimulusWOAN27_2IFC_2019_Jun_12_1505_100,True,2019_Jun_12_1505,2IFC,2,WOAN27,
2IFC,50,0,50,0,3.8,-1,correct answer,0.634067300009,True,False,stimulusWOAN27_2IFC_2019_Jun_12_1505_101,stimulusWOAN27_2IFC_2019_Jun_12_1505_102,True,2019_Jun_12_1505,2IFC,2,WOAN27,
2IFC,51,0,51,0,14.3,-1,correct answer,0.467162500136,True,False,stimulusWOAN27_2IFC_2019_Jun_12_1505_103,stimulusWOAN27_2IFC_2019_Jun_12_1505_104,True,2019_Jun_12_1505,2IFC,2,WOAN27,
2IFC,52,0,52,0,14.3,-1,correct answer,0.500776600093,True,False,stimulusWOAN27_2IFC_2019_Jun_12_1505_105,stimulusWOAN27_2IFC_2019_Jun_12_1505_106,True,2019_Jun_12_1505,2IFC,2,WOAN27,
2IFC,53,0,53,0,12.4,-1,correct answer,0.467111699982,False,True,stimulusWOAN27_2IFC_2019_Jun_12_1505_107,stimulusWOAN27_2IFC_2019_Jun_12_1505_108,True,2019_Jun_12_1505,2IFC,2,WOAN27,
2IFC,54,0,54,0,5.8,-1,correct answer,0.567473900039,True,False,stimulusWOAN27_2IFC_2019_Jun_12_1505_109,stimulusWOAN27_2IFC_2019_Jun_12_1505_110,True,2019_Jun_12_1505,2IFC,2,WOAN27,
2IFC,55,0,55,0,14.3,-1,correct answer,0.46747620008,False,True,stimulusWOAN27_2IFC_2019_Jun_12_1505_111,stimulusWOAN27_2IFC_2019_Jun_12_1505_112,True,2019_Jun_12_1505,2IFC,2,WOAN27,
2IFC,56,0,56,0,5.8,-1,wrong answer,0.401209300151,False,True,stimulusWOAN27_2IFC_2019_Jun_12_1505_113,stimulusWOAN27_2IFC_2019_Jun_12_1505_114,True,2019_Jun_12_1505,2IFC,2,WOAN27,
2IFC,57,0,57,0,9.1,-1,correct answer,0.46710749995,True,False,stimulusWOAN27_2IFC_2019_Jun_12_1505_115,stimulusWOAN27_2IFC_2019_Jun_12_1505_116,True,2019_Jun_12_1505,2IFC,2,WOAN27,
2IFC,58,0,58,0,1.4,-1,correct answer,0.63457910018,False,True,stimulusWOAN27_2IFC_2019_Jun_12_1505_117,stimulusWOAN27_2IFC_2019_Jun_12_1505_118,True,2019_Jun_12_1505,2IFC,2,WOAN27,
2IFC,59,0,59,0,12.4,-1,correct answer,0.536172900116,True,False,stimulusWOAN27_2IFC_2019_Jun_12_1505_119,stimulusWOAN27_2IFC_2019_Jun_12_1505_120,True,2019_Jun_12_1505,2IFC,2,WOAN27,
2IFC,60,0,60,0,9.1,-1,correct answer,0.467378699919,False,True,stimulusWOAN27_2IFC_2019_Jun_12_1505_121,stimulusWOAN27_2IFC_2019_Jun_12_1505_122,True,2019_Jun_12_1505,2IFC,2,WOAN27,
2IFC,61,0,61,0,5.8,-1,wrong answer,0.601902999915,True,False,stimulusWOAN27_2IFC_2019_Jun_12_1505_123,stimulusWOAN27_2IFC_2019_Jun_12_1505_124,True,2019_Jun_12_1505,2IFC,2,WOAN27,
2IFC,62,0,62,0,9.1,-1,correct answer,0.533946400043,False,True,stimulusWOAN27_2IFC_2019_Jun_12_1505_125,stimulusWOAN27_2IFC_2019_Jun_12_1505_126,True,2019_Jun_12_1505,2IFC,2,WOAN27,
2IFC,63,0,63,0,12.4,-1,correct answer,0.468439899851,True,False,stimulusWOAN27_2IFC_2019_Jun_12_1505_127,stimulusWOAN27_2IFC_2019_Jun_12_1505_128,True,2019_Jun_12_1505,2IFC,2,WOAN27,
2IFC,64,0,64,0,14.3,-1,correct answer,0.467317700153,True,False,stimulusWOAN27_2IFC_2019_Jun_12_1505_129,stimulusWOAN27_2IFC_2019_Jun_12_1505_130,True,2019_Jun_12_1505,2IFC,2,WOAN27,
2IFC,65,0,65,0,3.8,-1,correct answer,0.464144400088,False,True,stimulusWOAN27_2IFC_2019_Jun_12_1505_131,stimulusWOAN27_2IFC_2019_Jun_12_1505_132,True,2019_Jun_12_1505,2IFC,2,WOAN27,
2IFC,66,0,66,0,5.8,-1,correct answer,0.467838800047,True,False,stimulusWOAN27_2IFC_2019_Jun_12_1505_133,stimulusWOAN27_2IFC_2019_Jun_12_1505_134,True,2019_Jun_12_1505,2IFC,2,WOAN27,
2IFC,67,0,67,0,1.4,-1,wrong answer,0.567917500157,False,True,stimulusWOAN27_2IFC_2019_Jun_12_1505_135,stimulusWOAN27_2IFC_2019_Jun_12_1505_136,True,2019_Jun_12_1505,2IFC,2,WOAN27,
2IFC,68,0,68,0,12.4,-1,correct answer,0.40030619991,False,True,stimulusWOAN27_2IFC_2019_Jun_12_1505_137,stimulusWOAN27_2IFC_2019_Jun_12_1505_138,True,2019_Jun_12_1505,2IFC,2,WOAN27,
2IFC,69,0,69,0,10.7,-1,correct answer,0.533479999984,False,True,stimulusWOAN27_2IFC_2019_Jun_12_1505_139,stimulusWOAN27_2IFC_2019_Jun_12_1505_140,True,2019_Jun_12_1505,2IFC,2,WOAN27,
2IFC,70,0,70,0,7.5,-1,correct answer,0.434976299992,True,False,stimulusWOAN27_2IFC_2019_Jun_12_1505_141,stimulusWOAN27_2IFC_2019_Jun_12_1505_142,True,2019_Jun_12_1505,2IFC,2,WOAN27,
2IFC,71,0,71,0,7.5,-1,correct answer,0.433747400064,False,True,stimulusWOAN27_2IFC_2019_Jun_12_1505_143,stimulusWOAN27_2IFC_2019_Jun_12_1505_144,True,2019_Jun_12_1505,2IFC,2,WOAN27,
2IFC,72,0,72,0,9.1,-1,correct answer,0.567768400069,False,True,stimulusWOAN27_2IFC_2019_Jun_12_1505_145,stimulusWOAN27_2IFC_2019_Jun_12_1505_146,True,2019_Jun_12_1505,2IFC,2,WOAN27,
2IFC,73,0,73,0,1.4,-1,wrong answer,0.366864900105,False,True,stimulusWOAN27_2IFC_2019_Jun_12_1505_147,stimulusWOAN27_2IFC_2019_Jun_12_1505_148,True,2019_Jun_12_1505,2IFC,2,WOAN27,
2IFC,74,0,74,0,9.1,-1,wrong answer,0.36754479981,False,True,stimulusWOAN27_2IFC_2019_Jun_12_1505_149,stimulusWOAN27_2IFC_2019_Jun_12_1505_150,True,2019_Jun_12_1505,2IFC,2,WOAN27,
2IFC,0,0,0,0,1.4,-1,no answer,-1,True,False,stimulusWOAN27_2IFC_2019_Jun_12_1505_151,stimulusWOAN27_2IFC_2019_Jun_12_1505_152,True,2019_Jun_12_1505,2IFC,2,WOAN27,
2IFC,1,0,1,0,1.4,-1,wrong answer,0.567669400014,True,False,stimulusWOAN27_2IFC_2019_Jun_12_1505_153,stimulusWOAN27_2IFC_2019_Jun_12_1505_154,True,2019_Jun_12_1505,2IFC,2,WOAN27,
2IFC,2,0,2,0,7.5,-1,correct answer,0.63350230013,False,True,stimulusWOAN27_2IFC_2019_Jun_12_1505_155,stimulusWOAN27_2IFC_2019_Jun_12_1505_156,True,2019_Jun_12_1505,2IFC,2,WOAN27,
2IFC,3,0,3,0,5.8,-1,correct answer,0.467528500129,True,False,stimulusWOAN27_2IFC_2019_Jun_12_1505_157,stimulusWOAN27_2IFC_2019_Jun_12_1505_158,True,2019_Jun_12_1505,2IFC,2,WOAN27,
2IFC,4,0,4,0,1.4,-1,correct answer,0.567346299998,True,False,stimulusWOAN27_2IFC_2019_Jun_12_1505_159,stimulusWOAN27_2IFC_2019_Jun_12_1505_160,True,2019_Jun_12_1505,2IFC,2,WOAN27,
2IFC,5,0,5,0,7.5,-1,correct answer,0.501216599951,False,True,stimulusWOAN27_2IFC_2019_Jun_12_1505_161,stimulusWOAN27_2IFC_2019_Jun_12_1505_162,True,2019_Jun_12_1505,2IFC,2,WOAN27,
2IFC,6,0,6,0,5.8,-1,wrong answer,0.600956700044,False,True,stimulusWOAN27_2IFC_2019_Jun_12_1505_163,stimulusWOAN27_2IFC_2019_Jun_12_1505_164,True,2019_Jun_12_1505,2IFC,2,WOAN27,
2IFC,7,0,7,0,1.4,-1,wrong answer,0.63148810016,False,True,stimulusWOAN27_2IFC_2019_Jun_12_1505_165,stimulusWOAN27_2IFC_2019_Jun_12_1505_166,True,2019_Jun_12_1505,2IFC,2,WOAN27,
2IFC,8,0,8,0,3.8,-1,correct answer,0.667153399903,True,False,stimulusWOAN27_2IFC_2019_Jun_12_1505_167,stimulusWOAN27_2IFC_2019_Jun_12_1505_168,True,2019_Jun_12_1505,2IFC,2,WOAN27,
2IFC,9,0,9,0,7.5,-1,correct answer,0.467336399946,False,True,stimulusWOAN27_2IFC_2019_Jun_12_1505_169,stimulusWOAN27_2IFC_2019_Jun_12_1505_170,True,2019_Jun_12_1505,2IFC,2,WOAN27,
2IFC,10,0,10,0,7.5,-1,wrong answer,0.46735089994,False,True,stimulusWOAN27_2IFC_2019_Jun_12_1505_171,stimulusWOAN27_2IFC_2019_Jun_12_1505_172,True,2019_Jun_12_1505,2IFC,2,WOAN27,
2IFC,11,0,11,0,1.4,-1,wrong answer,0.438986400142,True,False,stimulusWOAN27_2IFC_2019_Jun_12_1505_173,stimulusWOAN27_2IFC_2019_Jun_12_1505_174,True,2019_Jun_12_1505,2IFC,2,WOAN27,
2IFC,12,0,12,0,3.8,-1,wrong answer,0.601249800064,True,False,stimulusWOAN27_2IFC_2019_Jun_12_1505_175,stimulusWOAN27_2IFC_2019_Jun_12_1505_176,True,2019_Jun_12_1505,2IFC,2,WOAN27,
2IFC,13,0,13,0,5.8,-1,correct answer,0.701876000036,False,True,stimulusWOAN27_2IFC_2019_Jun_12_1505_177,stimulusWOAN27_2IFC_2019_Jun_12_1505_178,True,2019_Jun_12_1505,2IFC,2,WOAN27,
2IFC,14,0,14,0,5.8,-1,correct answer,0.701248799916,True,False,stimulusWOAN27_2IFC_2019_Jun_12_1505_179,stimulusWOAN27_2IFC_2019_Jun_12_1505_180,True,2019_Jun_12_1505,2IFC,2,WOAN27,
2IFC,15,0,15,0,12.4,-1,correct answer,0.432896600105,True,False,stimulusWOAN27_2IFC_2019_Jun_12_1505_181,stimulusWOAN27_2IFC_2019_Jun_12_1505_182,True,2019_Jun_12_1505,2IFC,2,WOAN27,
2IFC,16,0,16,0,10.7,-1,correct answer,0.499895000132,True,False,stimulusWOAN27_2IFC_2019_Jun_12_1505_183,stimulusWOAN27_2IFC_2019_Jun_12_1505_184,True,2019_Jun_12_1505,2IFC,2,WOAN27,
2IFC,17,0,17,0,3.8,-1,wrong answer,0.566816199804,True,False,stimulusWOAN27_2IFC_2019_Jun_12_1505_185,stimulusWOAN27_2IFC_2019_Jun_12_1505_186,True,2019_Jun_12_1505,2IFC,2,WOAN27,
2IFC,18,0,18,0,7.5,-1,wrong answer,0.500128299929,False,True,stimulusWOAN27_2IFC_2019_Jun_12_1505_187,stimulusWOAN27_2IFC_2019_Jun_12_1505_188,True,2019_Jun_12_1505,2IFC,2,WOAN27,
2IFC,19,0,19,0,5.8,-1,correct answer,0.66709800018,True,False,stimulusWOAN27_2IFC_2019_Jun_12_1505_189,stimulusWOAN27_2IFC_2019_Jun_12_1505_190,True,2019_Jun_12_1505,2IFC,2,WOAN27,
2IFC,20,0,20,0,12.4,-1,correct answer,0.501727000112,True,False,stimulusWOAN27_2IFC_2019_Jun_12_1505_191,stimulusWOAN27_2IFC_2019_Jun_12_1505_192,True,2019_Jun_12_1505,2IFC,2,WOAN27,
2IFC,21,0,21,0,5.8,-1,correct answer,0.500647200039,False,True,stimulusWOAN27_2IFC_2019_Jun_12_1505_193,stimulusWOAN27_2IFC_2019_Jun_12_1505_194,True,2019_Jun_12_1505,2IFC,2,WOAN27,
2IFC,22,0,22,0,14.3,-1,correct answer,0.433980799979,True,False,stimulusWOAN27_2IFC_2019_Jun_12_1505_195,stimulusWOAN27_2IFC_2019_Jun_12_1505_196,True,2019_Jun_12_1505,2IFC,2,WOAN27,
2IFC,23,0,23,0,10.7,-1,correct answer,0.56706260005,True,False,stimulusWOAN27_2IFC_2019_Jun_12_1505_197,stimulusWOAN27_2IFC_2019_Jun_12_1505_198,True,2019_Jun_12_1505,2IFC,2,WOAN27,
2IFC,24,0,24,0,12.4,-1,correct answer,0.333884499967,True,False,stimulusWOAN27_2IFC_2019_Jun_12_1505_199,stimulusWOAN27_2IFC_2019_Jun_12_1505_200,True,2019_Jun_12_1505,2IFC,2,WOAN27,
2IFC,25,0,25,0,12.4,-1,correct answer,0.501231600065,True,False,stimulusWOAN27_2IFC_2019_Jun_12_1505_201,stimulusWOAN27_2IFC_2019_Jun_12_1505_202,True,2019_Jun_12_1505,2IFC,2,WOAN27,
2IFC,26,0,26,0,7.5,-1,correct answer,0.634459600085,True,False,stimulusWOAN27_2IFC_2019_Jun_12_1505_203,stimulusWOAN27_2IFC_2019_Jun_12_1505_204,True,2019_Jun_12_1505,2IFC,2,WOAN27,
2IFC,27,0,27,0,3.8,-1,correct answer,0.567375499988,False,True,stimulusWOAN27_2IFC_2019_Jun_12_1505_205,stimulusWOAN27_2IFC_2019_Jun_12_1505_206,True,2019_Jun_12_1505,2IFC,2,WOAN27,
2IFC,28,0,28,0,7.5,-1,correct answer,0.46711099986,False,True,stimulusWOAN27_2IFC_2019_Jun_12_1505_207,stimulusWOAN27_2IFC_2019_Jun_12_1505_208,True,2019_Jun_12_1505,2IFC,2,WOAN27,
2IFC,29,0,29,0,3.8,-1,wrong answer,0.800872800173,True,False,stimulusWOAN27_2IFC_2019_Jun_12_1505_209,stimulusWOAN27_2IFC_2019_Jun_12_1505_210,True,2019_Jun_12_1505,2IFC,2,WOAN27,
2IFC,30,0,30,0,1.4,-1,correct answer,0.700521700084,False,True,stimulusWOAN27_2IFC_2019_Jun_12_1505_211,stimulusWOAN27_2IFC_2019_Jun_12_1505_212,True,2019_Jun_12_1505,2IFC,2,WOAN27,
2IFC,31,0,31,0,9.1,-1,correct answer,0.467295000097,False,True,stimulusWOAN27_2IFC_2019_Jun_12_1505_213,stimulusWOAN27_2IFC_2019_Jun_12_1505_214,True,2019_Jun_12_1505,2IFC,2,WOAN27,
2IFC,32,0,32,0,10.7,-1,correct answer,0.56685069995,False,True,stimulusWOAN27_2IFC_2019_Jun_12_1505_215,stimulusWOAN27_2IFC_2019_Jun_12_1505_216,True,2019_Jun_12_1505,2IFC,2,WOAN27,
2IFC,33,0,33,0,1.4,-1,correct answer,0.666997200111,True,False,stimulusWOAN27_2IFC_2019_Jun_12_1505_217,stimulusWOAN27_2IFC_2019_Jun_12_1505_218,True,2019_Jun_12_1505,2IFC,2,WOAN27,
2IFC,34,0,34,0,3.8,-1,correct answer,0.467109699966,False,True,stimulusWOAN27_2IFC_2019_Jun_12_1505_219,stimulusWOAN27_2IFC_2019_Jun_12_1505_220,True,2019_Jun_12_1505,2IFC,2,WOAN27,
2IFC,35,0,35,0,3.8,-1,correct answer,0.567394800019,False,True,stimulusWOAN27_2IFC_2019_Jun_12_1505_221,stimulusWOAN27_2IFC_2019_Jun_12_1505_222,True,2019_Jun_12_1505,2IFC,2,WOAN27,
2IFC,36,0,36,0,9.1,-1,correct answer,0.500452199951,False,True,stimulusWOAN27_2IFC_2019_Jun_12_1505_223,stimulusWOAN27_2IFC_2019_Jun_12_1505_224,True,2019_Jun_12_1505,2IFC,2,WOAN27,
2IFC,37,0,37,0,12.4,-1,wrong answer,0.467310100095,False,True,stimulusWOAN27_2IFC_2019_Jun_12_1505_225,stimulusWOAN27_2IFC_2019_Jun_12_1505_226,True,2019_Jun_12_1505,2IFC,2,WOAN27,
2IFC,38,0,38,0,3.8,-1,correct answer,0.700713099912,False,True,stimulusWOAN27_2IFC_2019_Jun_12_1505_227,stimulusWOAN27_2IFC_2019_Jun_12_1505_228,True,2019_Jun_12_1505,2IFC,2,WOAN27,
2IFC,39,0,39,0,5.8,-1,correct answer,0.701678999932,False,True,stimulusWOAN27_2IFC_2019_Jun_12_1505_229,stimulusWOAN27_2IFC_2019_Jun_12_1505_230,True,2019_Jun_12_1505,2IFC,2,WOAN27,
2IFC,40,0,40,0,1.4,-1,correct answer,0.801098000025,True,False,stimulusWOAN27_2IFC_2019_Jun_12_1505_231,stimulusWOAN27_2IFC_2019_Jun_12_1505_232,True,2019_Jun_12_1505,2IFC,2,WOAN27,
2IFC,41,0,41,0,5.8,-1,correct answer,0.534095400013,False,True,stimulusWOAN27_2IFC_2019_Jun_12_1505_233,stimulusWOAN27_2IFC_2019_Jun_12_1505_234,True,2019_Jun_12_1505,2IFC,2,WOAN27,
2IFC,42,0,42,0,12.4,-1,correct answer,0.5010855,True,False,stimulusWOAN27_2IFC_2019_Jun_12_1505_235,stimulusWOAN27_2IFC_2019_Jun_12_1505_236,True,2019_Jun_12_1505,2IFC,2,WOAN27,
2IFC,43,0,43,0,10.7,-1,correct answer,0.465912499931,False,True,stimulusWOAN27_2IFC_2019_Jun_12_1505_237,stimulusWOAN27_2IFC_2019_Jun_12_1505_238,True,2019_Jun_12_1505,2IFC,2,WOAN27,
2IFC,44,0,44,0,7.5,-1,correct answer,0.333750999998,True,False,stimulusWOAN27_2IFC_2019_Jun_12_1505_239,stimulusWOAN27_2IFC_2019_Jun_12_1505_240,True,2019_Jun_12_1505,2IFC,2,WOAN27,
2IFC,45,0,45,0,1.4,-1,wrong answer,0.601460800041,True,False,stimulusWOAN27_2IFC_2019_Jun_12_1505_241,stimulusWOAN27_2IFC_2019_Jun_12_1505_242,True,2019_Jun_12_1505,2IFC,2,WOAN27,
2IFC,46,0,46,0,9.1,-1,correct answer,0.467432799982,True,False,stimulusWOAN27_2IFC_2019_Jun_12_1505_243,stimulusWOAN27_2IFC_2019_Jun_12_1505_244,True,2019_Jun_12_1505,2IFC,2,WOAN27,
2IFC,47,0,47,0,12.4,-1,correct answer,0.600707900012,False,True,stimulusWOAN27_2IFC_2019_Jun_12_1505_245,stimulusWOAN27_2IFC_2019_Jun_12_1505_246,True,2019_Jun_12_1505,2IFC,2,WOAN27,
2IFC,48,0,48,0,5.8,-1,wrong answer,0.500289499993,False,True,stimulusWOAN27_2IFC_2019_Jun_12_1505_247,stimulusWOAN27_2IFC_2019_Jun_12_1505_248,True,2019_Jun_12_1505,2IFC,2,WOAN27,
2IFC,49,0,49,0,12.4,-1,wrong answer,0.53402859997,False,True,stimulusWOAN27_2IFC_2019_Jun_12_1505_249,stimulusWOAN27_2IFC_2019_Jun_12_1505_250,True,2019_Jun_12_1505,2IFC,2,WOAN27,
2IFC,50,0,50,0,3.8,-1,correct answer,0.867375999922,False,True,stimulusWOAN27_2IFC_2019_Jun_12_1505_251,stimulusWOAN27_2IFC_2019_Jun_12_1505_252,True,2019_Jun_12_1505,2IFC,2,WOAN27,
2IFC,51,0,51,0,1.4,-1,correct answer,0.534223899944,False,True,stimulusWOAN27_2IFC_2019_Jun_12_1505_253,stimulusWOAN27_2IFC_2019_Jun_12_1505_254,True,2019_Jun_12_1505,2IFC,2,WOAN27,
2IFC,52,0,52,0,7.5,-1,no answer,-1,True,False,stimulusWOAN27_2IFC_2019_Jun_12_1505_255,stimulusWOAN27_2IFC_2019_Jun_12_1505_256,True,2019_Jun_12_1505,2IFC,2,WOAN27,
2IFC,53,0,53,0,1.4,-1,wrong answer,0.533624300035,True,False,stimulusWOAN27_2IFC_2019_Jun_12_1505_257,stimulusWOAN27_2IFC_2019_Jun_12_1505_258,True,2019_Jun_12_1505,2IFC,2,WOAN27,
2IFC,54,0,54,0,3.8,-1,correct answer,0.66729539982,True,False,stimulusWOAN27_2IFC_2019_Jun_12_1505_259,stimulusWOAN27_2IFC_2019_Jun_12_1505_260,True,2019_Jun_12_1505,2IFC,2,WOAN27,
2IFC,55,0,55,0,12.4,-1,correct answer,0.733827000018,False,True,stimulusWOAN27_2IFC_2019_Jun_12_1505_261,stimulusWOAN27_2IFC_2019_Jun_12_1505_262,True,2019_Jun_12_1505,2IFC,2,WOAN27,
2IFC,56,0,56,0,1.4,-1,no answer,-1,True,False,stimulusWOAN27_2IFC_2019_Jun_12_1505_263,stimulusWOAN27_2IFC_2019_Jun_12_1505_264,True,2019_Jun_12_1505,2IFC,2,WOAN27,
2IFC,57,0,57,0,1.4,-1,no answer,-1,False,True,stimulusWOAN27_2IFC_2019_Jun_12_1505_265,stimulusWOAN27_2IFC_2019_Jun_12_1505_266,True,2019_Jun_12_1505,2IFC,2,WOAN27,
2IFC,58,0,58,0,9.1,-1,wrong answer,0.597510399995,True,False,stimulusWOAN27_2IFC_2019_Jun_12_1505_267,stimulusWOAN27_2IFC_2019_Jun_12_1505_268,True,2019_Jun_12_1505,2IFC,2,WOAN27,
2IFC,59,0,59,0,9.1,-1,wrong answer,0.500326899812,False,True,stimulusWOAN27_2IFC_2019_Jun_12_1505_269,stimulusWOAN27_2IFC_2019_Jun_12_1505_270,True,2019_Jun_12_1505,2IFC,2,WOAN27,
2IFC,60,0,60,0,7.5,-1,correct answer,0.467149100034,False,True,stimulusWOAN27_2IFC_2019_Jun_12_1505_271,stimulusWOAN27_2IFC_2019_Jun_12_1505_272,True,2019_Jun_12_1505,2IFC,2,WOAN27,
2IFC,61,0,61,0,7.5,-1,correct answer,0.500431600027,False,True,stimulusWOAN27_2IFC_2019_Jun_12_1505_273,stimulusWOAN27_2IFC_2019_Jun_12_1505_274,True,2019_Jun_12_1505,2IFC,2,WOAN27,
2IFC,62,0,62,0,1.4,-1,correct answer,0.534272700083,False,True,stimulusWOAN27_2IFC_2019_Jun_12_1505_275,stimulusWOAN27_2IFC_2019_Jun_12_1505_276,True,2019_Jun_12_1505,2IFC,2,WOAN27,
2IFC,63,0,63,0,12.4,-1,correct answer,0.433874499984,True,False,stimulusWOAN27_2IFC_2019_Jun_12_1505_277,stimulusWOAN27_2IFC_2019_Jun_12_1505_278,True,2019_Jun_12_1505,2IFC,2,WOAN27,
2IFC,64,0,64,0,10.7,-1,correct answer,0.401108300081,True,False,stimulusWOAN27_2IFC_2019_Jun_12_1505_279,stimulusWOAN27_2IFC_2019_Jun_12_1505_280,True,2019_Jun_12_1505,2IFC,2,WOAN27,
2IFC,65,0,65,0,14.3,-1,correct answer,0.367560299812,False,True,stimulusWOAN27_2IFC_2019_Jun_12_1505_281,stimulusWOAN27_2IFC_2019_Jun_12_1505_282,True,2019_Jun_12_1505,2IFC,2,WOAN27,
2IFC,66,0,66,0,7.5,-1,correct answer,0.534009699943,False,True,stimulusWOAN27_2IFC_2019_Jun_12_1505_283,stimulusWOAN27_2IFC_2019_Jun_12_1505_284,True,2019_Jun_12_1505,2IFC,2,WOAN27,
2IFC,67,0,67,0,7.5,-1,correct answer,0.434943800094,True,False,stimulusWOAN27_2IFC_2019_Jun_12_1505_285,stimulusWOAN27_2IFC_2019_Jun_12_1505_286,True,2019_Jun_12_1505,2IFC,2,WOAN27,
2IFC,68,0,68,0,7.5,-1,correct answer,0.433873799862,True,False,stimulusWOAN27_2IFC_2019_Jun_12_1505_287,stimulusWOAN27_2IFC_2019_Jun_12_1505_288,True,2019_Jun_12_1505,2IFC,2,WOAN27,
2IFC,69,0,69,0,1.4,-1,correct answer,0.368208000204,False,True,stimulusWOAN27_2IFC_2019_Jun_12_1505_289,stimulusWOAN27_2IFC_2019_Jun_12_1505_290,True,2019_Jun_12_1505,2IFC,2,WOAN27,
2IFC,70,0,70,0,7.5,-1,correct answer,0.467251199996,True,False,stimulusWOAN27_2IFC_2019_Jun_12_1505_291,stimulusWOAN27_2IFC_2019_Jun_12_1505_292,True,2019_Jun_12_1505,2IFC,2,WOAN27,
2IFC,71,0,71,0,1.4,-1,correct answer,0.366955300095,False,True,stimulusWOAN27_2IFC_2019_Jun_12_1505_293,stimulusWOAN27_2IFC_2019_Jun_12_1505_294,True,2019_Jun_12_1505,2IFC,2,WOAN27,
2IFC,72,0,72,0,7.5,-1,correct answer,0.367346999934,True,False,stimulusWOAN27_2IFC_2019_Jun_12_1505_295,stimulusWOAN27_2IFC_2019_Jun_12_1505_296,True,2019_Jun_12_1505,2IFC,2,WOAN27,
2IFC,73,0,73,0,9.1,-1,correct answer,0.335201699985,False,True,stimulusWOAN27_2IFC_2019_Jun_12_1505_297,stimulusWOAN27_2IFC_2019_Jun_12_1505_298,True,2019_Jun_12_1505,2IFC,2,WOAN27,
2IFC,74,0,74,0,1.4,-1,correct answer,0.467140299967,False,True,stimulusWOAN27_2IFC_2019_Jun_12_1505_299,stimulusWOAN27_2IFC_2019_Jun_12_1505_300,True,2019_Jun_12_1505,2IFC,2,WOAN27,
2IFC,0,0,0,0,12.4,-1,no answer,-1,True,False,stimulusWOAN27_2IFC_2019_Jun_12_1505_301,stimulusWOAN27_2IFC_2019_Jun_12_1505_302,True,2019_Jun_12_1505,2IFC,2,WOAN27,
2IFC,1,0,1,0,7.5,-1,wrong answer,0.431314399932,False,True,stimulusWOAN27_2IFC_2019_Jun_12_1505_303,stimulusWOAN27_2IFC_2019_Jun_12_1505_304,True,2019_Jun_12_1505,2IFC,2,WOAN27,
2IFC,2,0,2,0,5.8,-1,correct answer,0.600627099862,False,True,stimulusWOAN27_2IFC_2019_Jun_12_1505_305,stimulusWOAN27_2IFC_2019_Jun_12_1505_306,True,2019_Jun_12_1505,2IFC,2,WOAN27,
2IFC,3,0,3,0,10.7,-1,correct answer,0.600377999945,False,True,stimulusWOAN27_2IFC_2019_Jun_12_1505_307,stimulusWOAN27_2IFC_2019_Jun_12_1505_308,True,2019_Jun_12_1505,2IFC,2,WOAN27,
2IFC,4,0,4,0,7.5,-1,correct answer,0.468153299997,False,True,stimulusWOAN27_2IFC_2019_Jun_12_1505_309,stimulusWOAN27_2IFC_2019_Jun_12_1505_310,True,2019_Jun_12_1505,2IFC,2,WOAN27,
2IFC,5,0,5,0,14.3,-1,correct answer,0.467549100053,True,False,stimulusWOAN27_2IFC_2019_Jun_12_1505_311,stimulusWOAN27_2IFC_2019_Jun_12_1505_312,True,2019_Jun_12_1505,2IFC,2,WOAN27,
2IFC,6,0,6,0,3.8,-1,correct answer,0.600723500131,True,False,stimulusWOAN27_2IFC_2019_Jun_12_1505_313,stimulusWOAN27_2IFC_2019_Jun_12_1505_314,True,2019_Jun_12_1505,2IFC,2,WOAN27,
2IFC,7,0,7,0,3.8,-1,wrong answer,0.600792799843,True,False,stimulusWOAN27_2IFC_2019_Jun_12_1505_315,stimulusWOAN27_2IFC_2019_Jun_12_1505_316,True,2019_Jun_12_1505,2IFC,2,WOAN27,
2IFC,8,0,8,0,10.7,-1,correct answer,0.43405089993,False,True,stimulusWOAN27_2IFC_2019_Jun_12_1505_317,stimulusWOAN27_2IFC_2019_Jun_12_1505_318,True,2019_Jun_12_1505,2IFC,2,WOAN27,
2IFC,9,0,9,0,12.4,-1,correct answer,0.400237699971,True,False,stimulusWOAN27_2IFC_2019_Jun_12_1505_319,stimulusWOAN27_2IFC_2019_Jun_12_1505_320,True,2019_Jun_12_1505,2IFC,2,WOAN27,
2IFC,10,0,10,0,10.7,-1,correct answer,0.700432299869,True,False,stimulusWOAN27_2IFC_2019_Jun_12_1505_321,stimulusWOAN27_2IFC_2019_Jun_12_1505_322,True,2019_Jun_12_1505,2IFC,2,WOAN27,
2IFC,11,0,11,0,14.3,-1,correct answer,0.367395300185,False,True,stimulusWOAN27_2IFC_2019_Jun_12_1505_323,stimulusWOAN27_2IFC_2019_Jun_12_1505_324,True,2019_Jun_12_1505,2IFC,2,WOAN27,
2IFC,12,0,12,0,5.8,-1,wrong answer,0.400765200146,False,True,stimulusWOAN27_2IFC_2019_Jun_12_1505_325,stimulusWOAN27_2IFC_2019_Jun_12_1505_326,True,2019_Jun_12_1505,2IFC,2,WOAN27,
2IFC,13,0,13,0,10.7,-1,correct answer,0.401412900072,False,True,stimulusWOAN27_2IFC_2019_Jun_12_1505_327,stimulusWOAN27_2IFC_2019_Jun_12_1505_328,True,2019_Jun_12_1505,2IFC,2,WOAN27,
2IFC,14,0,14,0,7.5,-1,correct answer,0.499562900048,False,True,stimulusWOAN27_2IFC_2019_Jun_12_1505_329,stimulusWOAN27_2IFC_2019_Jun_12_1505_330,True,2019_Jun_12_1505,2IFC,2,WOAN27,
2IFC,15,0,15,0,14.3,-1,correct answer,0.400429900037,True,False,stimulusWOAN27_2IFC_2019_Jun_12_1505_331,stimulusWOAN27_2IFC_2019_Jun_12_1505_332,True,2019_Jun_12_1505,2IFC,2,WOAN27,
2IFC,16,0,16,0,7.5,-1,correct answer,0.56812760001,True,False,stimulusWOAN27_2IFC_2019_Jun_12_1505_333,stimulusWOAN27_2IFC_2019_Jun_12_1505_334,True,2019_Jun_12_1505,2IFC,2,WOAN27,
2IFC,17,0,17,0,10.7,-1,correct answer,0.467206199886,False,True,stimulusWOAN27_2IFC_2019_Jun_12_1505_335,stimulusWOAN27_2IFC_2019_Jun_12_1505_336,True,2019_Jun_12_1505,2IFC,2,WOAN27,
2IFC,18,0,18,0,1.4,-1,wrong answer,0.600317700068,True,False,stimulusWOAN27_2IFC_2019_Jun_12_1505_337,stimulusWOAN27_2IFC_2019_Jun_12_1505_338,True,2019_Jun_12_1505,2IFC,2,WOAN27,
2IFC,19,0,19,0,9.1,-1,wrong answer,0.535713099875,True,False,stimulusWOAN27_2IFC_2019_Jun_12_1505_339,stimulusWOAN27_2IFC_2019_Jun_12_1505_340,True,2019_Jun_12_1505,2IFC,2,WOAN27,
2IFC,20,0,20,0,10.7,-1,wrong answer,0.46909820009,False,True,stimulusWOAN27_2IFC_2019_Jun_12_1505_341,stimulusWOAN27_2IFC_2019_Jun_12_1505_342,True,2019_Jun_12_1505,2IFC,2,WOAN27,
2IFC,21,0,21,0,12.4,-1,correct answer,0.600715999957,False,True,stimulusWOAN27_2IFC_2019_Jun_12_1505_343,stimulusWOAN27_2IFC_2019_Jun_12_1505_344,True,2019_Jun_12_1505,2IFC,2,WOAN27,
2IFC,22,0,22,0,14.3,-1,correct answer,0.57016230002,False,True,stimulusWOAN27_2IFC_2019_Jun_12_1505_345,stimulusWOAN27_2IFC_2019_Jun_12_1505_346,True,2019_Jun_12_1505,2IFC,2,WOAN27,
2IFC,23,0,23,0,5.8,-1,correct answer,0.634072999936,True,False,stimulusWOAN27_2IFC_2019_Jun_12_1505_347,stimulusWOAN27_2IFC_2019_Jun_12_1505_348,True,2019_Jun_12_1505,2IFC,2,WOAN27,
2IFC,24,0,24,0,9.1,-1,correct answer,0.467883399921,True,False,stimulusWOAN27_2IFC_2019_Jun_12_1505_349,stimulusWOAN27_2IFC_2019_Jun_12_1505_350,True,2019_Jun_12_1505,2IFC,2,WOAN27,
2IFC,25,0,25,0,14.3,-1,wrong answer,0.433938999893,False,True,stimulusWOAN27_2IFC_2019_Jun_12_1505_351,stimulusWOAN27_2IFC_2019_Jun_12_1505_352,True,2019_Jun_12_1505,2IFC,2,WOAN27,
2IFC,26,0,26,0,14.3,-1,correct answer,0.601467499975,False,True,stimulusWOAN27_2IFC_2019_Jun_12_1505_353,stimulusWOAN27_2IFC_2019_Jun_12_1505_354,True,2019_Jun_12_1505,2IFC,2,WOAN27,
2IFC,27,0,27,0,12.4,-1,correct answer,0.435465699993,True,False,stimulusWOAN27_2IFC_2019_Jun_12_1505_355,stimulusWOAN27_2IFC_2019_Jun_12_1505_356,True,2019_Jun_12_1505,2IFC,2,WOAN27,
2IFC,28,0,28,0,5.8,-1,correct answer,0.734424100025,False,True,stimulusWOAN27_2IFC_2019_Jun_12_1505_357,stimulusWOAN27_2IFC_2019_Jun_12_1505_358,True,2019_Jun_12_1505,2IFC,2,WOAN27,
2IFC,29,0,29,0,5.8,-1,correct answer,0.367328400025,True,False,stimulusWOAN27_2IFC_2019_Jun_12_1505_359,stimulusWOAN27_2IFC_2019_Jun_12_1505_360,True,2019_Jun_12_1505,2IFC,2,WOAN27,
2IFC,30,0,30,0,12.4,-1,correct answer,0.468178899959,True,False,stimulusWOAN27_2IFC_2019_Jun_12_1505_361,stimulusWOAN27_2IFC_2019_Jun_12_1505_362,True,2019_Jun_12_1505,2IFC,2,WOAN27,
2IFC,31,0,31,0,7.5,-1,correct answer,0.467464300105,False,True,stimulusWOAN27_2IFC_2019_Jun_12_1505_363,stimulusWOAN27_2IFC_2019_Jun_12_1505_364,True,2019_Jun_12_1505,2IFC,2,WOAN27,
2IFC,32,0,32,0,7.5,-1,correct answer,0.734757800121,False,True,stimulusWOAN27_2IFC_2019_Jun_12_1505_365,stimulusWOAN27_2IFC_2019_Jun_12_1505_366,True,2019_Jun_12_1505,2IFC,2,WOAN27,
2IFC,33,0,33,0,5.8,-1,correct answer,0.533043699805,False,True,stimulusWOAN27_2IFC_2019_Jun_12_1505_367,stimulusWOAN27_2IFC_2019_Jun_12_1505_368,True,2019_Jun_12_1505,2IFC,2,WOAN27,
2IFC,34,0,34,0,3.8,-1,wrong answer,0.467624299927,False,True,stimulusWOAN27_2IFC_2019_Jun_12_1505_369,stimulusWOAN27_2IFC_2019_Jun_12_1505_370,True,2019_Jun_12_1505,2IFC,2,WOAN27,
2IFC,35,0,35,0,10.7,-1,correct answer,0.700780200073,True,False,stimulusWOAN27_2IFC_2019_Jun_12_1505_371,stimulusWOAN27_2IFC_2019_Jun_12_1505_372,True,2019_Jun_12_1505,2IFC,2,WOAN27,
2IFC,36,0,36,0,12.4,-1,correct answer,0.299654999981,True,False,stimulusWOAN27_2IFC_2019_Jun_12_1505_373,stimulusWOAN27_2IFC_2019_Jun_12_1505_374,True,2019_Jun_12_1505,2IFC,2,WOAN27,
2IFC,37,0,37,0,9.1,-1,correct answer,0.433448099997,True,False,stimulusWOAN27_2IFC_2019_Jun_12_1505_375,stimulusWOAN27_2IFC_2019_Jun_12_1505_376,True,2019_Jun_12_1505,2IFC,2,WOAN27,
2IFC,38,0,38,0,5.8,-1,correct answer,0.868575099856,False,True,stimulusWOAN27_2IFC_2019_Jun_12_1505_377,stimulusWOAN27_2IFC_2019_Jun_12_1505_378,True,2019_Jun_12_1505,2IFC,2,WOAN27,
2IFC,39,0,39,0,5.8,-1,correct answer,0.435340699973,False,True,stimulusWOAN27_2IFC_2019_Jun_12_1505_379,stimulusWOAN27_2IFC_2019_Jun_12_1505_380,True,2019_Jun_12_1505,2IFC,2,WOAN27,
2IFC,40,0,40,0,14.3,-1,correct answer,0.368973000208,False,True,stimulusWOAN27_2IFC_2019_Jun_12_1505_381,stimulusWOAN27_2IFC_2019_Jun_12_1505_382,True,2019_Jun_12_1505,2IFC,2,WOAN27,
2IFC,41,0,41,0,12.4,-1,correct answer,0.467587199993,False,True,stimulusWOAN27_2IFC_2019_Jun_12_1505_383,stimulusWOAN27_2IFC_2019_Jun_12_1505_384,True,2019_Jun_12_1505,2IFC,2,WOAN27,
2IFC,42,0,42,0,14.3,-1,correct answer,0.366997600067,True,False,stimulusWOAN27_2IFC_2019_Jun_12_1505_385,stimulusWOAN27_2IFC_2019_Jun_12_1505_386,True,2019_Jun_12_1505,2IFC,2,WOAN27,
2IFC,43,0,43,0,3.8,-1,correct answer,0.59945530002,False,True,stimulusWOAN27_2IFC_2019_Jun_12_1505_387,stimulusWOAN27_2IFC_2019_Jun_12_1505_388,True,2019_Jun_12_1505,2IFC,2,WOAN27,
2IFC,44,0,44,0,5.8,-1,correct answer,0.600971599808,False,True,stimulusWOAN27_2IFC_2019_Jun_12_1505_389,stimulusWOAN27_2IFC_2019_Jun_12_1505_390,True,2019_Jun_12_1505,2IFC,2,WOAN27,
2IFC,45,0,45,0,1.4,-1,correct answer,0.433751999866,True,False,stimulusWOAN27_2IFC_2019_Jun_12_1505_391,stimulusWOAN27_2IFC_2019_Jun_12_1505_392,True,2019_Jun_12_1505,2IFC,2,WOAN27,
2IFC,46,0,46,0,10.7,-1,correct answer,0.468649999937,True,False,stimulusWOAN27_2IFC_2019_Jun_12_1505_393,stimulusWOAN27_2IFC_2019_Jun_12_1505_394,True,2019_Jun_12_1505,2IFC,2,WOAN27,
2IFC,47,0,47,0,1.4,-1,wrong answer,0.300814500079,True,False,stimulusWOAN27_2IFC_2019_Jun_12_1505_395,stimulusWOAN27_2IFC_2019_Jun_12_1505_396,True,2019_Jun_12_1505,2IFC,2,WOAN27,
2IFC,48,0,48,0,9.1,-1,correct answer,0.534740800038,True,False,stimulusWOAN27_2IFC_2019_Jun_12_1505_397,stimulusWOAN27_2IFC_2019_Jun_12_1505_398,True,2019_Jun_12_1505,2IFC,2,WOAN27,
2IFC,49,0,49,0,10.7,-1,correct answer,0.367747599958,False,True,stimulusWOAN27_2IFC_2019_Jun_12_1505_399,stimulusWOAN27_2IFC_2019_Jun_12_1505_400,True,2019_Jun_12_1505,2IFC,2,WOAN27,
2IFC,50,0,50,0,12.4,-1,correct answer,0.40041500004,True,False,stimulusWOAN27_2IFC_2019_Jun_12_1505_401,stimulusWOAN27_2IFC_2019_Jun_12_1505_402,True,2019_Jun_12_1505,2IFC,2,WOAN27,
2IFC,51,0,51,0,3.8,-1,correct answer,0.667278599925,True,False,stimulusWOAN27_2IFC_2019_Jun_12_1505_403,stimulusWOAN27_2IFC_2019_Jun_12_1505_404,True,2019_Jun_12_1505,2IFC,2,WOAN27,
2IFC,52,0,52,0,12.4,-1,wrong answer,0.533934399951,False,True,stimulusWOAN27_2IFC_2019_Jun_12_1505_405,stimulusWOAN27_2IFC_2019_Jun_12_1505_406,True,2019_Jun_12_1505,2IFC,2,WOAN27,
2IFC,53,0,53,0,5.8,-1,correct answer,0.766234900104,True,False,stimulusWOAN27_2IFC_2019_Jun_12_1505_407,stimulusWOAN27_2IFC_2019_Jun_12_1505_408,True,2019_Jun_12_1505,2IFC,2,WOAN27,
2IFC,54,0,54,0,14.3,-1,correct answer,0.500375299947,False,True,stimulusWOAN27_2IFC_2019_Jun_12_1505_409,stimulusWOAN27_2IFC_2019_Jun_12_1505_410,True,2019_Jun_12_1505,2IFC,2,WOAN27,
2IFC,55,0,55,0,3.8,-1,correct answer,0.568390300032,False,True,stimulusWOAN27_2IFC_2019_Jun_12_1505_411,stimulusWOAN27_2IFC_2019_Jun_12_1505_412,True,2019_Jun_12_1505,2IFC,2,WOAN27,
2IFC,56,0,56,0,7.5,-1,correct answer,0.466496600071,True,False,stimulusWOAN27_2IFC_2019_Jun_12_1505_413,stimulusWOAN27_2IFC_2019_Jun_12_1505_414,True,2019_Jun_12_1505,2IFC,2,WOAN27,
2IFC,57,0,57,0,14.3,-1,correct answer,0.734977200162,True,False,stimulusWOAN27_2IFC_2019_Jun_12_1505_415,stimulusWOAN27_2IFC_2019_Jun_12_1505_416,True,2019_Jun_12_1505,2IFC,2,WOAN27,
2IFC,58,0,58,0,12.4,-1,correct answer,0.467216500081,False,True,stimulusWOAN27_2IFC_2019_Jun_12_1505_417,stimulusWOAN27_2IFC_2019_Jun_12_1505_418,True,2019_Jun_12_1505,2IFC,2,WOAN27,
2IFC,59,0,59,0,5.8,-1,wrong answer,0.602462999988,True,False,stimulusWOAN27_2IFC_2019_Jun_12_1505_419,stimulusWOAN27_2IFC_2019_Jun_12_1505_420,True,2019_Jun_12_1505,2IFC,2,WOAN27,
2IFC,60,0,60,0,12.4,-1,wrong answer,0.434248900041,False,True,stimulusWOAN27_2IFC_2019_Jun_12_1505_421,stimulusWOAN27_2IFC_2019_Jun_12_1505_422,True,2019_Jun_12_1505,2IFC,2,WOAN27,
2IFC,61,0,61,0,9.1,-1,correct answer,0.433736999985,False,True,stimulusWOAN27_2IFC_2019_Jun_12_1505_423,stimulusWOAN27_2IFC_2019_Jun_12_1505_424,True,2019_Jun_12_1505,2IFC,2,WOAN27,
2IFC,62,0,62,0,1.4,-1,no answer,-1,True,False,stimulusWOAN27_2IFC_2019_Jun_12_1505_425,stimulusWOAN27_2IFC_2019_Jun_12_1505_426,True,2019_Jun_12_1505,2IFC,2,WOAN27,
2IFC,63,0,63,0,14.3,-1,correct answer,0.567719600163,True,False,stimulusWOAN27_2IFC_2019_Jun_12_1505_427,stimulusWOAN27_2IFC_2019_Jun_12_1505_428,True,2019_Jun_12_1505,2IFC,2,WOAN27,
2IFC,64,0,64,0,14.3,-1,correct answer,0.567650800105,False,True,stimulusWOAN27_2IFC_2019_Jun_12_1505_429,stimulusWOAN27_2IFC_2019_Jun_12_1505_430,True,2019_Jun_12_1505,2IFC,2,WOAN27,
2IFC,65,0,65,0,3.8,-1,correct answer,0.734209300019,False,True,stimulusWOAN27_2IFC_2019_Jun_12_1505_431,stimulusWOAN27_2IFC_2019_Jun_12_1505_432,True,2019_Jun_12_1505,2IFC,2,WOAN27,
2IFC,66,0,66,0,7.5,-1,correct answer,0.532750700135,False,True,stimulusWOAN27_2IFC_2019_Jun_12_1505_433,stimulusWOAN27_2IFC_2019_Jun_12_1505_434,True,2019_Jun_12_1505,2IFC,2,WOAN27,
2IFC,67,0,67,0,1.4,-1,wrong answer,0.600535500096,False,True,stimulusWOAN27_2IFC_2019_Jun_12_1505_435,stimulusWOAN27_2IFC_2019_Jun_12_1505_436,True,2019_Jun_12_1505,2IFC,2,WOAN27,
2IFC,68,0,68,0,3.8,-1,no answer,-1,False,True,stimulusWOAN27_2IFC_2019_Jun_12_1505_437,stimulusWOAN27_2IFC_2019_Jun_12_1505_438,True,2019_Jun_12_1505,2IFC,2,WOAN27,
2IFC,69,0,69,0,1.4,-1,correct answer,0.40020569996,False,True,stimulusWOAN27_2IFC_2019_Jun_12_1505_439,stimulusWOAN27_2IFC_2019_Jun_12_1505_440,True,2019_Jun_12_1505,2IFC,2,WOAN27,
2IFC,70,0,70,0,14.3,-1,correct answer,0.800812799949,False,True,stimulusWOAN27_2IFC_2019_Jun_12_1505_441,stimulusWOAN27_2IFC_2019_Jun_12_1505_442,True,2019_Jun_12_1505,2IFC,2,WOAN27,
2IFC,71,0,71,0,5.8,-1,correct answer,0.433456399944,False,True,stimulusWOAN27_2IFC_2019_Jun_12_1505_443,stimulusWOAN27_2IFC_2019_Jun_12_1505_444,True,2019_Jun_12_1505,2IFC,2,WOAN27,
2IFC,72,0,72,0,12.4,-1,correct answer,0.600034300005,False,True,stimulusWOAN27_2IFC_2019_Jun_12_1505_445,stimulusWOAN27_2IFC_2019_Jun_12_1505_446,True,2019_Jun_12_1505,2IFC,2,WOAN27,
2IFC,73,0,73,0,14.3,-1,correct answer,0.501569000073,True,False,stimulusWOAN27_2IFC_2019_Jun_12_1505_447,stimulusWOAN27_2IFC_2019_Jun_12_1505_448,True,2019_Jun_12_1505,2IFC,2,WOAN27,
2IFC,74,0,74,0,10.7,-1,correct answer,0.468108899891,True,False,stimulusWOAN27_2IFC_2019_Jun_12_1505_449,stimulusWOAN27_2IFC_2019_Jun_12_1505_450,True,2019_Jun_12_1505,2IFC,2,WOAN27,
2IFC,0,0,0,0,3.8,-1,no answer,-1,True,False,stimulusWOAN27_2IFC_2019_Jun_12_1505_451,stimulusWOAN27_2IFC_2019_Jun_12_1505_452,True,2019_Jun_12_1505,2IFC,2,WOAN27,
2IFC,1,0,1,0,9.1,-1,correct answer,0.433294699993,False,True,stimulusWOAN27_2IFC_2019_Jun_12_1505_453,stimulusWOAN27_2IFC_2019_Jun_12_1505_454,True,2019_Jun_12_1505,2IFC,2,WOAN27,
2IFC,2,0,2,0,9.1,-1,correct answer,0.60147819994,True,False,stimulusWOAN27_2IFC_2019_Jun_12_1505_455,stimulusWOAN27_2IFC_2019_Jun_12_1505_456,True,2019_Jun_12_1505,2IFC,2,WOAN27,
2IFC,3,0,3,0,12.4,-1,correct answer,0.667929599993,True,False,stimulusWOAN27_2IFC_2019_Jun_12_1505_457,stimulusWOAN27_2IFC_2019_Jun_12_1505_458,True,2019_Jun_12_1505,2IFC,2,WOAN27,
2IFC,4,0,4,0,12.4,-1,correct answer,0.399621799821,False,True,stimulusWOAN27_2IFC_2019_Jun_12_1505_459,stimulusWOAN27_2IFC_2019_Jun_12_1505_460,True,2019_Jun_12_1505,2IFC,2,WOAN27,
2IFC,5,0,5,0,12.4,-1,correct answer,0.533841599943,False,True,stimulusWOAN27_2IFC_2019_Jun_12_1505_461,stimulusWOAN27_2IFC_2019_Jun_12_1505_462,True,2019_Jun_12_1505,2IFC,2,WOAN27,
2IFC,6,0,6,0,7.5,-1,wrong answer,0.467699999921,True,False,stimulusWOAN27_2IFC_2019_Jun_12_1505_463,stimulusWOAN27_2IFC_2019_Jun_12_1505_464,True,2019_Jun_12_1505,2IFC,2,WOAN27,
2IFC,7,0,7,0,14.3,-1,correct answer,0.504400100093,False,True,stimulusWOAN27_2IFC_2019_Jun_12_1505_465,stimulusWOAN27_2IFC_2019_Jun_12_1505_466,True,2019_Jun_12_1505,2IFC,2,WOAN27,
2IFC,8,0,8,0,3.8,-1,correct answer,0.534195099957,False,True,stimulusWOAN27_2IFC_2019_Jun_12_1505_467,stimulusWOAN27_2IFC_2019_Jun_12_1505_468,True,2019_Jun_12_1505,2IFC,2,WOAN27,
2IFC,9,0,9,0,5.8,-1,wrong answer,0.500952900155,False,True,stimulusWOAN27_2IFC_2019_Jun_12_1505_469,stimulusWOAN27_2IFC_2019_Jun_12_1505_470,True,2019_Jun_12_1505,2IFC,2,WOAN27,
2IFC,10,0,10,0,3.8,-1,correct answer,0.467115300009,True,False,stimulusWOAN27_2IFC_2019_Jun_12_1505_471,stimulusWOAN27_2IFC_2019_Jun_12_1505_472,True,2019_Jun_12_1505,2IFC,2,WOAN27,
2IFC,11,0,11,0,7.5,-1,correct answer,0.434428200126,False,True,stimulusWOAN27_2IFC_2019_Jun_12_1505_473,stimulusWOAN27_2IFC_2019_Jun_12_1505_474,True,2019_Jun_12_1505,2IFC,2,WOAN27,
2IFC,12,0,12,0,5.8,-1,wrong answer,0.735125900013,True,False,stimulusWOAN27_2IFC_2019_Jun_12_1505_475,stimulusWOAN27_2IFC_2019_Jun_12_1505_476,True,2019_Jun_12_1505,2IFC,2,WOAN27,
2IFC,13,0,13,0,7.5,-1,wrong answer,0.567662599962,True,False,stimulusWOAN27_2IFC_2019_Jun_12_1505_477,stimulusWOAN27_2IFC_2019_Jun_12_1505_478,True,2019_Jun_12_1505,2IFC,2,WOAN27,
2IFC,14,0,14,0,12.4,-1,correct answer,0.499497600133,False,True,stimulusWOAN27_2IFC_2019_Jun_12_1505_479,stimulusWOAN27_2IFC_2019_Jun_12_1505_480,True,2019_Jun_12_1505,2IFC,2,WOAN27,
2IFC,15,0,15,0,9.1,-1,correct answer,0.533921000082,False,True,stimulusWOAN27_2IFC_2019_Jun_12_1505_481,stimulusWOAN27_2IFC_2019_Jun_12_1505_482,True,2019_Jun_12_1505,2IFC,2,WOAN27,
2IFC,16,0,16,0,7.5,-1,correct answer,0.46740199998,False,True,stimulusWOAN27_2IFC_2019_Jun_12_1505_483,stimulusWOAN27_2IFC_2019_Jun_12_1505_484,True,2019_Jun_12_1505,2IFC,2,WOAN27,
2IFC,17,0,17,0,10.7,-1,correct answer,0.56830699998,False,True,stimulusWOAN27_2IFC_2019_Jun_12_1505_485,stimulusWOAN27_2IFC_2019_Jun_12_1505_486,True,2019_Jun_12_1505,2IFC,2,WOAN27,
2IFC,18,0,18,0,10.7,-1,correct answer,0.467244999949,False,True,stimulusWOAN27_2IFC_2019_Jun_12_1505_487,stimulusWOAN27_2IFC_2019_Jun_12_1505_488,True,2019_Jun_12_1505,2IFC,2,WOAN27,
2IFC,19,0,19,0,9.1,-1,correct answer,0.468187100021,False,True,stimulusWOAN27_2IFC_2019_Jun_12_1505_489,stimulusWOAN27_2IFC_2019_Jun_12_1505_490,True,2019_Jun_12_1505,2IFC,2,WOAN27,
2IFC,20,0,20,0,9.1,-1,correct answer,0.534199799877,True,False,stimulusWOAN27_2IFC_2019_Jun_12_1505_491,stimulusWOAN27_2IFC_2019_Jun_12_1505_492,True,2019_Jun_12_1505,2IFC,2,WOAN27,
2IFC,21,0,21,0,1.4,-1,wrong answer,0.634124399861,False,True,stimulusWOAN27_2IFC_2019_Jun_12_1505_493,stimulusWOAN27_2IFC_2019_Jun_12_1505_494,True,2019_Jun_12_1505,2IFC,2,WOAN27,
2IFC,22,0,22,0,3.8,-1,wrong answer,0.634032499976,True,False,stimulusWOAN27_2IFC_2019_Jun_12_1505_495,stimulusWOAN27_2IFC_2019_Jun_12_1505_496,True,2019_Jun_12_1505,2IFC,2,WOAN27,
2IFC,23,0,23,0,14.3,-1,correct answer,0.46745310002,False,True,stimulusWOAN27_2IFC_2019_Jun_12_1505_497,stimulusWOAN27_2IFC_2019_Jun_12_1505_498,True,2019_Jun_12_1505,2IFC,2,WOAN27,
2IFC,24,0,24,0,5.8,-1,wrong answer,0.634276600089,False,True,stimulusWOAN27_2IFC_2019_Jun_12_1505_499,stimulusWOAN27_2IFC_2019_Jun_12_1505_500,True,2019_Jun_12_1505,2IFC,2,WOAN27,
2IFC,25,0,25,0,7.5,-1,correct answer,0.602164200041,False,True,stimulusWOAN27_2IFC_2019_Jun_12_1505_501,stimulusWOAN27_2IFC_2019_Jun_12_1505_502,True,2019_Jun_12_1505,2IFC,2,WOAN27,
2IFC,26,0,26,0,7.5,-1,correct answer,0.53383910004,False,True,stimulusWOAN27_2IFC_2019_Jun_12_1505_503,stimulusWOAN27_2IFC_2019_Jun_12_1505_504,True,2019_Jun_12_1505,2IFC,2,WOAN27,
2IFC,27,0,27,0,1.4,-1,correct answer,0.466988399858,False,True,stimulusWOAN27_2IFC_2019_Jun_12_1505_505,stimulusWOAN27_2IFC_2019_Jun_12_1505_506,True,2019_Jun_12_1505,2IFC,2,WOAN27,
2IFC,28,0,28,0,5.8,-1,correct answer,0.46791830007,True,False,stimulusWOAN27_2IFC_2019_Jun_12_1505_507,stimulusWOAN27_2IFC_2019_Jun_12_1505_508,True,2019_Jun_12_1505,2IFC,2,WOAN27,
2IFC,29,0,29,0,5.8,-1,wrong answer,0.600433199899,True,False,stimulusWOAN27_2IFC_2019_Jun_12_1505_509,stimulusWOAN27_2IFC_2019_Jun_12_1505_510,True,2019_Jun_12_1505,2IFC,2,WOAN27,
2IFC,30,0,30,0,3.8,-1,correct answer,0.467593200039,True,False,stimulusWOAN27_2IFC_2019_Jun_12_1505_511,stimulusWOAN27_2IFC_2019_Jun_12_1505_512,True,2019_Jun_12_1505,2IFC,2,WOAN27,
2IFC,31,0,31,0,3.8,-1,correct answer,0.567707800074,False,True,stimulusWOAN27_2IFC_2019_Jun_12_1505_513,stimulusWOAN27_2IFC_2019_Jun_12_1505_514,True,2019_Jun_12_1505,2IFC,2,WOAN27,
2IFC,32,0,32,0,14.3,-1,correct answer,0.368819499854,True,False,stimulusWOAN27_2IFC_2019_Jun_12_1505_515,stimulusWOAN27_2IFC_2019_Jun_12_1505_516,True,2019_Jun_12_1505,2IFC,2,WOAN27,
2IFC,33,0,33,0,10.7,-1,correct answer,0.334058400011,True,False,stimulusWOAN27_2IFC_2019_Jun_12_1505_517,stimulusWOAN27_2IFC_2019_Jun_12_1505_518,True,2019_Jun_12_1505,2IFC,2,WOAN27,
2IFC,34,0,34,0,3.8,-1,correct answer,0.599404500099,False,True,stimulusWOAN27_2IFC_2019_Jun_12_1505_519,stimulusWOAN27_2IFC_2019_Jun_12_1505_520,True,2019_Jun_12_1505,2IFC,2,WOAN27,
2IFC,35,0,35,0,9.1,-1,correct answer,0.467482199892,False,True,stimulusWOAN27_2IFC_2019_Jun_12_1505_521,stimulusWOAN27_2IFC_2019_Jun_12_1505_522,True,2019_Jun_12_1505,2IFC,2,WOAN27,
2IFC,36,0,36,0,7.5,-1,correct answer,0.434568900149,False,True,stimulusWOAN27_2IFC_2019_Jun_12_1505_523,stimulusWOAN27_2IFC_2019_Jun_12_1505_524,True,2019_Jun_12_1505,2IFC,2,WOAN27,
2IFC,37,0,37,0,1.4,-1,correct answer,0.400715299882,False,True,stimulusWOAN27_2IFC_2019_Jun_12_1505_525,stimulusWOAN27_2IFC_2019_Jun_12_1505_526,True,2019_Jun_12_1505,2IFC,2,WOAN27,
2IFC,38,0,38,0,12.4,-1,correct answer,0.4672691999,True,False,stimulusWOAN27_2IFC_2019_Jun_12_1505_527,stimulusWOAN27_2IFC_2019_Jun_12_1505_528,True,2019_Jun_12_1505,2IFC,2,WOAN27,
2IFC,39,0,39,0,1.4,-1,wrong answer,0.867117700167,False,True,stimulusWOAN27_2IFC_2019_Jun_12_1505_529,stimulusWOAN27_2IFC_2019_Jun_12_1505_530,True,2019_Jun_12_1505,2IFC,2,WOAN27,
2IFC,40,0,40,0,3.8,-1,correct answer,0.43379879999,False,True,stimulusWOAN27_2IFC_2019_Jun_12_1505_531,stimulusWOAN27_2IFC_2019_Jun_12_1505_532,True,2019_Jun_12_1505,2IFC,2,WOAN27,
2IFC,41,0,41,0,3.8,-1,wrong answer,0.434650900075,False,True,stimulusWOAN27_2IFC_2019_Jun_12_1505_533,stimulusWOAN27_2IFC_2019_Jun_12_1505_534,True,2019_Jun_12_1505,2IFC,2,WOAN27,
2IFC,42,0,42,0,9.1,-1,correct answer,0.434130100068,False,True,stimulusWOAN27_2IFC_2019_Jun_12_1505_535,stimulusWOAN27_2IFC_2019_Jun_12_1505_536,True,2019_Jun_12_1505,2IFC,2,WOAN27,
2IFC,43,0,43,0,5.8,-1,correct answer,0.400467599975,True,False,stimulusWOAN27_2IFC_2019_Jun_12_1505_537,stimulusWOAN27_2IFC_2019_Jun_12_1505_538,True,2019_Jun_12_1505,2IFC,2,WOAN27,
2IFC,44,0,44,0,12.4,-1,correct answer,0.43391770008,False,True,stimulusWOAN27_2IFC_2019_Jun_12_1505_539,stimulusWOAN27_2IFC_2019_Jun_12_1505_540,True,2019_Jun_12_1505,2IFC,2,WOAN27,
2IFC,45,0,45,0,9.1,-1,correct answer,0.367859699996,False,True,stimulusWOAN27_2IFC_2019_Jun_12_1505_541,stimulusWOAN27_2IFC_2019_Jun_12_1505_542,True,2019_Jun_12_1505,2IFC,2,WOAN27,
2IFC,46,0,46,0,10.7,-1,correct answer,0.499402299989,False,True,stimulusWOAN27_2IFC_2019_Jun_12_1505_543,stimulusWOAN27_2IFC_2019_Jun_12_1505_544,True,2019_Jun_12_1505,2IFC,2,WOAN27,
2IFC,47,0,47,0,14.3,-1,wrong answer,0.500508999918,False,True,stimulusWOAN27_2IFC_2019_Jun_12_1505_545,stimulusWOAN27_2IFC_2019_Jun_12_1505_546,True,2019_Jun_12_1505,2IFC,2,WOAN27,
2IFC,48,0,48,0,5.8,-1,no answer,-1,False,True,stimulusWOAN27_2IFC_2019_Jun_12_1505_547,stimulusWOAN27_2IFC_2019_Jun_12_1505_548,True,2019_Jun_12_1505,2IFC,2,WOAN27,
2IFC,49,0,49,0,12.4,-1,correct answer,0.700262499973,False,True,stimulusWOAN27_2IFC_2019_Jun_12_1505_549,stimulusWOAN27_2IFC_2019_Jun_12_1505_550,True,2019_Jun_12_1505,2IFC,2,WOAN27,
2IFC,50,0,50,0,9.1,-1,wrong answer,0.567220899975,True,False,stimulusWOAN27_2IFC_2019_Jun_12_1505_551,stimulusWOAN27_2IFC_2019_Jun_12_1505_552,True,2019_Jun_12_1505,2IFC,2,WOAN27,
2IFC,51,0,51,0,7.5,-1,correct answer,0.568057999946,True,False,stimulusWOAN27_2IFC_2019_Jun_12_1505_553,stimulusWOAN27_2IFC_2019_Jun_12_1505_554,True,2019_Jun_12_1505,2IFC,2,WOAN27,
2IFC,52,0,52,0,9.1,-1,no answer,-1,True,False,stimulusWOAN27_2IFC_2019_Jun_12_1505_555,stimulusWOAN27_2IFC_2019_Jun_12_1505_556,True,2019_Jun_12_1505,2IFC,2,WOAN27,
2IFC,53,0,53,0,3.8,-1,wrong answer,0.500823299866,True,False,stimulusWOAN27_2IFC_2019_Jun_12_1505_557,stimulusWOAN27_2IFC_2019_Jun_12_1505_558,True,2019_Jun_12_1505,2IFC,2,WOAN27,
2IFC,54,0,54,0,3.8,-1,no answer,-1,False,True,stimulusWOAN27_2IFC_2019_Jun_12_1505_559,stimulusWOAN27_2IFC_2019_Jun_12_1505_560,True,2019_Jun_12_1505,2IFC,2,WOAN27,
2IFC,55,0,55,0,14.3,-1,wrong answer,0.30103429989,False,True,stimulusWOAN27_2IFC_2019_Jun_12_1505_561,stimulusWOAN27_2IFC_2019_Jun_12_1505_562,True,2019_Jun_12_1505,2IFC,2,WOAN27,
2IFC,56,0,56,0,3.8,-1,correct answer,0.734538899967,False,True,stimulusWOAN27_2IFC_2019_Jun_12_1505_563,stimulusWOAN27_2IFC_2019_Jun_12_1505_564,True,2019_Jun_12_1505,2IFC,2,WOAN27,
2IFC,57,0,57,0,10.7,-1,wrong answer,0.166951199993,True,False,stimulusWOAN27_2IFC_2019_Jun_12_1505_565,stimulusWOAN27_2IFC_2019_Jun_12_1505_566,True,2019_Jun_12_1505,2IFC,2,WOAN27,
2IFC,58,0,58,0,1.4,-1,wrong answer,0.700022100005,False,True,stimulusWOAN27_2IFC_2019_Jun_12_1505_567,stimulusWOAN27_2IFC_2019_Jun_12_1505_568,True,2019_Jun_12_1505,2IFC,2,WOAN27,
2IFC,59,0,59,0,9.1,-1,wrong answer,0.668816500111,True,False,stimulusWOAN27_2IFC_2019_Jun_12_1505_569,stimulusWOAN27_2IFC_2019_Jun_12_1505_570,True,2019_Jun_12_1505,2IFC,2,WOAN27,
2IFC,60,0,60,0,9.1,-1,correct answer,0.533287100028,False,True,stimulusWOAN27_2IFC_2019_Jun_12_1505_571,stimulusWOAN27_2IFC_2019_Jun_12_1505_572,True,2019_Jun_12_1505,2IFC,2,WOAN27,
2IFC,61,0,61,0,7.5,-1,correct answer,0.366978599923,True,False,stimulusWOAN27_2IFC_2019_Jun_12_1505_573,stimulusWOAN27_2IFC_2019_Jun_12_1505_574,True,2019_Jun_12_1505,2IFC,2,WOAN27,
2IFC,62,0,62,0,3.8,-1,correct answer,0.500732999993,False,True,stimulusWOAN27_2IFC_2019_Jun_12_1505_575,stimulusWOAN27_2IFC_2019_Jun_12_1505_576,True,2019_Jun_12_1505,2IFC,2,WOAN27,
2IFC,63,0,63,0,12.4,-1,wrong answer,0.667174100177,True,False,stimulusWOAN27_2IFC_2019_Jun_12_1505_577,stimulusWOAN27_2IFC_2019_Jun_12_1505_578,True,2019_Jun_12_1505,2IFC,2,WOAN27,
2IFC,64,0,64,0,10.7,-1,correct answer,0.333472100087,False,True,stimulusWOAN27_2IFC_2019_Jun_12_1505_579,stimulusWOAN27_2IFC_2019_Jun_12_1505_580,True,2019_Jun_12_1505,2IFC,2,WOAN27,
2IFC,65,0,65,0,7.5,-1,wrong answer,0.567433200078,True,False,stimulusWOAN27_2IFC_2019_Jun_12_1505_581,stimulusWOAN27_2IFC_2019_Jun_12_1505_582,True,2019_Jun_12_1505,2IFC,2,WOAN27,
2IFC,66,0,66,0,14.3,-1,correct answer,0.367446299875,True,False,stimulusWOAN27_2IFC_2019_Jun_12_1505_583,stimulusWOAN27_2IFC_2019_Jun_12_1505_584,True,2019_Jun_12_1505,2IFC,2,WOAN27,
2IFC,67,0,67,0,7.5,-1,correct answer,0.632850399939,True,False,stimulusWOAN27_2IFC_2019_Jun_12_1505_585,stimulusWOAN27_2IFC_2019_Jun_12_1505_586,True,2019_Jun_12_1505,2IFC,2,WOAN27,
2IFC,68,0,68,0,1.4,-1,wrong answer,0.534213099862,False,True,stimulusWOAN27_2IFC_2019_Jun_12_1505_587,stimulusWOAN27_2IFC_2019_Jun_12_1505_588,True,2019_Jun_12_1505,2IFC,2,WOAN27,
2IFC,69,0,69,0,5.8,-1,wrong answer,0.600818299921,True,False,stimulusWOAN27_2IFC_2019_Jun_12_1505_589,stimulusWOAN27_2IFC_2019_Jun_12_1505_590,True,2019_Jun_12_1505,2IFC,2,WOAN27,
2IFC,70,0,70,0,14.3,-1,wrong answer,0.400475700153,False,True,stimulusWOAN27_2IFC_2019_Jun_12_1505_591,stimulusWOAN27_2IFC_2019_Jun_12_1505_592,True,2019_Jun_12_1505,2IFC,2,WOAN27,
2IFC,71,0,71,0,7.5,-1,correct answer,0.765880799852,False,True,stimulusWOAN27_2IFC_2019_Jun_12_1505_593,stimulusWOAN27_2IFC_2019_Jun_12_1505_594,True,2019_Jun_12_1505,2IFC,2,WOAN27,
2IFC,72,0,72,0,3.8,-1,correct answer,0.568108099978,True,False,stimulusWOAN27_2IFC_2019_Jun_12_1505_595,stimulusWOAN27_2IFC_2019_Jun_12_1505_596,True,2019_Jun_12_1505,2IFC,2,WOAN27,
2IFC,73,0,73,0,9.1,-1,correct answer,0.767472899985,True,False,stimulusWOAN27_2IFC_2019_Jun_12_1505_597,stimulusWOAN27_2IFC_2019_Jun_12_1505_598,True,2019_Jun_12_1505,2IFC,2,WOAN27,
2IFC,74,0,74,0,12.4,-1,correct answer,0.334536100039,True,False,stimulusWOAN27_2IFC_2019_Jun_12_1505_599,stimulusWOAN27_2IFC_2019_Jun_12_1505_600,True,2019_Jun_12_1505,2IFC,2,WOAN27,
2IFC,0,0,0,0,1.4,-1,correct answer,0.501202299958,False,True,stimulusWOAN27_2IFC_2019_Jun_12_1505_601,stimulusWOAN27_2IFC_2019_Jun_12_1505_602,True,2019_Jun_12_1505,2IFC,2,WOAN27,
2IFC,1,0,1,0,14.3,-1,correct answer,0.536210400052,False,True,stimulusWOAN27_2IFC_2019_Jun_12_1505_603,stimulusWOAN27_2IFC_2019_Jun_12_1505_604,True,2019_Jun_12_1505,2IFC,2,WOAN27,
2IFC,2,0,2,0,10.7,-1,correct answer,0.30085,True,False,stimulusWOAN27_2IFC_2019_Jun_12_1505_605,stimulusWOAN27_2IFC_2019_Jun_12_1505_606,True,2019_Jun_12_1505,2IFC,2,WOAN27,
2IFC,3,0,3,0,12.4,-1,correct answer,0.432630999945,False,True,stimulusWOAN27_2IFC_2019_Jun_12_1505_607,stimulusWOAN27_2IFC_2019_Jun_12_1505_608,True,2019_Jun_12_1505,2IFC,2,WOAN27,
2IFC,4,0,4,0,1.4,-1,correct answer,0.634138500085,True,False,stimulusWOAN27_2IFC_2019_Jun_12_1505_609,stimulusWOAN27_2IFC_2019_Jun_12_1505_610,True,2019_Jun_12_1505,2IFC,2,WOAN27,
2IFC,5,0,5,0,5.8,-1,correct answer,0.600811699871,True,False,stimulusWOAN27_2IFC_2019_Jun_12_1505_611,stimulusWOAN27_2IFC_2019_Jun_12_1505_612,True,2019_Jun_12_1505,2IFC,2,WOAN27,
2IFC,6,0,6,0,5.8,-1,correct answer,0.667789299972,True,False,stimulusWOAN27_2IFC_2019_Jun_12_1505_613,stimulusWOAN27_2IFC_2019_Jun_12_1505_614,True,2019_Jun_12_1505,2IFC,2,WOAN27,
2IFC,7,0,7,0,10.7,-1,correct answer,0.667460900033,True,False,stimulusWOAN27_2IFC_2019_Jun_12_1505_615,stimulusWOAN27_2IFC_2019_Jun_12_1505_616,True,2019_Jun_12_1505,2IFC,2,WOAN27,
2IFC,8,0,8,0,3.8,-1,correct answer,0.300654100021,True,False,stimulusWOAN27_2IFC_2019_Jun_12_1505_617,stimulusWOAN27_2IFC_2019_Jun_12_1505_618,True,2019_Jun_12_1505,2IFC,2,WOAN27,
2IFC,9,0,9,0,7.5,-1,correct answer,0.433717400068,True,False,stimulusWOAN27_2IFC_2019_Jun_12_1505_619,stimulusWOAN27_2IFC_2019_Jun_12_1505_620,True,2019_Jun_12_1505,2IFC,2,WOAN27,
2IFC,10,0,10,0,5.8,-1,correct answer,0.401361400029,False,True,stimulusWOAN27_2IFC_2019_Jun_12_1505_621,stimulusWOAN27_2IFC_2019_Jun_12_1505_622,True,2019_Jun_12_1505,2IFC,2,WOAN27,
2IFC,11,0,11,0,14.3,-1,correct answer,0.366580500035,True,False,stimulusWOAN27_2IFC_2019_Jun_12_1505_623,stimulusWOAN27_2IFC_2019_Jun_12_1505_624,True,2019_Jun_12_1505,2IFC,2,WOAN27,
2IFC,12,0,12,0,12.4,-1,correct answer,0.36711849994,True,False,stimulusWOAN27_2IFC_2019_Jun_12_1505_625,stimulusWOAN27_2IFC_2019_Jun_12_1505_626,True,2019_Jun_12_1505,2IFC,2,WOAN27,
2IFC,13,0,13,0,7.5,-1,correct answer,0.468018699903,False,True,stimulusWOAN27_2IFC_2019_Jun_12_1505_627,stimulusWOAN27_2IFC_2019_Jun_12_1505_628,True,2019_Jun_12_1505,2IFC,2,WOAN27,
2IFC,14,0,14,0,1.4,-1,wrong answer,0.533903199947,True,False,stimulusWOAN27_2IFC_2019_Jun_12_1505_629,stimulusWOAN27_2IFC_2019_Jun_12_1505_630,True,2019_Jun_12_1505,2IFC,2,WOAN27,
2IFC,15,0,15,0,7.5,-1,wrong answer,0.399636900052,True,False,stimulusWOAN27_2IFC_2019_Jun_12_1505_631,stimulusWOAN27_2IFC_2019_Jun_12_1505_632,True,2019_Jun_12_1505,2IFC,2,WOAN27,
2IFC,16,0,16,0,5.8,-1,wrong answer,0.534130700165,False,True,stimulusWOAN27_2IFC_2019_Jun_12_1505_633,stimulusWOAN27_2IFC_2019_Jun_12_1505_634,True,2019_Jun_12_1505,2IFC,2,WOAN27,
2IFC,17,0,17,0,10.7,-1,correct answer,0.300639299909,True,False,stimulusWOAN27_2IFC_2019_Jun_12_1505_635,stimulusWOAN27_2IFC_2019_Jun_12_1505_636,True,2019_Jun_12_1505,2IFC,2,WOAN27,
2IFC,18,0,18,0,3.8,-1,wrong answer,0.600526499795,True,False,stimulusWOAN27_2IFC_2019_Jun_12_1505_637,stimulusWOAN27_2IFC_2019_Jun_12_1505_638,True,2019_Jun_12_1505,2IFC,2,WOAN27,
2IFC,19,0,19,0,10.7,-1,correct answer,0.333835100057,True,False,stimulusWOAN27_2IFC_2019_Jun_12_1505_639,stimulusWOAN27_2IFC_2019_Jun_12_1505_640,True,2019_Jun_12_1505,2IFC,2,WOAN27,
2IFC,20,0,20,0,5.8,-1,correct answer,0.567800999852,False,True,stimulusWOAN27_2IFC_2019_Jun_12_1505_641,stimulusWOAN27_2IFC_2019_Jun_12_1505_642,True,2019_Jun_12_1505,2IFC,2,WOAN27,
2IFC,21,0,21,0,7.5,-1,correct answer,0.499475399964,True,False,stimulusWOAN27_2IFC_2019_Jun_12_1505_643,stimulusWOAN27_2IFC_2019_Jun_12_1505_644,True,2019_Jun_12_1505,2IFC,2,WOAN27,
2IFC,22,0,22,0,5.8,-1,correct answer,0.370364699978,True,False,stimulusWOAN27_2IFC_2019_Jun_12_1505_645,stimulusWOAN27_2IFC_2019_Jun_12_1505_646,True,2019_Jun_12_1505,2IFC,2,WOAN27,
2IFC,23,0,23,0,1.4,-1,wrong answer,0.76726610004,True,False,stimulusWOAN27_2IFC_2019_Jun_12_1505_647,stimulusWOAN27_2IFC_2019_Jun_12_1505_648,True,2019_Jun_12_1505,2IFC,2,WOAN27,
2IFC,24,0,24,0,5.8,-1,correct answer,0.534006200032,False,True,stimulusWOAN27_2IFC_2019_Jun_12_1505_649,stimulusWOAN27_2IFC_2019_Jun_12_1505_650,True,2019_Jun_12_1505,2IFC,2,WOAN27,
2IFC,25,0,25,0,14.3,-1,correct answer,0.333631000016,True,False,stimulusWOAN27_2IFC_2019_Jun_12_1505_651,stimulusWOAN27_2IFC_2019_Jun_12_1505_652,True,2019_Jun_12_1505,2IFC,2,WOAN27,
2IFC,26,0,26,0,9.1,-1,correct answer,0.36682190001,True,False,stimulusWOAN27_2IFC_2019_Jun_12_1505_653,stimulusWOAN27_2IFC_2019_Jun_12_1505_654,True,2019_Jun_12_1505,2IFC,2,WOAN27,
2IFC,27,0,27,0,1.4,-1,wrong answer,0.633578200126,True,False,stimulusWOAN27_2IFC_2019_Jun_12_1505_655,stimulusWOAN27_2IFC_2019_Jun_12_1505_656,True,2019_Jun_12_1505,2IFC,2,WOAN27,
2IFC,28,0,28,0,9.1,-1,correct answer,0.534068099922,False,True,stimulusWOAN27_2IFC_2019_Jun_12_1505_657,stimulusWOAN27_2IFC_2019_Jun_12_1505_658,True,2019_Jun_12_1505,2IFC,2,WOAN27,
2IFC,29,0,29,0,5.8,-1,correct answer,0.400586799951,False,True,stimulusWOAN27_2IFC_2019_Jun_12_1505_659,stimulusWOAN27_2IFC_2019_Jun_12_1505_660,True,2019_Jun_12_1505,2IFC,2,WOAN27,
2IFC,30,0,30,0,10.7,-1,correct answer,0.401693500113,True,False,stimulusWOAN27_2IFC_2019_Jun_12_1505_661,stimulusWOAN27_2IFC_2019_Jun_12_1505_662,True,2019_Jun_12_1505,2IFC,2,WOAN27,
2IFC,31,0,31,0,14.3,-1,correct answer,0.334057,True,False,stimulusWOAN27_2IFC_2019_Jun_12_1505_663,stimulusWOAN27_2IFC_2019_Jun_12_1505_664,True,2019_Jun_12_1505,2IFC,2,WOAN27,
2IFC,32,0,32,0,14.3,-1,correct answer,0.367580699967,True,False,stimulusWOAN27_2IFC_2019_Jun_12_1505_665,stimulusWOAN27_2IFC_2019_Jun_12_1505_666,True,2019_Jun_12_1505,2IFC,2,WOAN27,
2IFC,33,0,33,0,14.3,-1,correct answer,0.334202900063,True,False,stimulusWOAN27_2IFC_2019_Jun_12_1505_667,stimulusWOAN27_2IFC_2019_Jun_12_1505_668,True,2019_Jun_12_1505,2IFC,2,WOAN27,
2IFC,34,0,34,0,5.8,-1,correct answer,0.466980600031,False,True,stimulusWOAN27_2IFC_2019_Jun_12_1505_669,stimulusWOAN27_2IFC_2019_Jun_12_1505_670,True,2019_Jun_12_1505,2IFC,2,WOAN27,
2IFC,35,0,35,0,12.4,-1,wrong answer,0.400740100071,False,True,stimulusWOAN27_2IFC_2019_Jun_12_1505_671,stimulusWOAN27_2IFC_2019_Jun_12_1505_672,True,2019_Jun_12_1505,2IFC,2,WOAN27,
2IFC,36,0,36,0,1.4,-1,wrong answer,0.767651800066,True,False,stimulusWOAN27_2IFC_2019_Jun_12_1505_673,stimulusWOAN27_2IFC_2019_Jun_12_1505_674,True,2019_Jun_12_1505,2IFC,2,WOAN27,
2IFC,37,0,37,0,12.4,-1,correct answer,0.36747399997,True,False,stimulusWOAN27_2IFC_2019_Jun_12_1505_675,stimulusWOAN27_2IFC_2019_Jun_12_1505_676,True,2019_Jun_12_1505,2IFC,2,WOAN27,
2IFC,38,0,38,0,7.5,-1,correct answer,0.366442299914,False,True,stimulusWOAN27_2IFC_2019_Jun_12_1505_677,stimulusWOAN27_2IFC_2019_Jun_12_1505_678,True,2019_Jun_12_1505,2IFC,2,WOAN27,
2IFC,39,0,39,0,14.3,-1,correct answer,0.367533399956,True,False,stimulusWOAN27_2IFC_2019_Jun_12_1505_679,stimulusWOAN27_2IFC_2019_Jun_12_1505_680,True,2019_Jun_12_1505,2IFC,2,WOAN27,
2IFC,40,0,40,0,1.4,-1,wrong answer,0.467001100071,True,False,stimulusWOAN27_2IFC_2019_Jun_12_1505_681,stimulusWOAN27_2IFC_2019_Jun_12_1505_682,True,2019_Jun_12_1505,2IFC,2,WOAN27,
2IFC,41,0,41,0,9.1,-1,correct answer,0.433974999934,True,False,stimulusWOAN27_2IFC_2019_Jun_12_1505_683,stimulusWOAN27_2IFC_2019_Jun_12_1505_684,True,2019_Jun_12_1505,2IFC,2,WOAN27,
2IFC,42,0,42,0,12.4,-1,correct answer,0.301128899911,True,False,stimulusWOAN27_2IFC_2019_Jun_12_1505_685,stimulusWOAN27_2IFC_2019_Jun_12_1505_686,True,2019_Jun_12_1505,2IFC,2,WOAN27,
2IFC,43,0,43,0,5.8,-1,correct answer,0.567384999944,False,True,stimulusWOAN27_2IFC_2019_Jun_12_1505_687,stimulusWOAN27_2IFC_2019_Jun_12_1505_688,True,2019_Jun_12_1505,2IFC,2,WOAN27,
2IFC,44,0,44,0,5.8,-1,correct answer,0.434315300081,True,False,stimulusWOAN27_2IFC_2019_Jun_12_1505_689,stimulusWOAN27_2IFC_2019_Jun_12_1505_690,True,2019_Jun_12_1505,2IFC,2,WOAN27,
2IFC,45,0,45,0,14.3,-1,correct answer,0.600495900027,False,True,stimulusWOAN27_2IFC_2019_Jun_12_1505_691,stimulusWOAN27_2IFC_2019_Jun_12_1505_692,True,2019_Jun_12_1505,2IFC,2,WOAN27,
2IFC,46,0,46,0,5.8,-1,wrong answer,0.500767099904,False,True,stimulusWOAN27_2IFC_2019_Jun_12_1505_693,stimulusWOAN27_2IFC_2019_Jun_12_1505_694,True,2019_Jun_12_1505,2IFC,2,WOAN27,
2IFC,47,0,47,0,9.1,-1,correct answer,0.432906900067,False,True,stimulusWOAN27_2IFC_2019_Jun_12_1505_695,stimulusWOAN27_2IFC_2019_Jun_12_1505_696,True,2019_Jun_12_1505,2IFC,2,WOAN27,
2IFC,48,0,48,0,9.1,-1,correct answer,0.369344800012,True,False,stimulusWOAN27_2IFC_2019_Jun_12_1505_697,stimulusWOAN27_2IFC_2019_Jun_12_1505_698,True,2019_Jun_12_1505,2IFC,2,WOAN27,
2IFC,49,0,49,0,1.4,-1,correct answer,0.43387219985,False,True,stimulusWOAN27_2IFC_2019_Jun_12_1505_699,stimulusWOAN27_2IFC_2019_Jun_12_1505_700,True,2019_Jun_12_1505,2IFC,2,WOAN27,
2IFC,50,0,50,0,5.8,-1,correct answer,0.433795599965,False,True,stimulusWOAN27_2IFC_2019_Jun_12_1505_701,stimulusWOAN27_2IFC_2019_Jun_12_1505_702,True,2019_Jun_12_1505,2IFC,2,WOAN27,
2IFC,51,0,51,0,5.8,-1,wrong answer,0.467188799987,True,False,stimulusWOAN27_2IFC_2019_Jun_12_1505_703,stimulusWOAN27_2IFC_2019_Jun_12_1505_704,True,2019_Jun_12_1505,2IFC,2,WOAN27,
2IFC,52,0,52,0,3.8,-1,correct answer,0.566847899929,True,False,stimulusWOAN27_2IFC_2019_Jun_12_1505_705,stimulusWOAN27_2IFC_2019_Jun_12_1505_706,True,2019_Jun_12_1505,2IFC,2,WOAN27,
2IFC,53,0,53,0,3.8,-1,correct answer,0.500798600027,False,True,stimulusWOAN27_2IFC_2019_Jun_12_1505_707,stimulusWOAN27_2IFC_2019_Jun_12_1505_708,True,2019_Jun_12_1505,2IFC,2,WOAN27,
2IFC,54,0,54,0,7.5,-1,correct answer,0.400112499949,True,False,stimulusWOAN27_2IFC_2019_Jun_12_1505_709,stimulusWOAN27_2IFC_2019_Jun_12_1505_710,True,2019_Jun_12_1505,2IFC,2,WOAN27,
2IFC,55,0,55,0,10.7,-1,wrong answer,0.633898200002,False,True,stimulusWOAN27_2IFC_2019_Jun_12_1505_711,stimulusWOAN27_2IFC_2019_Jun_12_1505_712,True,2019_Jun_12_1505,2IFC,2,WOAN27,
2IFC,56,0,56,0,1.4,-1,wrong answer,0.600668800063,True,False,stimulusWOAN27_2IFC_2019_Jun_12_1505_713,stimulusWOAN27_2IFC_2019_Jun_12_1505_714,True,2019_Jun_12_1505,2IFC,2,WOAN27,
2IFC,57,0,57,0,1.4,-1,wrong answer,0.501174199861,True,False,stimulusWOAN27_2IFC_2019_Jun_12_1505_715,stimulusWOAN27_2IFC_2019_Jun_12_1505_716,True,2019_Jun_12_1505,2IFC,2,WOAN27,
2IFC,58,0,58,0,1.4,-1,correct answer,0.601148699876,False,True,stimulusWOAN27_2IFC_2019_Jun_12_1505_717,stimulusWOAN27_2IFC_2019_Jun_12_1505_718,True,2019_Jun_12_1505,2IFC,2,WOAN27,
2IFC,59,0,59,0,14.3,-1,correct answer,0.333440399962,True,False,stimulusWOAN27_2IFC_2019_Jun_12_1505_719,stimulusWOAN27_2IFC_2019_Jun_12_1505_720,True,2019_Jun_12_1505,2IFC,2,WOAN27,
2IFC,60,0,60,0,1.4,-1,correct answer,0.633301199879,True,False,stimulusWOAN27_2IFC_2019_Jun_12_1505_721,stimulusWOAN27_2IFC_2019_Jun_12_1505_722,True,2019_Jun_12_1505,2IFC,2,WOAN27,
2IFC,61,0,61,0,10.7,-1,correct answer,0.400745100109,True,False,stimulusWOAN27_2IFC_2019_Jun_12_1505_723,stimulusWOAN27_2IFC_2019_Jun_12_1505_724,True,2019_Jun_12_1505,2IFC,2,WOAN27,
2IFC,62,0,62,0,1.4,-1,correct answer,0.634670699947,False,True,stimulusWOAN27_2IFC_2019_Jun_12_1505_725,stimulusWOAN27_2IFC_2019_Jun_12_1505_726,True,2019_Jun_12_1505,2IFC,2,WOAN27,
2IFC,63,0,63,0,12.4,-1,correct answer,0.467341399984,False,True,stimulusWOAN27_2IFC_2019_Jun_12_1505_727,stimulusWOAN27_2IFC_2019_Jun_12_1505_728,True,2019_Jun_12_1505,2IFC,2,WOAN27,
2IFC,64,0,64,0,3.8,-1,correct answer,0.502327900147,False,True,stimulusWOAN27_2IFC_2019_Jun_12_1505_729,stimulusWOAN27_2IFC_2019_Jun_12_1505_730,True,2019_Jun_12_1505,2IFC,2,WOAN27,
2IFC,65,0,65,0,10.7,-1,correct answer,0.567272400018,False,True,stimulusWOAN27_2IFC_2019_Jun_12_1505_731,stimulusWOAN27_2IFC_2019_Jun_12_1505_732,True,2019_Jun_12_1505,2IFC,2,WOAN27,
2IFC,66,0,66,0,5.8,-1,wrong answer,0.499968700111,True,False,stimulusWOAN27_2IFC_2019_Jun_12_1505_733,stimulusWOAN27_2IFC_2019_Jun_12_1505_734,True,2019_Jun_12_1505,2IFC,2,WOAN27,
2IFC,67,0,67,0,1.4,-1,correct answer,0.634207000025,False,True,stimulusWOAN27_2IFC_2019_Jun_12_1505_735,stimulusWOAN27_2IFC_2019_Jun_12_1505_736,True,2019_Jun_12_1505,2IFC,2,WOAN27,
2IFC,68,0,68,0,3.8,-1,wrong answer,0.601003099931,False,True,stimulusWOAN27_2IFC_2019_Jun_12_1505_737,stimulusWOAN27_2IFC_2019_Jun_12_1505_738,True,2019_Jun_12_1505,2IFC,2,WOAN27,
2IFC,69,0,69,0,1.4,-1,correct answer,0.600085999817,False,True,stimulusWOAN27_2IFC_2019_Jun_12_1505_739,stimulusWOAN27_2IFC_2019_Jun_12_1505_740,True,2019_Jun_12_1505,2IFC,2,WOAN27,
2IFC,70,0,70,0,1.4,-1,correct answer,0.400748800021,True,False,stimulusWOAN27_2IFC_2019_Jun_12_1505_741,stimulusWOAN27_2IFC_2019_Jun_12_1505_742,True,2019_Jun_12_1505,2IFC,2,WOAN27,
2IFC,71,0,71,0,14.3,-1,correct answer,0.33387169987,False,True,stimulusWOAN27_2IFC_2019_Jun_12_1505_743,stimulusWOAN27_2IFC_2019_Jun_12_1505_744,True,2019_Jun_12_1505,2IFC,2,WOAN27,
2IFC,72,0,72,0,12.4,-1,correct answer,0.267287099967,True,False,stimulusWOAN27_2IFC_2019_Jun_12_1505_745,stimulusWOAN27_2IFC_2019_Jun_12_1505_746,True,2019_Jun_12_1505,2IFC,2,WOAN27,
2IFC,73,0,73,0,7.5,-1,wrong answer,0.568003399996,True,False,stimulusWOAN27_2IFC_2019_Jun_12_1505_747,stimulusWOAN27_2IFC_2019_Jun_12_1505_748,True,2019_Jun_12_1505,2IFC,2,WOAN27,
2IFC,74,0,74,0,9.1,-1,correct answer,0.767883100081,False,True,stimulusWOAN27_2IFC_2019_Jun_12_1505_749,stimulusWOAN27_2IFC_2019_Jun_12_1505_750,True,2019_Jun_12_1505,2IFC,2,WOAN27,
2IFC,0,0,0,0,7.5,-1,wrong answer,0.734022799879,False,True,stimulusWOAN27_2IFC_2019_Jun_12_1505_751,stimulusWOAN27_2IFC_2019_Jun_12_1505_752,True,2019_Jun_12_1505,2IFC,2,WOAN27,
2IFC,1,0,1,0,5.8,-1,wrong answer,0.567437999882,True,False,stimulusWOAN27_2IFC_2019_Jun_12_1505_753,stimulusWOAN27_2IFC_2019_Jun_12_1505_754,True,2019_Jun_12_1505,2IFC,2,WOAN27,
2IFC,2,0,2,0,7.5,-1,correct answer,0.601454300107,True,False,stimulusWOAN27_2IFC_2019_Jun_12_1505_755,stimulusWOAN27_2IFC_2019_Jun_12_1505_756,True,2019_Jun_12_1505,2IFC,2,WOAN27,
2IFC,3,0,3,0,1.4,-1,wrong answer,0.466934199911,True,False,stimulusWOAN27_2IFC_2019_Jun_12_1505_757,stimulusWOAN27_2IFC_2019_Jun_12_1505_758,True,2019_Jun_12_1505,2IFC,2,WOAN27,
2IFC,4,0,4,0,5.8,-1,correct answer,0.53362890007,False,True,stimulusWOAN27_2IFC_2019_Jun_12_1505_759,stimulusWOAN27_2IFC_2019_Jun_12_1505_760,True,2019_Jun_12_1505,2IFC,2,WOAN27,
2IFC,5,0,5,0,14.3,-1,correct answer,0.300538300071,True,False,stimulusWOAN27_2IFC_2019_Jun_12_1505_761,stimulusWOAN27_2IFC_2019_Jun_12_1505_762,True,2019_Jun_12_1505,2IFC,2,WOAN27,
2IFC,6,0,6,0,9.1,-1,correct answer,0.333925599931,True,False,stimulusWOAN27_2IFC_2019_Jun_12_1505_763,stimulusWOAN27_2IFC_2019_Jun_12_1505_764,True,2019_Jun_12_1505,2IFC,2,WOAN27,
2IFC,7,0,7,0,1.4,-1,correct answer,0.500198900001,False,True,stimulusWOAN27_2IFC_2019_Jun_12_1505_765,stimulusWOAN27_2IFC_2019_Jun_12_1505_766,True,2019_Jun_12_1505,2IFC,2,WOAN27,
2IFC,8,0,8,0,3.8,-1,wrong answer,0.333736399887,True,False,stimulusWOAN27_2IFC_2019_Jun_12_1505_767,stimulusWOAN27_2IFC_2019_Jun_12_1505_768,True,2019_Jun_12_1505,2IFC,2,WOAN27,
2IFC,9,0,9,0,7.5,-1,correct answer,0.367018199991,True,False,stimulusWOAN27_2IFC_2019_Jun_12_1505_769,stimulusWOAN27_2IFC_2019_Jun_12_1505_770,True,2019_Jun_12_1505,2IFC,2,WOAN27,
2IFC,10,0,10,0,7.5,-1,correct answer,0.364880000008,True,False,stimulusWOAN27_2IFC_2019_Jun_12_1505_771,stimulusWOAN27_2IFC_2019_Jun_12_1505_772,True,2019_Jun_12_1505,2IFC,2,WOAN27,
2IFC,11,0,11,0,5.8,-1,wrong answer,0.701003999915,True,False,stimulusWOAN27_2IFC_2019_Jun_12_1505_773,stimulusWOAN27_2IFC_2019_Jun_12_1505_774,True,2019_Jun_12_1505,2IFC,2,WOAN27,
2IFC,12,0,12,0,7.5,-1,wrong answer,0.533158099977,True,False,stimulusWOAN27_2IFC_2019_Jun_12_1505_775,stimulusWOAN27_2IFC_2019_Jun_12_1505_776,True,2019_Jun_12_1505,2IFC,2,WOAN27,
2IFC,13,0,13,0,9.1,-1,no answer,-1,False,True,stimulusWOAN27_2IFC_2019_Jun_12_1505_777,stimulusWOAN27_2IFC_2019_Jun_12_1505_778,True,2019_Jun_12_1505,2IFC,2,WOAN27,
2IFC,14,0,14,0,12.4,-1,correct answer,0.766358699882,False,True,stimulusWOAN27_2IFC_2019_Jun_12_1505_779,stimulusWOAN27_2IFC_2019_Jun_12_1505_780,True,2019_Jun_12_1505,2IFC,2,WOAN27,
2IFC,15,0,15,0,14.3,-1,correct answer,0.433261399856,True,False,stimulusWOAN27_2IFC_2019_Jun_12_1505_781,stimulusWOAN27_2IFC_2019_Jun_12_1505_782,True,2019_Jun_12_1505,2IFC,2,WOAN27,
2IFC,16,0,16,0,3.8,-1,correct answer,0.435498800129,False,True,stimulusWOAN27_2IFC_2019_Jun_12_1505_783,stimulusWOAN27_2IFC_2019_Jun_12_1505_784,True,2019_Jun_12_1505,2IFC,2,WOAN27,
2IFC,17,0,17,0,5.8,-1,wrong answer,0.435411100043,True,False,stimulusWOAN27_2IFC_2019_Jun_12_1505_785,stimulusWOAN27_2IFC_2019_Jun_12_1505_786,True,2019_Jun_12_1505,2IFC,2,WOAN27,
2IFC,18,0,18,0,3.8,-1,correct answer,0.535149000119,True,False,stimulusWOAN27_2IFC_2019_Jun_12_1505_787,stimulusWOAN27_2IFC_2019_Jun_12_1505_788,True,2019_Jun_12_1505,2IFC,2,WOAN27,
2IFC,19,0,19,0,12.4,-1,correct answer,0.332829799969,True,False,stimulusWOAN27_2IFC_2019_Jun_12_1505_789,stimulusWOAN27_2IFC_2019_Jun_12_1505_790,True,2019_Jun_12_1505,2IFC,2,WOAN27,
2IFC,20,0,20,0,9.1,-1,correct answer,0.367556199897,True,False,stimulusWOAN27_2IFC_2019_Jun_12_1505_791,stimulusWOAN27_2IFC_2019_Jun_12_1505_792,True,2019_Jun_12_1505,2IFC,2,WOAN27,
2IFC,21,0,21,0,9.1,-1,correct answer,0.333231099881,False,True,stimulusWOAN27_2IFC_2019_Jun_12_1505_793,stimulusWOAN27_2IFC_2019_Jun_12_1505_794,True,2019_Jun_12_1505,2IFC,2,WOAN27,
2IFC,22,0,22,0,1.4,-1,wrong answer,0.33390019997,False,True,stimulusWOAN27_2IFC_2019_Jun_12_1505_795,stimulusWOAN27_2IFC_2019_Jun_12_1505_796,True,2019_Jun_12_1505,2IFC,2,WOAN27,
2IFC,23,0,23,0,12.4,-1,correct answer,0.366378000006,True,False,stimulusWOAN27_2IFC_2019_Jun_12_1505_797,stimulusWOAN27_2IFC_2019_Jun_12_1505_798,True,2019_Jun_12_1505,2IFC,2,WOAN27,
2IFC,24,0,24,0,14.3,-1,correct answer,0.567405699985,False,True,stimulusWOAN27_2IFC_2019_Jun_12_1505_799,stimulusWOAN27_2IFC_2019_Jun_12_1505_800,True,2019_Jun_12_1505,2IFC,2,WOAN27,
2IFC,25,0,25,0,1.4,-1,wrong answer,0.834301199997,True,False,stimulusWOAN27_2IFC_2019_Jun_12_1505_801,stimulusWOAN27_2IFC_2019_Jun_12_1505_802,True,2019_Jun_12_1505,2IFC,2,WOAN27,
2IFC,26,0,26,0,7.5,-1,correct answer,0.434191700071,True,False,stimulusWOAN27_2IFC_2019_Jun_12_1505_803,stimulusWOAN27_2IFC_2019_Jun_12_1505_804,True,2019_Jun_12_1505,2IFC,2,WOAN27,
2IFC,27,0,27,0,5.8,-1,correct answer,0.634499799926,True,False,stimulusWOAN27_2IFC_2019_Jun_12_1505_805,stimulusWOAN27_2IFC_2019_Jun_12_1505_806,True,2019_Jun_12_1505,2IFC,2,WOAN27,
2IFC,28,0,28,0,3.8,-1,correct answer,0.63289160002,False,True,stimulusWOAN27_2IFC_2019_Jun_12_1505_807,stimulusWOAN27_2IFC_2019_Jun_12_1505_808,True,2019_Jun_12_1505,2IFC,2,WOAN27,
2IFC,29,0,29,0,1.4,-1,wrong answer,0.534287700197,True,False,stimulusWOAN27_2IFC_2019_Jun_12_1505_809,stimulusWOAN27_2IFC_2019_Jun_12_1505_810,True,2019_Jun_12_1505,2IFC,2,WOAN27,
2IFC,30,0,30,0,5.8,-1,wrong answer,0.601647600066,True,False,stimulusWOAN27_2IFC_2019_Jun_12_1505_811,stimulusWOAN27_2IFC_2019_Jun_12_1505_812,True,2019_Jun_12_1505,2IFC,2,WOAN27,
2IFC,31,0,31,0,5.8,-1,wrong answer,0.467341900105,True,False,stimulusWOAN27_2IFC_2019_Jun_12_1505_813,stimulusWOAN27_2IFC_2019_Jun_12_1505_814,True,2019_Jun_12_1505,2IFC,2,WOAN27,
2IFC,32,0,32,0,3.8,-1,correct answer,0.534141900018,False,True,stimulusWOAN27_2IFC_2019_Jun_12_1505_815,stimulusWOAN27_2IFC_2019_Jun_12_1505_816,True,2019_Jun_12_1505,2IFC,2,WOAN27,
2IFC,33,0,33,0,3.8,-1,correct answer,0.768926100107,False,True,stimulusWOAN27_2IFC_2019_Jun_12_1505_817,stimulusWOAN27_2IFC_2019_Jun_12_1505_818,True,2019_Jun_12_1505,2IFC,2,WOAN27,
2IFC,34,0,34,0,14.3,-1,correct answer,0.700812999858,False,True,stimulusWOAN27_2IFC_2019_Jun_12_1505_819,stimulusWOAN27_2IFC_2019_Jun_12_1505_820,True,2019_Jun_12_1505,2IFC,2,WOAN27,
2IFC,35,0,35,0,9.1,-1,correct answer,0.434042900102,False,True,stimulusWOAN27_2IFC_2019_Jun_12_1505_821,stimulusWOAN27_2IFC_2019_Jun_12_1505_822,True,2019_Jun_12_1505,2IFC,2,WOAN27,
2IFC,36,0,36,0,7.5,-1,correct answer,0.501042300137,False,True,stimulusWOAN27_2IFC_2019_Jun_12_1505_823,stimulusWOAN27_2IFC_2019_Jun_12_1505_824,True,2019_Jun_12_1505,2IFC,2,WOAN27,
2IFC,37,0,37,0,12.4,-1,correct answer,0.500445100013,False,True,stimulusWOAN27_2IFC_2019_Jun_12_1505_825,stimulusWOAN27_2IFC_2019_Jun_12_1505_826,True,2019_Jun_12_1505,2IFC,2,WOAN27,
2IFC,38,0,38,0,10.7,-1,correct answer,0.300521599827,True,False,stimulusWOAN27_2IFC_2019_Jun_12_1505_827,stimulusWOAN27_2IFC_2019_Jun_12_1505_828,True,2019_Jun_12_1505,2IFC,2,WOAN27,
2IFC,39,0,39,0,12.4,-1,correct answer,0.434324900154,False,True,stimulusWOAN27_2IFC_2019_Jun_12_1505_829,stimulusWOAN27_2IFC_2019_Jun_12_1505_830,True,2019_Jun_12_1505,2IFC,2,WOAN27,
2IFC,40,0,40,0,5.8,-1,wrong answer,0.666827599984,True,False,stimulusWOAN27_2IFC_2019_Jun_12_1505_831,stimulusWOAN27_2IFC_2019_Jun_12_1505_832,True,2019_Jun_12_1505,2IFC,2,WOAN27,
2IFC,41,0,41,0,9.1,-1,correct answer,0.367182600079,True,False,stimulusWOAN27_2IFC_2019_Jun_12_1505_833,stimulusWOAN27_2IFC_2019_Jun_12_1505_834,True,2019_Jun_12_1505,2IFC,2,WOAN27,
2IFC,42,0,42,0,7.5,-1,wrong answer,0.701263499912,False,True,stimulusWOAN27_2IFC_2019_Jun_12_1505_835,stimulusWOAN27_2IFC_2019_Jun_12_1505_836,True,2019_Jun_12_1505,2IFC,2,WOAN27,
2IFC,43,0,43,0,12.4,-1,correct answer,0.734237500001,False,True,stimulusWOAN27_2IFC_2019_Jun_12_1505_837,stimulusWOAN27_2IFC_2019_Jun_12_1505_838,True,2019_Jun_12_1505,2IFC,2,WOAN27,
2IFC,44,0,44,0,3.8,-1,wrong answer,0.700348200044,True,False,stimulusWOAN27_2IFC_2019_Jun_12_1505_839,stimulusWOAN27_2IFC_2019_Jun_12_1505_840,True,2019_Jun_12_1505,2IFC,2,WOAN27,
2IFC,45,0,45,0,7.5,-1,correct answer,0.733935000142,False,True,stimulusWOAN27_2IFC_2019_Jun_12_1505_841,stimulusWOAN27_2IFC_2019_Jun_12_1505_842,True,2019_Jun_12_1505,2IFC,2,WOAN27,
2IFC,46,0,46,0,10.7,-1,correct answer,0.300488599809,True,False,stimulusWOAN27_2IFC_2019_Jun_12_1505_843,stimulusWOAN27_2IFC_2019_Jun_12_1505_844,True,2019_Jun_12_1505,2IFC,2,WOAN27,
2IFC,47,0,47,0,5.8,-1,correct answer,0.666274399962,True,False,stimulusWOAN27_2IFC_2019_Jun_12_1505_845,stimulusWOAN27_2IFC_2019_Jun_12_1505_846,True,2019_Jun_12_1505,2IFC,2,WOAN27,
2IFC,48,0,48,0,14.3,-1,correct answer,0.332953499863,True,False,stimulusWOAN27_2IFC_2019_Jun_12_1505_847,stimulusWOAN27_2IFC_2019_Jun_12_1505_848,True,2019_Jun_12_1505,2IFC,2,WOAN27,
2IFC,49,0,49,0,3.8,-1,correct answer,0.567445999943,True,False,stimulusWOAN27_2IFC_2019_Jun_12_1505_849,stimulusWOAN27_2IFC_2019_Jun_12_1505_850,True,2019_Jun_12_1505,2IFC,2,WOAN27,
2IFC,50,0,50,0,10.7,-1,correct answer,0.534140200121,False,True,stimulusWOAN27_2IFC_2019_Jun_12_1505_851,stimulusWOAN27_2IFC_2019_Jun_12_1505_852,True,2019_Jun_12_1505,2IFC,2,WOAN27,
2IFC,51,0,51,0,10.7,-1,wrong answer,0.567658199929,False,True,stimulusWOAN27_2IFC_2019_Jun_12_1505_853,stimulusWOAN27_2IFC_2019_Jun_12_1505_854,True,2019_Jun_12_1505,2IFC,2,WOAN27,
2IFC,52,0,52,0,1.4,-1,correct answer,0.870471200207,False,True,stimulusWOAN27_2IFC_2019_Jun_12_1505_855,stimulusWOAN27_2IFC_2019_Jun_12_1505_856,True,2019_Jun_12_1505,2IFC,2,WOAN27,
2IFC,53,0,53,0,10.7,-1,correct answer,0.333760899957,True,False,stimulusWOAN27_2IFC_2019_Jun_12_1505_857,stimulusWOAN27_2IFC_2019_Jun_12_1505_858,True,2019_Jun_12_1505,2IFC,2,WOAN27,
2IFC,54,0,54,0,10.7,-1,correct answer,0.433792100055,True,False,stimulusWOAN27_2IFC_2019_Jun_12_1505_859,stimulusWOAN27_2IFC_2019_Jun_12_1505_860,True,2019_Jun_12_1505,2IFC,2,WOAN27,
2IFC,55,0,55,0,3.8,-1,correct answer,0.667423499981,False,True,stimulusWOAN27_2IFC_2019_Jun_12_1505_861,stimulusWOAN27_2IFC_2019_Jun_12_1505_862,True,2019_Jun_12_1505,2IFC,2,WOAN27,
2IFC,56,0,56,0,3.8,-1,correct answer,0.833884199848,True,False,stimulusWOAN27_2IFC_2019_Jun_12_1505_863,stimulusWOAN27_2IFC_2019_Jun_12_1505_864,True,2019_Jun_12_1505,2IFC,2,WOAN27,
2IFC,57,0,57,0,3.8,-1,correct answer,0.400850800099,False,True,stimulusWOAN27_2IFC_2019_Jun_12_1505_865,stimulusWOAN27_2IFC_2019_Jun_12_1505_866,True,2019_Jun_12_1505,2IFC,2,WOAN27,
2IFC,58,0,58,0,3.8,-1,wrong answer,0.46681750007,True,False,stimulusWOAN27_2IFC_2019_Jun_12_1505_867,stimulusWOAN27_2IFC_2019_Jun_12_1505_868,True,2019_Jun_12_1505,2IFC,2,WOAN27,
2IFC,59,0,59,0,3.8,-1,wrong answer,0.566362000071,True,False,stimulusWOAN27_2IFC_2019_Jun_12_1505_869,stimulusWOAN27_2IFC_2019_Jun_12_1505_870,True,2019_Jun_12_1505,2IFC,2,WOAN27,
2IFC,60,0,60,0,1.4,-1,wrong answer,0.500225599855,True,False,stimulusWOAN27_2IFC_2019_Jun_12_1505_871,stimulusWOAN27_2IFC_2019_Jun_12_1505_872,True,2019_Jun_12_1505,2IFC,2,WOAN27,
2IFC,61,0,61,0,7.5,-1,correct answer,0.569064999931,True,False,stimulusWOAN27_2IFC_2019_Jun_12_1505_873,stimulusWOAN27_2IFC_2019_Jun_12_1505_874,True,2019_Jun_12_1505,2IFC,2,WOAN27,
2IFC,62,0,62,0,7.5,-1,correct answer,0.600688699866,False,True,stimulusWOAN27_2IFC_2019_Jun_12_1505_875,stimulusWOAN27_2IFC_2019_Jun_12_1505_876,True,2019_Jun_12_1505,2IFC,2,WOAN27,
2IFC,63,0,63,0,12.4,-1,correct answer,0.367147800047,True,False,stimulusWOAN27_2IFC_2019_Jun_12_1505_877,stimulusWOAN27_2IFC_2019_Jun_12_1505_878,True,2019_Jun_12_1505,2IFC,2,WOAN27,
2IFC,64,0,64,0,14.3,-1,correct answer,0.500796200009,False,True,stimulusWOAN27_2IFC_2019_Jun_12_1505_879,stimulusWOAN27_2IFC_2019_Jun_12_1505_880,True,2019_Jun_12_1505,2IFC,2,WOAN27,
2IFC,65,0,65,0,10.7,-1,correct answer,0.868656300008,False,True,stimulusWOAN27_2IFC_2019_Jun_12_1505_881,stimulusWOAN27_2IFC_2019_Jun_12_1505_882,True,2019_Jun_12_1505,2IFC,2,WOAN27,
2IFC,66,0,66,0,10.7,-1,correct answer,0.667375199962,True,False,stimulusWOAN27_2IFC_2019_Jun_12_1505_883,stimulusWOAN27_2IFC_2019_Jun_12_1505_884,True,2019_Jun_12_1505,2IFC,2,WOAN27,
2IFC,67,0,67,0,12.4,-1,correct answer,0.435227799928,False,True,stimulusWOAN27_2IFC_2019_Jun_12_1505_885,stimulusWOAN27_2IFC_2019_Jun_12_1505_886,True,2019_Jun_12_1505,2IFC,2,WOAN27,
2IFC,68,0,68,0,7.5,-1,correct answer,0.4004751998,True,False,stimulusWOAN27_2IFC_2019_Jun_12_1505_887,stimulusWOAN27_2IFC_2019_Jun_12_1505_888,True,2019_Jun_12_1505,2IFC,2,WOAN27,
2IFC,69,0,69,0,1.4,-1,correct answer,0.599265599856,False,True,stimulusWOAN27_2IFC_2019_Jun_12_1505_889,stimulusWOAN27_2IFC_2019_Jun_12_1505_890,True,2019_Jun_12_1505,2IFC,2,WOAN27,
2IFC,70,0,70,0,3.8,-1,wrong answer,0.634051000001,True,False,stimulusWOAN27_2IFC_2019_Jun_12_1505_891,stimulusWOAN27_2IFC_2019_Jun_12_1505_892,True,2019_Jun_12_1505,2IFC,2,WOAN27,
2IFC,71,0,71,0,14.3,-1,correct answer,0.333896799944,True,False,stimulusWOAN27_2IFC_2019_Jun_12_1505_893,stimulusWOAN27_2IFC_2019_Jun_12_1505_894,True,2019_Jun_12_1505,2IFC,2,WOAN27,
2IFC,72,0,72,0,3.8,-1,wrong answer,0.633874699939,True,False,stimulusWOAN27_2IFC_2019_Jun_12_1505_895,stimulusWOAN27_2IFC_2019_Jun_12_1505_896,True,2019_Jun_12_1505,2IFC,2,WOAN27,
2IFC,73,0,73,0,1.4,-1,wrong answer,0.867196100065,False,True,stimulusWOAN27_2IFC_2019_Jun_12_1505_897,stimulusWOAN27_2IFC_2019_Jun_12_1505_898,True,2019_Jun_12_1505,2IFC,2,WOAN27,
2IFC,74,0,74,0,3.8,-1,correct answer,0.733740100171,False,True,stimulusWOAN27_2IFC_2019_Jun_12_1505_899,stimulusWOAN27_2IFC_2019_Jun_12_1505_900,True,2019_Jun_12_1505,2IFC,2,WOAN27,
2IFC,0,0,0,0,7.5,-1,wrong answer,0.667739200173,True,False,stimulusWOAN27_2IFC_2019_Jun_12_1505_901,stimulusWOAN27_2IFC_2019_Jun_12_1505_902,True,2019_Jun_12_1505,2IFC,2,WOAN27,
2IFC,1,0,1,0,14.3,-1,correct answer,0.301379699958,False,True,stimulusWOAN27_2IFC_2019_Jun_12_1505_903,stimulusWOAN27_2IFC_2019_Jun_12_1505_904,True,2019_Jun_12_1505,2IFC,2,WOAN27,
2IFC,2,0,2,0,9.1,-1,correct answer,0.46733109979,False,True,stimulusWOAN27_2IFC_2019_Jun_12_1505_905,stimulusWOAN27_2IFC_2019_Jun_12_1505_906,True,2019_Jun_12_1505,2IFC,2,WOAN27,
2IFC,3,0,3,0,3.8,-1,wrong answer,0.633913000114,False,True,stimulusWOAN27_2IFC_2019_Jun_12_1505_907,stimulusWOAN27_2IFC_2019_Jun_12_1505_908,True,2019_Jun_12_1505,2IFC,2,WOAN27,
2IFC,4,0,4,0,7.5,-1,wrong answer,0.433839400066,True,False,stimulusWOAN27_2IFC_2019_Jun_12_1505_909,stimulusWOAN27_2IFC_2019_Jun_12_1505_910,True,2019_Jun_12_1505,2IFC,2,WOAN27,
2IFC,5,0,5,0,1.4,-1,correct answer,0.600808900082,False,True,stimulusWOAN27_2IFC_2019_Jun_12_1505_911,stimulusWOAN27_2IFC_2019_Jun_12_1505_912,True,2019_Jun_12_1505,2IFC,2,WOAN27,
2IFC,6,0,6,0,5.8,-1,correct answer,0.600464599906,False,True,stimulusWOAN27_2IFC_2019_Jun_12_1505_913,stimulusWOAN27_2IFC_2019_Jun_12_1505_914,True,2019_Jun_12_1505,2IFC,2,WOAN27,
2IFC,7,0,7,0,5.8,-1,correct answer,0.433941900032,False,True,stimulusWOAN27_2IFC_2019_Jun_12_1505_915,stimulusWOAN27_2IFC_2019_Jun_12_1505_916,True,2019_Jun_12_1505,2IFC,2,WOAN27,
2IFC,8,0,8,0,14.3,-1,correct answer,0.400608800119,False,True,stimulusWOAN27_2IFC_2019_Jun_12_1505_917,stimulusWOAN27_2IFC_2019_Jun_12_1505_918,True,2019_Jun_12_1505,2IFC,2,WOAN27,
2IFC,9,0,9,0,12.4,-1,correct answer,0.333710699808,True,False,stimulusWOAN27_2IFC_2019_Jun_12_1505_919,stimulusWOAN27_2IFC_2019_Jun_12_1505_920,True,2019_Jun_12_1505,2IFC,2,WOAN27,
2IFC,10,0,10,0,9.1,-1,correct answer,0.398840999929,False,True,stimulusWOAN27_2IFC_2019_Jun_12_1505_921,stimulusWOAN27_2IFC_2019_Jun_12_1505_922,True,2019_Jun_12_1505,2IFC,2,WOAN27,
2IFC,11,0,11,0,12.4,-1,correct answer,0.567316300003,False,True,stimulusWOAN27_2IFC_2019_Jun_12_1505_923,stimulusWOAN27_2IFC_2019_Jun_12_1505_924,True,2019_Jun_12_1505,2IFC,2,WOAN27,
2IFC,12,0,12,0,7.5,-1,correct answer,0.466668599984,True,False,stimulusWOAN27_2IFC_2019_Jun_12_1505_925,stimulusWOAN27_2IFC_2019_Jun_12_1505_926,True,2019_Jun_12_1505,2IFC,2,WOAN27,
2IFC,13,0,13,0,1.4,-1,correct answer,0.467352100182,False,True,stimulusWOAN27_2IFC_2019_Jun_12_1505_927,stimulusWOAN27_2IFC_2019_Jun_12_1505_928,True,2019_Jun_12_1505,2IFC,2,WOAN27,
2IFC,14,0,14,0,3.8,-1,correct answer,0.500563399866,False,True,stimulusWOAN27_2IFC_2019_Jun_12_1505_929,stimulusWOAN27_2IFC_2019_Jun_12_1505_930,True,2019_Jun_12_1505,2IFC,2,WOAN27,
2IFC,15,0,15,0,5.8,-1,wrong answer,0.63408540003,False,True,stimulusWOAN27_2IFC_2019_Jun_12_1505_931,stimulusWOAN27_2IFC_2019_Jun_12_1505_932,True,2019_Jun_12_1505,2IFC,2,WOAN27,
2IFC,16,0,16,0,9.1,-1,correct answer,0.300699400017,True,False,stimulusWOAN27_2IFC_2019_Jun_12_1505_933,stimulusWOAN27_2IFC_2019_Jun_12_1505_934,True,2019_Jun_12_1505,2IFC,2,WOAN27,
2IFC,17,0,17,0,12.4,-1,correct answer,0.469226700021,False,True,stimulusWOAN27_2IFC_2019_Jun_12_1505_935,stimulusWOAN27_2IFC_2019_Jun_12_1505_936,True,2019_Jun_12_1505,2IFC,2,WOAN27,
2IFC,18,0,18,0,1.4,-1,wrong answer,0.433923100121,True,False,stimulusWOAN27_2IFC_2019_Jun_12_1505_937,stimulusWOAN27_2IFC_2019_Jun_12_1505_938,True,2019_Jun_12_1505,2IFC,2,WOAN27,
2IFC,19,0,19,0,1.4,-1,wrong answer,0.434629800031,False,True,stimulusWOAN27_2IFC_2019_Jun_12_1505_939,stimulusWOAN27_2IFC_2019_Jun_12_1505_940,True,2019_Jun_12_1505,2IFC,2,WOAN27,
2IFC,20,0,20,0,1.4,-1,correct answer,0.46749550011,False,True,stimulusWOAN27_2IFC_2019_Jun_12_1505_941,stimulusWOAN27_2IFC_2019_Jun_12_1505_942,True,2019_Jun_12_1505,2IFC,2,WOAN27,
2IFC,21,0,21,0,3.8,-1,wrong answer,0.567250200082,True,False,stimulusWOAN27_2IFC_2019_Jun_12_1505_943,stimulusWOAN27_2IFC_2019_Jun_12_1505_944,True,2019_Jun_12_1505,2IFC,2,WOAN27,
2IFC,22,0,22,0,5.8,-1,correct answer,0.734168899944,False,True,stimulusWOAN27_2IFC_2019_Jun_12_1505_945,stimulusWOAN27_2IFC_2019_Jun_12_1505_946,True,2019_Jun_12_1505,2IFC,2,WOAN27,
2IFC,23,0,23,0,9.1,-1,correct answer,0.467096799985,True,False,stimulusWOAN27_2IFC_2019_Jun_12_1505_947,stimulusWOAN27_2IFC_2019_Jun_12_1505_948,True,2019_Jun_12_1505,2IFC,2,WOAN27,
2IFC,24,0,24,0,7.5,-1,correct answer,0.534201100003,True,False,stimulusWOAN27_2IFC_2019_Jun_12_1505_949,stimulusWOAN27_2IFC_2019_Jun_12_1505_950,True,2019_Jun_12_1505,2IFC,2,WOAN27,
2IFC,25,0,25,0,3.8,-1,correct answer,0.56887930003,False,True,stimulusWOAN27_2IFC_2019_Jun_12_1505_951,stimulusWOAN27_2IFC_2019_Jun_12_1505_952,True,2019_Jun_12_1505,2IFC,2,WOAN27,
2IFC,26,0,26,0,9.1,-1,correct answer,0.500517300097,False,True,stimulusWOAN27_2IFC_2019_Jun_12_1505_953,stimulusWOAN27_2IFC_2019_Jun_12_1505_954,True,2019_Jun_12_1505,2IFC,2,WOAN27,
2IFC,27,0,27,0,1.4,-1,wrong answer,0.53426240012,True,False,stimulusWOAN27_2IFC_2019_Jun_12_1505_955,stimulusWOAN27_2IFC_2019_Jun_12_1505_956,True,2019_Jun_12_1505,2IFC,2,WOAN27,
2IFC,28,0,28,0,9.1,-1,correct answer,0.434463399928,False,True,stimulusWOAN27_2IFC_2019_Jun_12_1505_957,stimulusWOAN27_2IFC_2019_Jun_12_1505_958,True,2019_Jun_12_1505,2IFC,2,WOAN27,
2IFC,29,0,29,0,5.8,-1,correct answer,0.835249600001,True,False,stimulusWOAN27_2IFC_2019_Jun_12_1505_959,stimulusWOAN27_2IFC_2019_Jun_12_1505_960,True,2019_Jun_12_1505,2IFC,2,WOAN27,
2IFC,30,0,30,0,14.3,-1,correct answer,0.333816800034,True,False,stimulusWOAN27_2IFC_2019_Jun_12_1505_961,stimulusWOAN27_2IFC_2019_Jun_12_1505_962,True,2019_Jun_12_1505,2IFC,2,WOAN27,
2IFC,31,0,31,0,7.5,-1,correct answer,0.367499100044,False,True,stimulusWOAN27_2IFC_2019_Jun_12_1505_963,stimulusWOAN27_2IFC_2019_Jun_12_1505_964,True,2019_Jun_12_1505,2IFC,2,WOAN27,
2IFC,32,0,32,0,3.8,-1,correct answer,0.63387749996,True,False,stimulusWOAN27_2IFC_2019_Jun_12_1505_965,stimulusWOAN27_2IFC_2019_Jun_12_1505_966,True,2019_Jun_12_1505,2IFC,2,WOAN27,
2IFC,33,0,33,0,3.8,-1,correct answer,0.533942400012,True,False,stimulusWOAN27_2IFC_2019_Jun_12_1505_967,stimulusWOAN27_2IFC_2019_Jun_12_1505_968,True,2019_Jun_12_1505,2IFC,2,WOAN27,
2IFC,34,0,34,0,14.3,-1,correct answer,0.333693700144,True,False,stimulusWOAN27_2IFC_2019_Jun_12_1505_969,stimulusWOAN27_2IFC_2019_Jun_12_1505_970,True,2019_Jun_12_1505,2IFC,2,WOAN27,
2IFC,35,0,35,0,7.5,-1,correct answer,0.334304899909,True,False,stimulusWOAN27_2IFC_2019_Jun_12_1505_971,stimulusWOAN27_2IFC_2019_Jun_12_1505_972,True,2019_Jun_12_1505,2IFC,2,WOAN27,
2IFC,36,0,36,0,5.8,-1,correct answer,0.366725699976,False,True,stimulusWOAN27_2IFC_2019_Jun_12_1505_973,stimulusWOAN27_2IFC_2019_Jun_12_1505_974,True,2019_Jun_12_1505,2IFC,2,WOAN27,
2IFC,37,0,37,0,14.3,-1,correct answer,0.434516899986,False,True,stimulusWOAN27_2IFC_2019_Jun_12_1505_975,stimulusWOAN27_2IFC_2019_Jun_12_1505_976,True,2019_Jun_12_1505,2IFC,2,WOAN27,
2IFC,38,0,38,0,14.3,-1,correct answer,0.400432199938,True,False,stimulusWOAN27_2IFC_2019_Jun_12_1505_977,stimulusWOAN27_2IFC_2019_Jun_12_1505_978,True,2019_Jun_12_1505,2IFC,2,WOAN27,
2IFC,39,0,39,0,9.1,-1,correct answer,0.634211200057,True,False,stimulusWOAN27_2IFC_2019_Jun_12_1505_979,stimulusWOAN27_2IFC_2019_Jun_12_1505_980,True,2019_Jun_12_1505,2IFC,2,WOAN27,
2IFC,40,0,40,0,10.7,-1,correct answer,0.434085799847,True,False,stimulusWOAN27_2IFC_2019_Jun_12_1505_981,stimulusWOAN27_2IFC_2019_Jun_12_1505_982,True,2019_Jun_12_1505,2IFC,2,WOAN27,
2IFC,41,0,41,0,7.5,-1,correct answer,0.334158099955,True,False,stimulusWOAN27_2IFC_2019_Jun_12_1505_983,stimulusWOAN27_2IFC_2019_Jun_12_1505_984,True,2019_Jun_12_1505,2IFC,2,WOAN27,
2IFC,42,0,42,0,12.4,-1,correct answer,0.300604900112,True,False,stimulusWOAN27_2IFC_2019_Jun_12_1505_985,stimulusWOAN27_2IFC_2019_Jun_12_1505_986,True,2019_Jun_12_1505,2IFC,2,WOAN27,
2IFC,43,0,43,0,7.5,-1,correct answer,0.368216800038,False,True,stimulusWOAN27_2IFC_2019_Jun_12_1505_987,stimulusWOAN27_2IFC_2019_Jun_12_1505_988,True,2019_Jun_12_1505,2IFC,2,WOAN27,
2IFC,44,0,44,0,1.4,-1,correct answer,0.467698000139,False,True,stimulusWOAN27_2IFC_2019_Jun_12_1505_989,stimulusWOAN27_2IFC_2019_Jun_12_1505_990,True,2019_Jun_12_1505,2IFC,2,WOAN27,
2IFC,45,0,45,0,7.5,-1,correct answer,0.467203499982,False,True,stimulusWOAN27_2IFC_2019_Jun_12_1505_991,stimulusWOAN27_2IFC_2019_Jun_12_1505_992,True,2019_Jun_12_1505,2IFC,2,WOAN27,
2IFC,46,0,46,0,7.5,-1,correct answer,0.533824899932,False,True,stimulusWOAN27_2IFC_2019_Jun_12_1505_993,stimulusWOAN27_2IFC_2019_Jun_12_1505_994,True,2019_Jun_12_1505,2IFC,2,WOAN27,
2IFC,47,0,47,0,5.8,-1,correct answer,0.533963200171,False,True,stimulusWOAN27_2IFC_2019_Jun_12_1505_995,stimulusWOAN27_2IFC_2019_Jun_12_1505_996,True,2019_Jun_12_1505,2IFC,2,WOAN27,
2IFC,48,0,48,0,3.8,-1,wrong answer,0.534111300018,False,True,stimulusWOAN27_2IFC_2019_Jun_12_1505_997,stimulusWOAN27_2IFC_2019_Jun_12_1505_998,True,2019_Jun_12_1505,2IFC,2,WOAN27,
2IFC,49,0,49,0,12.4,-1,correct answer,0.36725700018,True,False,stimulusWOAN27_2IFC_2019_Jun_12_1505_999,stimulusWOAN27_2IFC_2019_Jun_12_1505_1000,True,2019_Jun_12_1505,2IFC,2,WOAN27,
2IFC,50,0,50,0,10.7,-1,correct answer,0.533367400058,True,False,stimulusWOAN27_2IFC_2019_Jun_12_1505_1001,stimulusWOAN27_2IFC_2019_Jun_12_1505_1002,True,2019_Jun_12_1505,2IFC,2,WOAN27,
2IFC,51,0,51,0,3.8,-1,correct answer,0.434751500143,False,True,stimulusWOAN27_2IFC_2019_Jun_12_1505_1003,stimulusWOAN27_2IFC_2019_Jun_12_1505_1004,True,2019_Jun_12_1505,2IFC,2,WOAN27,
2IFC,52,0,52,0,9.1,-1,correct answer,0.534280899912,False,True,stimulusWOAN27_2IFC_2019_Jun_12_1505_1005,stimulusWOAN27_2IFC_2019_Jun_12_1505_1006,True,2019_Jun_12_1505,2IFC,2,WOAN27,
2IFC,53,0,53,0,5.8,-1,correct answer,0.601293700049,True,False,stimulusWOAN27_2IFC_2019_Jun_12_1505_1007,stimulusWOAN27_2IFC_2019_Jun_12_1505_1008,True,2019_Jun_12_1505,2IFC,2,WOAN27,
2IFC,54,0,54,0,10.7,-1,correct answer,0.400176700205,False,True,stimulusWOAN27_2IFC_2019_Jun_12_1505_1009,stimulusWOAN27_2IFC_2019_Jun_12_1505_1010,True,2019_Jun_12_1505,2IFC,2,WOAN27,
2IFC,55,0,55,0,14.3,-1,correct answer,0.332505600061,False,True,stimulusWOAN27_2IFC_2019_Jun_12_1505_1011,stimulusWOAN27_2IFC_2019_Jun_12_1505_1012,True,2019_Jun_12_1505,2IFC,2,WOAN27,
2IFC,56,0,56,0,5.8,-1,correct answer,0.835332100047,False,True,stimulusWOAN27_2IFC_2019_Jun_12_1505_1013,stimulusWOAN27_2IFC_2019_Jun_12_1505_1014,True,2019_Jun_12_1505,2IFC,2,WOAN27,
2IFC,57,0,57,0,14.3,-1,correct answer,0.366511800094,False,True,stimulusWOAN27_2IFC_2019_Jun_12_1505_1015,stimulusWOAN27_2IFC_2019_Jun_12_1505_1016,True,2019_Jun_12_1505,2IFC,2,WOAN27,
2IFC,58,0,58,0,1.4,-1,correct answer,0.534331300063,False,True,stimulusWOAN27_2IFC_2019_Jun_12_1505_1017,stimulusWOAN27_2IFC_2019_Jun_12_1505_1018,True,2019_Jun_12_1505,2IFC,2,WOAN27,
2IFC,59,0,59,0,5.8,-1,wrong answer,0.367270999821,True,False,stimulusWOAN27_2IFC_2019_Jun_12_1505_1019,stimulusWOAN27_2IFC_2019_Jun_12_1505_1020,True,2019_Jun_12_1505,2IFC,2,WOAN27,
2IFC,60,0,60,0,3.8,-1,correct answer,0.700634800131,True,False,stimulusWOAN27_2IFC_2019_Jun_12_1505_1021,stimulusWOAN27_2IFC_2019_Jun_12_1505_1022,True,2019_Jun_12_1505,2IFC,2,WOAN27,
2IFC,61,0,61,0,10.7,-1,correct answer,0.599690599833,True,False,stimulusWOAN27_2IFC_2019_Jun_12_1505_1023,stimulusWOAN27_2IFC_2019_Jun_12_1505_1024,True,2019_Jun_12_1505,2IFC,2,WOAN27,
2IFC,62,0,62,0,10.7,-1,correct answer,0.36772349989,False,True,stimulusWOAN27_2IFC_2019_Jun_12_1505_1025,stimulusWOAN27_2IFC_2019_Jun_12_1505_1026,True,2019_Jun_12_1505,2IFC,2,WOAN27,
2IFC,63,0,63,0,10.7,-1,wrong answer,0.464481699979,True,False,stimulusWOAN27_2IFC_2019_Jun_12_1505_1027,stimulusWOAN27_2IFC_2019_Jun_12_1505_1028,True,2019_Jun_12_1505,2IFC,2,WOAN27,
2IFC,64,0,64,0,10.7,-1,correct answer,0.367261999985,True,False,stimulusWOAN27_2IFC_2019_Jun_12_1505_1029,stimulusWOAN27_2IFC_2019_Jun_12_1505_1030,True,2019_Jun_12_1505,2IFC,2,WOAN27,
2IFC,65,0,65,0,14.3,-1,correct answer,0.500833899947,True,False,stimulusWOAN27_2IFC_2019_Jun_12_1505_1031,stimulusWOAN27_2IFC_2019_Jun_12_1505_1032,True,2019_Jun_12_1505,2IFC,2,WOAN27,
2IFC,66,0,66,0,10.7,-1,correct answer,0.3668664,False,True,stimulusWOAN27_2IFC_2019_Jun_12_1505_1033,stimulusWOAN27_2IFC_2019_Jun_12_1505_1034,True,2019_Jun_12_1505,2IFC,2,WOAN27,
2IFC,67,0,67,0,3.8,-1,correct answer,0.636206200114,False,True,stimulusWOAN27_2IFC_2019_Jun_12_1505_1035,stimulusWOAN27_2IFC_2019_Jun_12_1505_1036,True,2019_Jun_12_1505,2IFC,2,WOAN27,
2IFC,68,0,68,0,10.7,-1,correct answer,0.400645800168,False,True,stimulusWOAN27_2IFC_2019_Jun_12_1505_1037,stimulusWOAN27_2IFC_2019_Jun_12_1505_1038,True,2019_Jun_12_1505,2IFC,2,WOAN27,
2IFC,69,0,69,0,1.4,-1,correct answer,0.435135999927,False,True,stimulusWOAN27_2IFC_2019_Jun_12_1505_1039,stimulusWOAN27_2IFC_2019_Jun_12_1505_1040,True,2019_Jun_12_1505,2IFC,2,WOAN27,
2IFC,70,0,70,0,5.8,-1,correct answer,0.434222300071,False,True,stimulusWOAN27_2IFC_2019_Jun_12_1505_1041,stimulusWOAN27_2IFC_2019_Jun_12_1505_1042,True,2019_Jun_12_1505,2IFC,2,WOAN27,
2IFC,71,0,71,0,14.3,-1,wrong answer,0.767252699938,False,True,stimulusWOAN27_2IFC_2019_Jun_12_1505_1043,stimulusWOAN27_2IFC_2019_Jun_12_1505_1044,True,2019_Jun_12_1505,2IFC,2,WOAN27,
2IFC,72,0,72,0,10.7,-1,wrong answer,0.700850000139,True,False,stimulusWOAN27_2IFC_2019_Jun_12_1505_1045,stimulusWOAN27_2IFC_2019_Jun_12_1505_1046,True,2019_Jun_12_1505,2IFC,2,WOAN27,
2IFC,73,0,73,0,12.4,-1,correct answer,0.300670200028,True,False,stimulusWOAN27_2IFC_2019_Jun_12_1505_1047,stimulusWOAN27_2IFC_2019_Jun_12_1505_1048,True,2019_Jun_12_1505,2IFC,2,WOAN27,
2IFC,74,0,74,0,14.3,-1,correct answer,0.267440399854,True,False,stimulusWOAN27_2IFC_2019_Jun_12_1505_1049,stimulusWOAN27_2IFC_2019_Jun_12_1505_1050,True,2019_Jun_12_1505,2IFC,2,WOAN27,
2IFC,0,0,0,0,7.5,-1,correct answer,0.501649100101,False,True,stimulusWOAN27_2IFC_2019_Jun_12_1505_1051,stimulusWOAN27_2IFC_2019_Jun_12_1505_1052,True,2019_Jun_12_1505,2IFC,2,WOAN27,
2IFC,1,0,1,0,10.7,-1,wrong answer,0.399896299932,True,False,stimulusWOAN27_2IFC_2019_Jun_12_1505_1053,stimulusWOAN27_2IFC_2019_Jun_12_1505_1054,True,2019_Jun_12_1505,2IFC,2,WOAN27,
2IFC,2,0,2,0,9.1,-1,correct answer,0.400590900099,False,True,stimulusWOAN27_2IFC_2019_Jun_12_1505_1055,stimulusWOAN27_2IFC_2019_Jun_12_1505_1056,True,2019_Jun_12_1505,2IFC,2,WOAN27,
2IFC,3,0,3,0,14.3,-1,correct answer,0.467006700113,False,True,stimulusWOAN27_2IFC_2019_Jun_12_1505_1057,stimulusWOAN27_2IFC_2019_Jun_12_1505_1058,True,2019_Jun_12_1505,2IFC,2,WOAN27,
2IFC,4,0,4,0,5.8,-1,correct answer,0.0671802000143,True,False,stimulusWOAN27_2IFC_2019_Jun_12_1505_1059,stimulusWOAN27_2IFC_2019_Jun_12_1505_1060,True,2019_Jun_12_1505,2IFC,2,WOAN27,
2IFC,5,0,5,0,7.5,-1,wrong answer,0.433722699992,True,False,stimulusWOAN27_2IFC_2019_Jun_12_1505_1061,stimulusWOAN27_2IFC_2019_Jun_12_1505_1062,True,2019_Jun_12_1505,2IFC,2,WOAN27,
2IFC,6,0,6,0,9.1,-1,correct answer,0.3670388998,True,False,stimulusWOAN27_2IFC_2019_Jun_12_1505_1063,stimulusWOAN27_2IFC_2019_Jun_12_1505_1064,True,2019_Jun_12_1505,2IFC,2,WOAN27,
2IFC,7,0,7,0,7.5,-1,correct answer,0.499840600183,True,False,stimulusWOAN27_2IFC_2019_Jun_12_1505_1065,stimulusWOAN27_2IFC_2019_Jun_12_1505_1066,True,2019_Jun_12_1505,2IFC,2,WOAN27,
2IFC,8,0,8,0,7.5,-1,correct answer,0.40065299999,False,True,stimulusWOAN27_2IFC_2019_Jun_12_1505_1067,stimulusWOAN27_2IFC_2019_Jun_12_1505_1068,True,2019_Jun_12_1505,2IFC,2,WOAN27,
2IFC,9,0,9,0,1.4,-1,correct answer,0.400642000139,False,True,stimulusWOAN27_2IFC_2019_Jun_12_1505_1069,stimulusWOAN27_2IFC_2019_Jun_12_1505_1070,True,2019_Jun_12_1505,2IFC,2,WOAN27,
2IFC,10,0,10,0,10.7,-1,correct answer,0.500409400091,False,True,stimulusWOAN27_2IFC_2019_Jun_12_1505_1071,stimulusWOAN27_2IFC_2019_Jun_12_1505_1072,True,2019_Jun_12_1505,2IFC,2,WOAN27,
2IFC,11,0,11,0,14.3,-1,correct answer,0.30310709984,True,False,stimulusWOAN27_2IFC_2019_Jun_12_1505_1073,stimulusWOAN27_2IFC_2019_Jun_12_1505_1074,True,2019_Jun_12_1505,2IFC,2,WOAN27,
2IFC,12,0,12,0,12.4,-1,correct answer,0.300335299922,True,False,stimulusWOAN27_2IFC_2019_Jun_12_1505_1075,stimulusWOAN27_2IFC_2019_Jun_12_1505_1076,True,2019_Jun_12_1505,2IFC,2,WOAN27,
2IFC,13,0,13,0,7.5,-1,correct answer,0.433959800052,False,True,stimulusWOAN27_2IFC_2019_Jun_12_1505_1077,stimulusWOAN27_2IFC_2019_Jun_12_1505_1078,True,2019_Jun_12_1505,2IFC,2,WOAN27,
2IFC,14,0,14,0,5.8,-1,correct answer,0.398464799859,False,True,stimulusWOAN27_2IFC_2019_Jun_12_1505_1079,stimulusWOAN27_2IFC_2019_Jun_12_1505_1080,True,2019_Jun_12_1505,2IFC,2,WOAN27,
2IFC,15,0,15,0,3.8,-1,correct answer,0.667254200205,False,True,stimulusWOAN27_2IFC_2019_Jun_12_1505_1081,stimulusWOAN27_2IFC_2019_Jun_12_1505_1082,True,2019_Jun_12_1505,2IFC,2,WOAN27,
2IFC,16,0,16,0,14.3,-1,correct answer,0.401406900026,False,True,stimulusWOAN27_2IFC_2019_Jun_12_1505_1083,stimulusWOAN27_2IFC_2019_Jun_12_1505_1084,True,2019_Jun_12_1505,2IFC,2,WOAN27,
2IFC,17,0,17,0,10.7,-1,correct answer,0.500449999934,False,True,stimulusWOAN27_2IFC_2019_Jun_12_1505_1085,stimulusWOAN27_2IFC_2019_Jun_12_1505_1086,True,2019_Jun_12_1505,2IFC,2,WOAN27,
2IFC,18,0,18,0,5.8,-1,wrong answer,0.467294699978,True,False,stimulusWOAN27_2IFC_2019_Jun_12_1505_1087,stimulusWOAN27_2IFC_2019_Jun_12_1505_1088,True,2019_Jun_12_1505,2IFC,2,WOAN27,
2IFC,19,0,19,0,5.8,-1,correct answer,0.468994100112,False,True,stimulusWOAN27_2IFC_2019_Jun_12_1505_1089,stimulusWOAN27_2IFC_2019_Jun_12_1505_1090,True,2019_Jun_12_1505,2IFC,2,WOAN27,
2IFC,20,0,20,0,5.8,-1,wrong answer,0.567503799917,True,False,stimulusWOAN27_2IFC_2019_Jun_12_1505_1091,stimulusWOAN27_2IFC_2019_Jun_12_1505_1092,True,2019_Jun_12_1505,2IFC,2,WOAN27,
2IFC,21,0,21,0,1.4,-1,wrong answer,0.767581199994,False,True,stimulusWOAN27_2IFC_2019_Jun_12_1505_1093,stimulusWOAN27_2IFC_2019_Jun_12_1505_1094,True,2019_Jun_12_1505,2IFC,2,WOAN27,
2IFC,22,0,22,0,7.5,-1,correct answer,0.36842770013,False,True,stimulusWOAN27_2IFC_2019_Jun_12_1505_1095,stimulusWOAN27_2IFC_2019_Jun_12_1505_1096,True,2019_Jun_12_1505,2IFC,2,WOAN27,
2IFC,23,0,23,0,5.8,-1,correct answer,0.566863799933,True,False,stimulusWOAN27_2IFC_2019_Jun_12_1505_1097,stimulusWOAN27_2IFC_2019_Jun_12_1505_1098,True,2019_Jun_12_1505,2IFC,2,WOAN27,
2IFC,24,0,24,0,1.4,-1,correct answer,0.402081999928,False,True,stimulusWOAN27_2IFC_2019_Jun_12_1505_1099,stimulusWOAN27_2IFC_2019_Jun_12_1505_1100,True,2019_Jun_12_1505,2IFC,2,WOAN27,
