Task,trials.thisRepN,trials.thisTrialN,trials.thisN,trials.thisIndex,signal_intensity,constant Value,response,time_response,signal_on_stimuluspos1,signal_on_stimuluspos2,stimulus_name_pos1,stimulus_name_pos2,random_intensity,date,expName,session,participant,
Yes-No Task,0,0,0,0,2,-1,Miss,0.367067539832,True,-1,stimulus_HACA03_Yes-No Task_2019_Jun_28_1409_1,-1,False,2019_Jun_28_1409,Yes-No Task,,HACA03,
Yes-No Task,1,0,1,0,2,-1,Correct Rejection,0.433592375601,False,-1,stimulus_HACA03_Yes-No Task_2019_Jun_28_1409_2,-1,False,2019_Jun_28_1409,Yes-No Task,,HACA03,
Yes-No Task,2,0,2,0,2,-1,Correct Rejection,0.499583088327,False,-1,stimulus_HACA03_Yes-No Task_2019_Jun_28_1409_3,-1,False,2019_Jun_28_1409,Yes-No Task,,HACA03,
Yes-No Task,3,0,3,0,2,-1,Miss,0.501511844108,True,-1,stimulus_HACA03_Yes-No Task_2019_Jun_28_1409_4,-1,False,2019_Jun_28_1409,Yes-No Task,,HACA03,
Yes-No Task,4,0,4,0,2,-1,Miss,0.633720712969,True,-1,stimulus_HACA03_Yes-No Task_2019_Jun_28_1409_5,-1,False,2019_Jun_28_1409,Yes-No Task,,HACA03,
Yes-No Task,5,0,5,0,2,-1,False Alarm,0.600852216128,False,-1,stimulus_HACA03_Yes-No Task_2019_Jun_28_1409_6,-1,False,2019_Jun_28_1409,Yes-No Task,,HACA03,
Yes-No Task,6,0,6,0,2,-1,Miss,0.502303381218,True,-1,stimulus_HACA03_Yes-No Task_2019_Jun_28_1409_7,-1,False,2019_Jun_28_1409,Yes-No Task,,HACA03,
Yes-No Task,7,0,7,0,2,-1,Correct Rejection,0.535294221481,False,-1,stimulus_HACA03_Yes-No Task_2019_Jun_28_1409_8,-1,False,2019_Jun_28_1409,Yes-No Task,,HACA03,
Yes-No Task,8,0,8,0,2,-1,Miss,0.52582779876,True,-1,stimulus_HACA03_Yes-No Task_2019_Jun_28_1409_9,-1,False,2019_Jun_28_1409,Yes-No Task,,HACA03,
Yes-No Task,9,0,9,0,2,-1,Correct Rejection,0.567187665962,False,-1,stimulus_HACA03_Yes-No Task_2019_Jun_28_1409_10,-1,False,2019_Jun_28_1409,Yes-No Task,,HACA03,
Yes-No Task,10,0,10,0,2,-1,False Alarm,0.701041191583,False,-1,stimulus_HACA03_Yes-No Task_2019_Jun_28_1409_11,-1,False,2019_Jun_28_1409,Yes-No Task,,HACA03,
Yes-No Task,11,0,11,0,2,-1,Miss,0.699902330525,True,-1,stimulus_HACA03_Yes-No Task_2019_Jun_28_1409_12,-1,False,2019_Jun_28_1409,Yes-No Task,,HACA03,
Yes-No Task,12,0,12,0,2,-1,Correct Rejection,0.600206423551,False,-1,stimulus_HACA03_Yes-No Task_2019_Jun_28_1409_13,-1,False,2019_Jun_28_1409,Yes-No Task,,HACA03,
Yes-No Task,13,0,13,0,2,-1,Correct Rejection,0.600995497545,False,-1,stimulus_HACA03_Yes-No Task_2019_Jun_28_1409_14,-1,False,2019_Jun_28_1409,Yes-No Task,,HACA03,
Yes-No Task,14,0,14,0,2,-1,Correct Rejection,0.600295923185,False,-1,stimulus_HACA03_Yes-No Task_2019_Jun_28_1409_15,-1,False,2019_Jun_28_1409,Yes-No Task,,HACA03,
Yes-No Task,15,0,15,0,2,-1,Hit,0.700373229338,True,-1,stimulus_HACA03_Yes-No Task_2019_Jun_28_1409_16,-1,False,2019_Jun_28_1409,Yes-No Task,,HACA03,
Yes-No Task,16,0,16,0,2,-1,Miss,0.534283862216,True,-1,stimulus_HACA03_Yes-No Task_2019_Jun_28_1409_17,-1,False,2019_Jun_28_1409,Yes-No Task,,HACA03,
Yes-No Task,17,0,17,0,2,-1,Miss,0.534879157087,True,-1,stimulus_HACA03_Yes-No Task_2019_Jun_28_1409_18,-1,False,2019_Jun_28_1409,Yes-No Task,,HACA03,
Yes-No Task,18,0,18,0,2,-1,Correct Rejection,0.634005223168,False,-1,stimulus_HACA03_Yes-No Task_2019_Jun_28_1409_19,-1,False,2019_Jun_28_1409,Yes-No Task,,HACA03,
Yes-No Task,19,0,19,0,2,-1,Miss,0.500610690797,True,-1,stimulus_HACA03_Yes-No Task_2019_Jun_28_1409_20,-1,False,2019_Jun_28_1409,Yes-No Task,,HACA03,
Yes-No Task,20,0,20,0,2,-1,Correct Rejection,0.4652883464,False,-1,stimulus_HACA03_Yes-No Task_2019_Jun_28_1409_21,-1,False,2019_Jun_28_1409,Yes-No Task,,HACA03,
Yes-No Task,21,0,21,0,2,-1,False Alarm,0.567453290801,False,-1,stimulus_HACA03_Yes-No Task_2019_Jun_28_1409_22,-1,False,2019_Jun_28_1409,Yes-No Task,,HACA03,
Yes-No Task,22,0,22,0,2,-1,Correct Rejection,0.436880046269,False,-1,stimulus_HACA03_Yes-No Task_2019_Jun_28_1409_23,-1,False,2019_Jun_28_1409,Yes-No Task,,HACA03,
Yes-No Task,23,0,23,0,2,-1,Correct Rejection,0.500603300752,False,-1,stimulus_HACA03_Yes-No Task_2019_Jun_28_1409_24,-1,False,2019_Jun_28_1409,Yes-No Task,,HACA03,
Yes-No Task,24,0,24,0,2,-1,Miss,0.459729522699,True,-1,stimulus_HACA03_Yes-No Task_2019_Jun_28_1409_25,-1,False,2019_Jun_28_1409,Yes-No Task,,HACA03,
Yes-No Task,25,0,25,0,2,-1,False Alarm,0.499760855688,False,-1,stimulus_HACA03_Yes-No Task_2019_Jun_28_1409_26,-1,False,2019_Jun_28_1409,Yes-No Task,,HACA03,
Yes-No Task,26,0,26,0,2,-1,Miss,0.501512665302,True,-1,stimulus_HACA03_Yes-No Task_2019_Jun_28_1409_27,-1,False,2019_Jun_28_1409,Yes-No Task,,HACA03,
Yes-No Task,27,0,27,0,2,-1,Correct Rejection,0.499643849442,False,-1,stimulus_HACA03_Yes-No Task_2019_Jun_28_1409_28,-1,False,2019_Jun_28_1409,Yes-No Task,,HACA03,
Yes-No Task,28,0,28,0,2,-1,Miss,0.500984700164,True,-1,stimulus_HACA03_Yes-No Task_2019_Jun_28_1409_29,-1,False,2019_Jun_28_1409,Yes-No Task,,HACA03,
Yes-No Task,29,0,29,0,2,-1,No Answer,-1,False,-1,stimulus_HACA03_Yes-No Task_2019_Jun_28_1409_30,-1,False,2019_Jun_28_1409,Yes-No Task,,HACA03,
Yes-No Task,0,0,0,0,4,-1,Miss,0.464100630255,True,-1,stimulus_HACA03_Yes-No Task_2019_Jun_28_1409_31,-1,False,2019_Jun_28_1409,Yes-No Task,,HACA03,
Yes-No Task,1,0,1,0,4,-1,Correct Rejection,0.334809528198,False,-1,stimulus_HACA03_Yes-No Task_2019_Jun_28_1409_32,-1,False,2019_Jun_28_1409,Yes-No Task,,HACA03,
Yes-No Task,2,0,2,0,4,-1,Miss,0.433848968241,True,-1,stimulus_HACA03_Yes-No Task_2019_Jun_28_1409_33,-1,False,2019_Jun_28_1409,Yes-No Task,,HACA03,
Yes-No Task,3,0,3,0,4,-1,Miss,0.432572984137,True,-1,stimulus_HACA03_Yes-No Task_2019_Jun_28_1409_34,-1,False,2019_Jun_28_1409,Yes-No Task,,HACA03,
Yes-No Task,4,0,4,0,4,-1,Correct Rejection,0.502176111331,False,-1,stimulus_HACA03_Yes-No Task_2019_Jun_28_1409_35,-1,False,2019_Jun_28_1409,Yes-No Task,,HACA03,
Yes-No Task,5,0,5,0,4,-1,Hit,0.534533475526,True,-1,stimulus_HACA03_Yes-No Task_2019_Jun_28_1409_36,-1,False,2019_Jun_28_1409,Yes-No Task,,HACA03,
Yes-No Task,6,0,6,0,4,-1,Correct Rejection,0.33535843133,False,-1,stimulus_HACA03_Yes-No Task_2019_Jun_28_1409_37,-1,False,2019_Jun_28_1409,Yes-No Task,,HACA03,
Yes-No Task,7,0,7,0,4,-1,Hit,0.634908018634,True,-1,stimulus_HACA03_Yes-No Task_2019_Jun_28_1409_38,-1,False,2019_Jun_28_1409,Yes-No Task,,HACA03,
Yes-No Task,8,0,8,0,4,-1,Correct Rejection,0.266947946977,False,-1,stimulus_HACA03_Yes-No Task_2019_Jun_28_1409_39,-1,False,2019_Jun_28_1409,Yes-No Task,,HACA03,
Yes-No Task,9,0,9,0,4,-1,False Alarm,0.36825977196,False,-1,stimulus_HACA03_Yes-No Task_2019_Jun_28_1409_40,-1,False,2019_Jun_28_1409,Yes-No Task,,HACA03,
Yes-No Task,10,0,10,0,4,-1,Correct Rejection,0.467687590979,False,-1,stimulus_HACA03_Yes-No Task_2019_Jun_28_1409_41,-1,False,2019_Jun_28_1409,Yes-No Task,,HACA03,
Yes-No Task,11,0,11,0,4,-1,Correct Rejection,0.333910427522,False,-1,stimulus_HACA03_Yes-No Task_2019_Jun_28_1409_42,-1,False,2019_Jun_28_1409,Yes-No Task,,HACA03,
Yes-No Task,12,0,12,0,4,-1,Correct Rejection,0.332832327578,False,-1,stimulus_HACA03_Yes-No Task_2019_Jun_28_1409_43,-1,False,2019_Jun_28_1409,Yes-No Task,,HACA03,
Yes-No Task,13,0,13,0,4,-1,Correct Rejection,0.399352236884,False,-1,stimulus_HACA03_Yes-No Task_2019_Jun_28_1409_44,-1,False,2019_Jun_28_1409,Yes-No Task,,HACA03,
Yes-No Task,14,0,14,0,4,-1,Correct Rejection,0.335344062187,False,-1,stimulus_HACA03_Yes-No Task_2019_Jun_28_1409_45,-1,False,2019_Jun_28_1409,Yes-No Task,,HACA03,
Yes-No Task,15,0,15,0,4,-1,False Alarm,0.302089239238,False,-1,stimulus_HACA03_Yes-No Task_2019_Jun_28_1409_46,-1,False,2019_Jun_28_1409,Yes-No Task,,HACA03,
Yes-No Task,16,0,16,0,4,-1,Correct Rejection,0.3969759834,False,-1,stimulus_HACA03_Yes-No Task_2019_Jun_28_1409_47,-1,False,2019_Jun_28_1409,Yes-No Task,,HACA03,
Yes-No Task,17,0,17,0,4,-1,Miss,0.340912328567,True,-1,stimulus_HACA03_Yes-No Task_2019_Jun_28_1409_48,-1,False,2019_Jun_28_1409,Yes-No Task,,HACA03,
Yes-No Task,18,0,18,0,4,-1,Correct Rejection,0.466982268728,False,-1,stimulus_HACA03_Yes-No Task_2019_Jun_28_1409_49,-1,False,2019_Jun_28_1409,Yes-No Task,,HACA03,
Yes-No Task,19,0,19,0,4,-1,Miss,0.534165213816,True,-1,stimulus_HACA03_Yes-No Task_2019_Jun_28_1409_50,-1,False,2019_Jun_28_1409,Yes-No Task,,HACA03,
Yes-No Task,20,0,20,0,4,-1,Miss,0.33333607018,True,-1,stimulus_HACA03_Yes-No Task_2019_Jun_28_1409_51,-1,False,2019_Jun_28_1409,Yes-No Task,,HACA03,
Yes-No Task,21,0,21,0,4,-1,Hit,0.29954425036,True,-1,stimulus_HACA03_Yes-No Task_2019_Jun_28_1409_52,-1,False,2019_Jun_28_1409,Yes-No Task,,HACA03,
Yes-No Task,22,0,22,0,4,-1,Miss,0.365453263745,True,-1,stimulus_HACA03_Yes-No Task_2019_Jun_28_1409_53,-1,False,2019_Jun_28_1409,Yes-No Task,,HACA03,
Yes-No Task,23,0,23,0,4,-1,Miss,0.333428443875,True,-1,stimulus_HACA03_Yes-No Task_2019_Jun_28_1409_54,-1,False,2019_Jun_28_1409,Yes-No Task,,HACA03,
Yes-No Task,24,0,24,0,4,-1,False Alarm,0.434156469069,False,-1,stimulus_HACA03_Yes-No Task_2019_Jun_28_1409_55,-1,False,2019_Jun_28_1409,Yes-No Task,,HACA03,
Yes-No Task,25,0,25,0,4,-1,Hit,0.365834252676,True,-1,stimulus_HACA03_Yes-No Task_2019_Jun_28_1409_56,-1,False,2019_Jun_28_1409,Yes-No Task,,HACA03,
Yes-No Task,26,0,26,0,4,-1,False Alarm,0.365641294746,False,-1,stimulus_HACA03_Yes-No Task_2019_Jun_28_1409_57,-1,False,2019_Jun_28_1409,Yes-No Task,,HACA03,
Yes-No Task,27,0,27,0,4,-1,False Alarm,0.333516711369,False,-1,stimulus_HACA03_Yes-No Task_2019_Jun_28_1409_58,-1,False,2019_Jun_28_1409,Yes-No Task,,HACA03,
Yes-No Task,28,0,28,0,4,-1,Hit,0.301136767259,True,-1,stimulus_HACA03_Yes-No Task_2019_Jun_28_1409_59,-1,False,2019_Jun_28_1409,Yes-No Task,,HACA03,
Yes-No Task,29,0,29,0,4,-1,Miss,0.300972137367,True,-1,stimulus_HACA03_Yes-No Task_2019_Jun_28_1409_60,-1,False,2019_Jun_28_1409,Yes-No Task,,HACA03,
Yes-No Task,0,0,0,0,10,-1,Miss,0.334938029759,True,-1,stimulus_HACA03_Yes-No Task_2019_Jun_28_1409_61,-1,False,2019_Jun_28_1409,Yes-No Task,,HACA03,
Yes-No Task,1,0,1,0,10,-1,Correct Rejection,0.46758988034,False,-1,stimulus_HACA03_Yes-No Task_2019_Jun_28_1409_62,-1,False,2019_Jun_28_1409,Yes-No Task,,HACA03,
Yes-No Task,2,0,2,0,10,-1,Hit,0.333306100219,True,-1,stimulus_HACA03_Yes-No Task_2019_Jun_28_1409_63,-1,False,2019_Jun_28_1409,Yes-No Task,,HACA03,
Yes-No Task,3,0,3,0,10,-1,Miss,0.392347051296,True,-1,stimulus_HACA03_Yes-No Task_2019_Jun_28_1409_64,-1,False,2019_Jun_28_1409,Yes-No Task,,HACA03,
Yes-No Task,4,0,4,0,10,-1,Hit,0.336584738921,True,-1,stimulus_HACA03_Yes-No Task_2019_Jun_28_1409_65,-1,False,2019_Jun_28_1409,Yes-No Task,,HACA03,
Yes-No Task,5,0,5,0,10,-1,Correct Rejection,0.459582956741,False,-1,stimulus_HACA03_Yes-No Task_2019_Jun_28_1409_66,-1,False,2019_Jun_28_1409,Yes-No Task,,HACA03,
Yes-No Task,6,0,6,0,10,-1,Miss,0.402183377882,True,-1,stimulus_HACA03_Yes-No Task_2019_Jun_28_1409_67,-1,False,2019_Jun_28_1409,Yes-No Task,,HACA03,
Yes-No Task,7,0,7,0,10,-1,Correct Rejection,0.372318452457,False,-1,stimulus_HACA03_Yes-No Task_2019_Jun_28_1409_68,-1,False,2019_Jun_28_1409,Yes-No Task,,HACA03,
Yes-No Task,8,0,8,0,10,-1,Correct Rejection,0.332005483331,False,-1,stimulus_HACA03_Yes-No Task_2019_Jun_28_1409_69,-1,False,2019_Jun_28_1409,Yes-No Task,,HACA03,
Yes-No Task,9,0,9,0,10,-1,Miss,0.433449915377,True,-1,stimulus_HACA03_Yes-No Task_2019_Jun_28_1409_70,-1,False,2019_Jun_28_1409,Yes-No Task,,HACA03,
Yes-No Task,10,0,10,0,10,-1,Correct Rejection,0.329418618465,False,-1,stimulus_HACA03_Yes-No Task_2019_Jun_28_1409_71,-1,False,2019_Jun_28_1409,Yes-No Task,,HACA03,
Yes-No Task,11,0,11,0,10,-1,Correct Rejection,0.535955614876,False,-1,stimulus_HACA03_Yes-No Task_2019_Jun_28_1409_72,-1,False,2019_Jun_28_1409,Yes-No Task,,HACA03,
Yes-No Task,12,0,12,0,10,-1,Correct Rejection,0.366748954169,False,-1,stimulus_HACA03_Yes-No Task_2019_Jun_28_1409_73,-1,False,2019_Jun_28_1409,Yes-No Task,,HACA03,
Yes-No Task,13,0,13,0,10,-1,Hit,0.435759660089,True,-1,stimulus_HACA03_Yes-No Task_2019_Jun_28_1409_74,-1,False,2019_Jun_28_1409,Yes-No Task,,HACA03,
Yes-No Task,14,0,14,0,10,-1,Correct Rejection,0.333071677247,False,-1,stimulus_HACA03_Yes-No Task_2019_Jun_28_1409_75,-1,False,2019_Jun_28_1409,Yes-No Task,,HACA03,
Yes-No Task,15,0,15,0,10,-1,False Alarm,0.299043381354,False,-1,stimulus_HACA03_Yes-No Task_2019_Jun_28_1409_76,-1,False,2019_Jun_28_1409,Yes-No Task,,HACA03,
Yes-No Task,16,0,16,0,10,-1,Correct Rejection,0.267445942154,False,-1,stimulus_HACA03_Yes-No Task_2019_Jun_28_1409_77,-1,False,2019_Jun_28_1409,Yes-No Task,,HACA03,
Yes-No Task,17,0,17,0,10,-1,Miss,0.333259708248,True,-1,stimulus_HACA03_Yes-No Task_2019_Jun_28_1409_78,-1,False,2019_Jun_28_1409,Yes-No Task,,HACA03,
Yes-No Task,18,0,18,0,10,-1,Correct Rejection,0.301181927556,False,-1,stimulus_HACA03_Yes-No Task_2019_Jun_28_1409_79,-1,False,2019_Jun_28_1409,Yes-No Task,,HACA03,
Yes-No Task,19,0,19,0,10,-1,Correct Rejection,0.333585683722,False,-1,stimulus_HACA03_Yes-No Task_2019_Jun_28_1409_80,-1,False,2019_Jun_28_1409,Yes-No Task,,HACA03,
Yes-No Task,20,0,20,0,10,-1,Hit,0.305688105524,True,-1,stimulus_HACA03_Yes-No Task_2019_Jun_28_1409_81,-1,False,2019_Jun_28_1409,Yes-No Task,,HACA03,
Yes-No Task,21,0,21,0,10,-1,Miss,0.269089367008,True,-1,stimulus_HACA03_Yes-No Task_2019_Jun_28_1409_82,-1,False,2019_Jun_28_1409,Yes-No Task,,HACA03,
Yes-No Task,22,0,22,0,10,-1,Hit,0.200290503912,True,-1,stimulus_HACA03_Yes-No Task_2019_Jun_28_1409_83,-1,False,2019_Jun_28_1409,Yes-No Task,,HACA03,
Yes-No Task,23,0,23,0,10,-1,Hit,0.337931337534,True,-1,stimulus_HACA03_Yes-No Task_2019_Jun_28_1409_84,-1,False,2019_Jun_28_1409,Yes-No Task,,HACA03,
Yes-No Task,24,0,24,0,10,-1,Miss,0.300659710076,True,-1,stimulus_HACA03_Yes-No Task_2019_Jun_28_1409_85,-1,False,2019_Jun_28_1409,Yes-No Task,,HACA03,
Yes-No Task,25,0,25,0,10,-1,Hit,0.265315196477,True,-1,stimulus_HACA03_Yes-No Task_2019_Jun_28_1409_86,-1,False,2019_Jun_28_1409,Yes-No Task,,HACA03,
Yes-No Task,26,0,26,0,10,-1,Hit,0.232659773901,True,-1,stimulus_HACA03_Yes-No Task_2019_Jun_28_1409_87,-1,False,2019_Jun_28_1409,Yes-No Task,,HACA03,
Yes-No Task,27,0,27,0,10,-1,False Alarm,0.332734206459,False,-1,stimulus_HACA03_Yes-No Task_2019_Jun_28_1409_88,-1,False,2019_Jun_28_1409,Yes-No Task,,HACA03,
Yes-No Task,28,0,28,0,10,-1,False Alarm,0.327823638218,False,-1,stimulus_HACA03_Yes-No Task_2019_Jun_28_1409_89,-1,False,2019_Jun_28_1409,Yes-No Task,,HACA03,
Yes-No Task,29,0,29,0,10,-1,Hit,0.367400083924,True,-1,stimulus_HACA03_Yes-No Task_2019_Jun_28_1409_90,-1,False,2019_Jun_28_1409,Yes-No Task,,HACA03,
Yes-No Task,0,0,0,0,7,-1,Correct Rejection,0.30018840055,False,-1,stimulus_HACA03_Yes-No Task_2019_Jun_28_1409_91,-1,False,2019_Jun_28_1409,Yes-No Task,,HACA03,
Yes-No Task,1,0,1,0,7,-1,Correct Rejection,0.400967744645,False,-1,stimulus_HACA03_Yes-No Task_2019_Jun_28_1409_92,-1,False,2019_Jun_28_1409,Yes-No Task,,HACA03,
Yes-No Task,2,0,2,0,7,-1,Miss,0.368823454715,True,-1,stimulus_HACA03_Yes-No Task_2019_Jun_28_1409_93,-1,False,2019_Jun_28_1409,Yes-No Task,,HACA03,
Yes-No Task,3,0,3,0,7,-1,Correct Rejection,0.466693242779,False,-1,stimulus_HACA03_Yes-No Task_2019_Jun_28_1409_94,-1,False,2019_Jun_28_1409,Yes-No Task,,HACA03,
Yes-No Task,4,0,4,0,7,-1,Correct Rejection,0.523888779338,False,-1,stimulus_HACA03_Yes-No Task_2019_Jun_28_1409_95,-1,False,2019_Jun_28_1409,Yes-No Task,,HACA03,
Yes-No Task,5,0,5,0,7,-1,Correct Rejection,0.434283738956,False,-1,stimulus_HACA03_Yes-No Task_2019_Jun_28_1409_96,-1,False,2019_Jun_28_1409,Yes-No Task,,HACA03,
Yes-No Task,6,0,6,0,7,-1,Miss,0.435247295769,True,-1,stimulus_HACA03_Yes-No Task_2019_Jun_28_1409_97,-1,False,2019_Jun_28_1409,Yes-No Task,,HACA03,
Yes-No Task,7,0,7,0,7,-1,Hit,0.434010724304,True,-1,stimulus_HACA03_Yes-No Task_2019_Jun_28_1409_98,-1,False,2019_Jun_28_1409,Yes-No Task,,HACA03,
Yes-No Task,8,0,8,0,7,-1,Miss,0.400411862181,True,-1,stimulus_HACA03_Yes-No Task_2019_Jun_28_1409_99,-1,False,2019_Jun_28_1409,Yes-No Task,,HACA03,
Yes-No Task,9,0,9,0,7,-1,Hit,0.334454814438,True,-1,stimulus_HACA03_Yes-No Task_2019_Jun_28_1409_100,-1,False,2019_Jun_28_1409,Yes-No Task,,HACA03,
Yes-No Task,10,0,10,0,7,-1,Hit,0.36734014377,True,-1,stimulus_HACA03_Yes-No Task_2019_Jun_28_1409_101,-1,False,2019_Jun_28_1409,Yes-No Task,,HACA03,
Yes-No Task,11,0,11,0,7,-1,Hit,0.405693565961,True,-1,stimulus_HACA03_Yes-No Task_2019_Jun_28_1409_102,-1,False,2019_Jun_28_1409,Yes-No Task,,HACA03,
Yes-No Task,12,0,12,0,7,-1,Miss,0.366719394689,True,-1,stimulus_HACA03_Yes-No Task_2019_Jun_28_1409_103,-1,False,2019_Jun_28_1409,Yes-No Task,,HACA03,
Yes-No Task,13,0,13,0,7,-1,Correct Rejection,0.625234269071,False,-1,stimulus_HACA03_Yes-No Task_2019_Jun_28_1409_104,-1,False,2019_Jun_28_1409,Yes-No Task,,HACA03,
Yes-No Task,14,0,14,0,7,-1,Miss,0.373518074397,True,-1,stimulus_HACA03_Yes-No Task_2019_Jun_28_1409_105,-1,False,2019_Jun_28_1409,Yes-No Task,,HACA03,
Yes-No Task,15,0,15,0,7,-1,Miss,0.466485915938,True,-1,stimulus_HACA03_Yes-No Task_2019_Jun_28_1409_106,-1,False,2019_Jun_28_1409,Yes-No Task,,HACA03,
Yes-No Task,16,0,16,0,7,-1,False Alarm,0.367364776554,False,-1,stimulus_HACA03_Yes-No Task_2019_Jun_28_1409_107,-1,False,2019_Jun_28_1409,Yes-No Task,,HACA03,
Yes-No Task,17,0,17,0,7,-1,Miss,0.492694498273,True,-1,stimulus_HACA03_Yes-No Task_2019_Jun_28_1409_108,-1,False,2019_Jun_28_1409,Yes-No Task,,HACA03,
Yes-No Task,18,0,18,0,7,-1,Correct Rejection,0.268427152419,False,-1,stimulus_HACA03_Yes-No Task_2019_Jun_28_1409_109,-1,False,2019_Jun_28_1409,Yes-No Task,,HACA03,
Yes-No Task,19,0,19,0,7,-1,Correct Rejection,0.333701047814,False,-1,stimulus_HACA03_Yes-No Task_2019_Jun_28_1409_110,-1,False,2019_Jun_28_1409,Yes-No Task,,HACA03,
Yes-No Task,20,0,20,0,7,-1,Hit,0.468959880061,True,-1,stimulus_HACA03_Yes-No Task_2019_Jun_28_1409_111,-1,False,2019_Jun_28_1409,Yes-No Task,,HACA03,
Yes-No Task,21,0,21,0,7,-1,Correct Rejection,0.364525424782,False,-1,stimulus_HACA03_Yes-No Task_2019_Jun_28_1409_112,-1,False,2019_Jun_28_1409,Yes-No Task,,HACA03,
Yes-No Task,22,0,22,0,7,-1,Correct Rejection,0.367639433593,False,-1,stimulus_HACA03_Yes-No Task_2019_Jun_28_1409_113,-1,False,2019_Jun_28_1409,Yes-No Task,,HACA03,
Yes-No Task,23,0,23,0,7,-1,Correct Rejection,0.395951254759,False,-1,stimulus_HACA03_Yes-No Task_2019_Jun_28_1409_114,-1,False,2019_Jun_28_1409,Yes-No Task,,HACA03,
Yes-No Task,24,0,24,0,7,-1,Correct Rejection,0.467665831791,False,-1,stimulus_HACA03_Yes-No Task_2019_Jun_28_1409_115,-1,False,2019_Jun_28_1409,Yes-No Task,,HACA03,
Yes-No Task,25,0,25,0,7,-1,Correct Rejection,0.327043185942,False,-1,stimulus_HACA03_Yes-No Task_2019_Jun_28_1409_116,-1,False,2019_Jun_28_1409,Yes-No Task,,HACA03,
Yes-No Task,26,0,26,0,7,-1,Miss,0.394062732579,True,-1,stimulus_HACA03_Yes-No Task_2019_Jun_28_1409_117,-1,False,2019_Jun_28_1409,Yes-No Task,,HACA03,
Yes-No Task,27,0,27,0,7,-1,Correct Rejection,0.307607829571,False,-1,stimulus_HACA03_Yes-No Task_2019_Jun_28_1409_118,-1,False,2019_Jun_28_1409,Yes-No Task,,HACA03,
Yes-No Task,28,0,28,0,7,-1,Correct Rejection,0.331300161313,False,-1,stimulus_HACA03_Yes-No Task_2019_Jun_28_1409_119,-1,False,2019_Jun_28_1409,Yes-No Task,,HACA03,
Yes-No Task,29,0,29,0,7,-1,Correct Rejection,0.334284847369,False,-1,stimulus_HACA03_Yes-No Task_2019_Jun_28_1409_120,-1,False,2019_Jun_28_1409,Yes-No Task,,HACA03,
