Task,trials.thisRepN,trials.thisTrialN,trials.thisN,trials.thisIndex,signal_intensity,constant Value,response,time_response,signal_on_stimuluspos1,signal_on_stimuluspos2,stimulus_name_pos1,stimulus_name_pos2,random_intensity,date,expName,session,participant,
Yes-No Task,0,0,0,0,5,-1,Miss,0.367902033031,True,-1,stimulus_JÖSU26_Yes-No Task_2019_Jun_12_0822_1,-1,False,2019_Jun_12_0822,Yes-No Task,1,JÖSU26,
Yes-No Task,1,0,1,0,5,-1,Correct Rejection,0.434972870629,False,-1,stimulus_JÖSU26_Yes-No Task_2019_Jun_12_0822_2,-1,False,2019_Jun_12_0822,Yes-No Task,1,JÖSU26,
Yes-No Task,2,0,2,0,5,-1,Hit,0.534181005787,True,-1,stimulus_JÖSU26_Yes-No Task_2019_Jun_12_0822_3,-1,False,2019_Jun_12_0822,Yes-No Task,1,JÖSU26,
Yes-No Task,3,0,3,0,5,-1,Correct Rejection,0.534937645774,False,-1,stimulus_JÖSU26_Yes-No Task_2019_Jun_12_0822_4,-1,False,2019_Jun_12_0822,Yes-No Task,1,JÖSU26,
Yes-No Task,4,0,4,0,5,-1,Hit,0.534027460963,True,-1,stimulus_JÖSU26_Yes-No Task_2019_Jun_12_0822_5,-1,False,2019_Jun_12_0822,Yes-No Task,1,JÖSU26,
Yes-No Task,5,0,5,0,5,-1,Hit,0.501248066314,True,-1,stimulus_JÖSU26_Yes-No Task_2019_Jun_12_0822_6,-1,False,2019_Jun_12_0822,Yes-No Task,1,JÖSU26,
Yes-No Task,6,0,6,0,5,-1,Correct Rejection,0.700354056899,False,-1,stimulus_JÖSU26_Yes-No Task_2019_Jun_12_0822_7,-1,False,2019_Jun_12_0822,Yes-No Task,1,JÖSU26,
Yes-No Task,7,0,7,0,5,-1,False Alarm,0.601175892167,False,-1,stimulus_JÖSU26_Yes-No Task_2019_Jun_12_0822_8,-1,False,2019_Jun_12_0822,Yes-No Task,1,JÖSU26,
Yes-No Task,8,0,8,0,5,-1,Hit,0.466049311683,True,-1,stimulus_JÖSU26_Yes-No Task_2019_Jun_12_0822_9,-1,False,2019_Jun_12_0822,Yes-No Task,1,JÖSU26,
Yes-No Task,9,0,9,0,5,-1,Correct Rejection,0.857857562602,False,-1,stimulus_JÖSU26_Yes-No Task_2019_Jun_12_0822_10,-1,False,2019_Jun_12_0822,Yes-No Task,1,JÖSU26,
Yes-No Task,10,0,10,0,5,-1,Hit,0.566126166377,True,-1,stimulus_JÖSU26_Yes-No Task_2019_Jun_12_0822_11,-1,False,2019_Jun_12_0822,Yes-No Task,1,JÖSU26,
Yes-No Task,11,0,11,0,5,-1,Correct Rejection,0.801142390817,False,-1,stimulus_JÖSU26_Yes-No Task_2019_Jun_12_0822_12,-1,False,2019_Jun_12_0822,Yes-No Task,1,JÖSU26,
Yes-No Task,12,0,12,0,5,-1,Correct Rejection,0.533249061555,False,-1,stimulus_JÖSU26_Yes-No Task_2019_Jun_12_0822_13,-1,False,2019_Jun_12_0822,Yes-No Task,1,JÖSU26,
Yes-No Task,13,0,13,0,5,-1,False Alarm,0.800540117081,False,-1,stimulus_JÖSU26_Yes-No Task_2019_Jun_12_0822_14,-1,False,2019_Jun_12_0822,Yes-No Task,1,JÖSU26,
Yes-No Task,14,0,14,0,5,-1,False Alarm,0.533999953885,False,-1,stimulus_JÖSU26_Yes-No Task_2019_Jun_12_0822_15,-1,False,2019_Jun_12_0822,Yes-No Task,1,JÖSU26,
Yes-No Task,15,0,15,0,5,-1,Hit,0.499193683267,True,-1,stimulus_JÖSU26_Yes-No Task_2019_Jun_12_0822_16,-1,False,2019_Jun_12_0822,Yes-No Task,1,JÖSU26,
Yes-No Task,16,0,16,0,5,-1,Hit,0.500109205954,True,-1,stimulus_JÖSU26_Yes-No Task_2019_Jun_12_0822_17,-1,False,2019_Jun_12_0822,Yes-No Task,1,JÖSU26,
Yes-No Task,17,0,17,0,5,-1,Correct Rejection,0.637028239202,False,-1,stimulus_JÖSU26_Yes-No Task_2019_Jun_12_0822_18,-1,False,2019_Jun_12_0822,Yes-No Task,1,JÖSU26,
Yes-No Task,18,0,18,0,5,-1,No Answer,-1,False,-1,stimulus_JÖSU26_Yes-No Task_2019_Jun_12_0822_19,-1,False,2019_Jun_12_0822,Yes-No Task,1,JÖSU26,
Yes-No Task,19,0,19,0,5,-1,False Alarm,0.734957105946,False,-1,stimulus_JÖSU26_Yes-No Task_2019_Jun_12_0822_20,-1,False,2019_Jun_12_0822,Yes-No Task,1,JÖSU26,
Yes-No Task,20,0,20,0,5,-1,Hit,0.466611762531,True,-1,stimulus_JÖSU26_Yes-No Task_2019_Jun_12_0822_21,-1,False,2019_Jun_12_0822,Yes-No Task,1,JÖSU26,
Yes-No Task,21,0,21,0,5,-1,Hit,0.534744278062,True,-1,stimulus_JÖSU26_Yes-No Task_2019_Jun_12_0822_22,-1,False,2019_Jun_12_0822,Yes-No Task,1,JÖSU26,
Yes-No Task,22,0,22,0,5,-1,Hit,0.492005396169,True,-1,stimulus_JÖSU26_Yes-No Task_2019_Jun_12_0822_23,-1,False,2019_Jun_12_0822,Yes-No Task,1,JÖSU26,
Yes-No Task,23,0,23,0,5,-1,Hit,0.499974956736,True,-1,stimulus_JÖSU26_Yes-No Task_2019_Jun_12_0822_24,-1,False,2019_Jun_12_0822,Yes-No Task,1,JÖSU26,
Yes-No Task,24,0,24,0,5,-1,Hit,0.732288132422,True,-1,stimulus_JÖSU26_Yes-No Task_2019_Jun_12_0822_25,-1,False,2019_Jun_12_0822,Yes-No Task,1,JÖSU26,
Yes-No Task,25,0,25,0,5,-1,Hit,0.533514275681,True,-1,stimulus_JÖSU26_Yes-No Task_2019_Jun_12_0822_26,-1,False,2019_Jun_12_0822,Yes-No Task,1,JÖSU26,
Yes-No Task,26,0,26,0,5,-1,Hit,0.467441480141,True,-1,stimulus_JÖSU26_Yes-No Task_2019_Jun_12_0822_27,-1,False,2019_Jun_12_0822,Yes-No Task,1,JÖSU26,
Yes-No Task,27,0,27,0,5,-1,Hit,0.491537781898,True,-1,stimulus_JÖSU26_Yes-No Task_2019_Jun_12_0822_28,-1,False,2019_Jun_12_0822,Yes-No Task,1,JÖSU26,
Yes-No Task,28,0,28,0,5,-1,Hit,0.433961280622,True,-1,stimulus_JÖSU26_Yes-No Task_2019_Jun_12_0822_29,-1,False,2019_Jun_12_0822,Yes-No Task,1,JÖSU26,
Yes-No Task,29,0,29,0,5,-1,Hit,0.465901514515,True,-1,stimulus_JÖSU26_Yes-No Task_2019_Jun_12_0822_30,-1,False,2019_Jun_12_0822,Yes-No Task,1,JÖSU26,
Yes-No Task,0,0,0,0,1,-1,Hit,0.50111504877,True,-1,stimulus_JÖSU26_Yes-No Task_2019_Jun_12_0822_31,-1,False,2019_Jun_12_0822,Yes-No Task,1,JÖSU26,
Yes-No Task,1,0,1,0,1,-1,Hit,0.433418124914,True,-1,stimulus_JÖSU26_Yes-No Task_2019_Jun_12_0822_32,-1,False,2019_Jun_12_0822,Yes-No Task,1,JÖSU26,
Yes-No Task,2,0,2,0,1,-1,False Alarm,0.500438875984,False,-1,stimulus_JÖSU26_Yes-No Task_2019_Jun_12_0822_33,-1,False,2019_Jun_12_0822,Yes-No Task,1,JÖSU26,
Yes-No Task,3,0,3,0,1,-1,Hit,0.501063730102,True,-1,stimulus_JÖSU26_Yes-No Task_2019_Jun_12_0822_34,-1,False,2019_Jun_12_0822,Yes-No Task,1,JÖSU26,
Yes-No Task,4,0,4,0,1,-1,Hit,0.601647611707,True,-1,stimulus_JÖSU26_Yes-No Task_2019_Jun_12_0822_35,-1,False,2019_Jun_12_0822,Yes-No Task,1,JÖSU26,
Yes-No Task,5,0,5,0,1,-1,False Alarm,0.46961163776,False,-1,stimulus_JÖSU26_Yes-No Task_2019_Jun_12_0822_36,-1,False,2019_Jun_12_0822,Yes-No Task,1,JÖSU26,
Yes-No Task,6,0,6,0,1,-1,False Alarm,0.50051031122,False,-1,stimulus_JÖSU26_Yes-No Task_2019_Jun_12_0822_37,-1,False,2019_Jun_12_0822,Yes-No Task,1,JÖSU26,
Yes-No Task,7,0,7,0,1,-1,Correct Rejection,0.592108115088,False,-1,stimulus_JÖSU26_Yes-No Task_2019_Jun_12_0822_38,-1,False,2019_Jun_12_0822,Yes-No Task,1,JÖSU26,
Yes-No Task,8,0,8,0,1,-1,False Alarm,0.536368817091,False,-1,stimulus_JÖSU26_Yes-No Task_2019_Jun_12_0822_39,-1,False,2019_Jun_12_0822,Yes-No Task,1,JÖSU26,
Yes-No Task,9,0,9,0,1,-1,Miss,0.534730318934,True,-1,stimulus_JÖSU26_Yes-No Task_2019_Jun_12_0822_40,-1,False,2019_Jun_12_0822,Yes-No Task,1,JÖSU26,
Yes-No Task,10,0,10,0,1,-1,False Alarm,0.600141311064,False,-1,stimulus_JÖSU26_Yes-No Task_2019_Jun_12_0822_41,-1,False,2019_Jun_12_0822,Yes-No Task,1,JÖSU26,
Yes-No Task,11,0,11,0,1,-1,Miss,0.702466737479,True,-1,stimulus_JÖSU26_Yes-No Task_2019_Jun_12_0822_42,-1,False,2019_Jun_12_0822,Yes-No Task,1,JÖSU26,
Yes-No Task,12,0,12,0,1,-1,Miss,0.534247514326,True,-1,stimulus_JÖSU26_Yes-No Task_2019_Jun_12_0822_43,-1,False,2019_Jun_12_0822,Yes-No Task,1,JÖSU26,
Yes-No Task,13,0,13,0,1,-1,Hit,0.501050182153,True,-1,stimulus_JÖSU26_Yes-No Task_2019_Jun_12_0822_44,-1,False,2019_Jun_12_0822,Yes-No Task,1,JÖSU26,
Yes-No Task,14,0,14,0,1,-1,Hit,0.502008812036,True,-1,stimulus_JÖSU26_Yes-No Task_2019_Jun_12_0822_45,-1,False,2019_Jun_12_0822,Yes-No Task,1,JÖSU26,
Yes-No Task,15,0,15,0,1,-1,Hit,0.43453810038,True,-1,stimulus_JÖSU26_Yes-No Task_2019_Jun_12_0822_46,-1,False,2019_Jun_12_0822,Yes-No Task,1,JÖSU26,
Yes-No Task,16,0,16,0,1,-1,False Alarm,0.802354739979,False,-1,stimulus_JÖSU26_Yes-No Task_2019_Jun_12_0822_47,-1,False,2019_Jun_12_0822,Yes-No Task,1,JÖSU26,
Yes-No Task,17,0,17,0,1,-1,Miss,0.400972095784,True,-1,stimulus_JÖSU26_Yes-No Task_2019_Jun_12_0822_48,-1,False,2019_Jun_12_0822,Yes-No Task,1,JÖSU26,
Yes-No Task,18,0,18,0,1,-1,Hit,0.532422628254,True,-1,stimulus_JÖSU26_Yes-No Task_2019_Jun_12_0822_49,-1,False,2019_Jun_12_0822,Yes-No Task,1,JÖSU26,
Yes-No Task,19,0,19,0,1,-1,Correct Rejection,0.702312781941,False,-1,stimulus_JÖSU26_Yes-No Task_2019_Jun_12_0822_50,-1,False,2019_Jun_12_0822,Yes-No Task,1,JÖSU26,
Yes-No Task,20,0,20,0,1,-1,Miss,0.591560854577,True,-1,stimulus_JÖSU26_Yes-No Task_2019_Jun_12_0822_51,-1,False,2019_Jun_12_0822,Yes-No Task,1,JÖSU26,
Yes-No Task,21,0,21,0,1,-1,Correct Rejection,0.568327935878,False,-1,stimulus_JÖSU26_Yes-No Task_2019_Jun_12_0822_52,-1,False,2019_Jun_12_0822,Yes-No Task,1,JÖSU26,
Yes-No Task,22,0,22,0,1,-1,Miss,0.733414676972,True,-1,stimulus_JÖSU26_Yes-No Task_2019_Jun_12_0822_53,-1,False,2019_Jun_12_0822,Yes-No Task,1,JÖSU26,
Yes-No Task,23,0,23,0,1,-1,False Alarm,0.603909732308,False,-1,stimulus_JÖSU26_Yes-No Task_2019_Jun_12_0822_54,-1,False,2019_Jun_12_0822,Yes-No Task,1,JÖSU26,
Yes-No Task,24,0,24,0,1,-1,Miss,0.801672819536,True,-1,stimulus_JÖSU26_Yes-No Task_2019_Jun_12_0822_55,-1,False,2019_Jun_12_0822,Yes-No Task,1,JÖSU26,
Yes-No Task,25,0,25,0,1,-1,No Answer,-1,True,-1,stimulus_JÖSU26_Yes-No Task_2019_Jun_12_0822_56,-1,False,2019_Jun_12_0822,Yes-No Task,1,JÖSU26,
Yes-No Task,26,0,26,0,1,-1,Correct Rejection,0.502695659176,False,-1,stimulus_JÖSU26_Yes-No Task_2019_Jun_12_0822_57,-1,False,2019_Jun_12_0822,Yes-No Task,1,JÖSU26,
Yes-No Task,27,0,27,0,1,-1,Miss,0.458600326441,True,-1,stimulus_JÖSU26_Yes-No Task_2019_Jun_12_0822_58,-1,False,2019_Jun_12_0822,Yes-No Task,1,JÖSU26,
Yes-No Task,28,0,28,0,1,-1,False Alarm,0.63046193216,False,-1,stimulus_JÖSU26_Yes-No Task_2019_Jun_12_0822_59,-1,False,2019_Jun_12_0822,Yes-No Task,1,JÖSU26,
Yes-No Task,29,0,29,0,1,-1,Correct Rejection,0.435425295029,False,-1,stimulus_JÖSU26_Yes-No Task_2019_Jun_12_0822_60,-1,False,2019_Jun_12_0822,Yes-No Task,1,JÖSU26,
Yes-No Task,0,0,0,0,7,-1,Hit,0.666930101812,True,-1,stimulus_JÖSU26_Yes-No Task_2019_Jun_12_0822_61,-1,False,2019_Jun_12_0822,Yes-No Task,1,JÖSU26,
Yes-No Task,1,0,1,0,7,-1,Correct Rejection,0.402255058754,False,-1,stimulus_JÖSU26_Yes-No Task_2019_Jun_12_0822_62,-1,False,2019_Jun_12_0822,Yes-No Task,1,JÖSU26,
Yes-No Task,2,0,2,0,7,-1,False Alarm,0.635165992659,False,-1,stimulus_JÖSU26_Yes-No Task_2019_Jun_12_0822_63,-1,False,2019_Jun_12_0822,Yes-No Task,1,JÖSU26,
Yes-No Task,3,0,3,0,7,-1,Correct Rejection,0.372071560007,False,-1,stimulus_JÖSU26_Yes-No Task_2019_Jun_12_0822_64,-1,False,2019_Jun_12_0822,Yes-No Task,1,JÖSU26,
Yes-No Task,4,0,4,0,7,-1,Correct Rejection,0.400903944857,False,-1,stimulus_JÖSU26_Yes-No Task_2019_Jun_12_0822_65,-1,False,2019_Jun_12_0822,Yes-No Task,1,JÖSU26,
Yes-No Task,5,0,5,0,7,-1,Hit,0.436494772788,True,-1,stimulus_JÖSU26_Yes-No Task_2019_Jun_12_0822_66,-1,False,2019_Jun_12_0822,Yes-No Task,1,JÖSU26,
Yes-No Task,6,0,6,0,7,-1,Correct Rejection,0.499917890411,False,-1,stimulus_JÖSU26_Yes-No Task_2019_Jun_12_0822_67,-1,False,2019_Jun_12_0822,Yes-No Task,1,JÖSU26,
Yes-No Task,7,0,7,0,7,-1,Miss,0.401723399293,True,-1,stimulus_JÖSU26_Yes-No Task_2019_Jun_12_0822_68,-1,False,2019_Jun_12_0822,Yes-No Task,1,JÖSU26,
Yes-No Task,8,0,8,0,7,-1,Hit,0.500876520295,True,-1,stimulus_JÖSU26_Yes-No Task_2019_Jun_12_0822_69,-1,False,2019_Jun_12_0822,Yes-No Task,1,JÖSU26,
Yes-No Task,9,0,9,0,7,-1,Miss,0.598209271207,True,-1,stimulus_JÖSU26_Yes-No Task_2019_Jun_12_0822_70,-1,False,2019_Jun_12_0822,Yes-No Task,1,JÖSU26,
Yes-No Task,10,0,10,0,7,-1,Hit,0.735022793524,True,-1,stimulus_JÖSU26_Yes-No Task_2019_Jun_12_0822_71,-1,False,2019_Jun_12_0822,Yes-No Task,1,JÖSU26,
Yes-No Task,11,0,11,0,7,-1,Correct Rejection,0.498272824101,False,-1,stimulus_JÖSU26_Yes-No Task_2019_Jun_12_0822_72,-1,False,2019_Jun_12_0822,Yes-No Task,1,JÖSU26,
Yes-No Task,12,0,12,0,7,-1,Correct Rejection,0.434373470489,False,-1,stimulus_JÖSU26_Yes-No Task_2019_Jun_12_0822_73,-1,False,2019_Jun_12_0822,Yes-No Task,1,JÖSU26,
Yes-No Task,13,0,13,0,7,-1,Miss,0.401843279134,True,-1,stimulus_JÖSU26_Yes-No Task_2019_Jun_12_0822_74,-1,False,2019_Jun_12_0822,Yes-No Task,1,JÖSU26,
Yes-No Task,14,0,14,0,7,-1,Hit,0.669268173631,True,-1,stimulus_JÖSU26_Yes-No Task_2019_Jun_12_0822_75,-1,False,2019_Jun_12_0822,Yes-No Task,1,JÖSU26,
Yes-No Task,15,0,15,0,7,-1,Hit,0.534334961325,True,-1,stimulus_JÖSU26_Yes-No Task_2019_Jun_12_0822_76,-1,False,2019_Jun_12_0822,Yes-No Task,1,JÖSU26,
Yes-No Task,16,0,16,0,7,-1,Correct Rejection,0.733787043951,False,-1,stimulus_JÖSU26_Yes-No Task_2019_Jun_12_0822_77,-1,False,2019_Jun_12_0822,Yes-No Task,1,JÖSU26,
Yes-No Task,17,0,17,0,7,-1,Hit,0.501006253529,True,-1,stimulus_JÖSU26_Yes-No Task_2019_Jun_12_0822_78,-1,False,2019_Jun_12_0822,Yes-No Task,1,JÖSU26,
Yes-No Task,18,0,18,0,7,-1,No Answer,-1,True,-1,stimulus_JÖSU26_Yes-No Task_2019_Jun_12_0822_79,-1,False,2019_Jun_12_0822,Yes-No Task,1,JÖSU26,
Yes-No Task,19,0,19,0,7,-1,Miss,0.400130882859,True,-1,stimulus_JÖSU26_Yes-No Task_2019_Jun_12_0822_80,-1,False,2019_Jun_12_0822,Yes-No Task,1,JÖSU26,
Yes-No Task,20,0,20,0,7,-1,Hit,0.833951755427,True,-1,stimulus_JÖSU26_Yes-No Task_2019_Jun_12_0822_81,-1,False,2019_Jun_12_0822,Yes-No Task,1,JÖSU26,
Yes-No Task,21,0,21,0,7,-1,Miss,0.730604474898,True,-1,stimulus_JÖSU26_Yes-No Task_2019_Jun_12_0822_82,-1,False,2019_Jun_12_0822,Yes-No Task,1,JÖSU26,
Yes-No Task,22,0,22,0,7,-1,Hit,0.591934863944,True,-1,stimulus_JÖSU26_Yes-No Task_2019_Jun_12_0822_83,-1,False,2019_Jun_12_0822,Yes-No Task,1,JÖSU26,
Yes-No Task,23,0,23,0,7,-1,Hit,0.501927933656,True,-1,stimulus_JÖSU26_Yes-No Task_2019_Jun_12_0822_84,-1,False,2019_Jun_12_0822,Yes-No Task,1,JÖSU26,
Yes-No Task,24,0,24,0,7,-1,Hit,0.434410009533,True,-1,stimulus_JÖSU26_Yes-No Task_2019_Jun_12_0822_85,-1,False,2019_Jun_12_0822,Yes-No Task,1,JÖSU26,
Yes-No Task,25,0,25,0,7,-1,Correct Rejection,0.601271139458,False,-1,stimulus_JÖSU26_Yes-No Task_2019_Jun_12_0822_86,-1,False,2019_Jun_12_0822,Yes-No Task,1,JÖSU26,
Yes-No Task,26,0,26,0,7,-1,Correct Rejection,0.457231969573,False,-1,stimulus_JÖSU26_Yes-No Task_2019_Jun_12_0822_87,-1,False,2019_Jun_12_0822,Yes-No Task,1,JÖSU26,
Yes-No Task,27,0,27,0,7,-1,Correct Rejection,0.435015568044,False,-1,stimulus_JÖSU26_Yes-No Task_2019_Jun_12_0822_88,-1,False,2019_Jun_12_0822,Yes-No Task,1,JÖSU26,
Yes-No Task,28,0,28,0,7,-1,Hit,0.505055900197,True,-1,stimulus_JÖSU26_Yes-No Task_2019_Jun_12_0822_89,-1,False,2019_Jun_12_0822,Yes-No Task,1,JÖSU26,
Yes-No Task,29,0,29,0,7,-1,Correct Rejection,0.501109711826,False,-1,stimulus_JÖSU26_Yes-No Task_2019_Jun_12_0822_90,-1,False,2019_Jun_12_0822,Yes-No Task,1,JÖSU26,
Yes-No Task,0,0,0,0,4,-1,Miss,0.633377234917,True,-1,stimulus_JÖSU26_Yes-No Task_2019_Jun_12_0822_91,-1,False,2019_Jun_12_0822,Yes-No Task,1,JÖSU26,
Yes-No Task,1,0,1,0,4,-1,Correct Rejection,0.63372907415,False,-1,stimulus_JÖSU26_Yes-No Task_2019_Jun_12_0822_92,-1,False,2019_Jun_12_0822,Yes-No Task,1,JÖSU26,
Yes-No Task,2,0,2,0,4,-1,Miss,0.568702766206,True,-1,stimulus_JÖSU26_Yes-No Task_2019_Jun_12_0822_93,-1,False,2019_Jun_12_0822,Yes-No Task,1,JÖSU26,
Yes-No Task,3,0,3,0,4,-1,Miss,0.433772017714,True,-1,stimulus_JÖSU26_Yes-No Task_2019_Jun_12_0822_94,-1,False,2019_Jun_12_0822,Yes-No Task,1,JÖSU26,
Yes-No Task,4,0,4,0,4,-1,Correct Rejection,0.525220792741,False,-1,stimulus_JÖSU26_Yes-No Task_2019_Jun_12_0822_95,-1,False,2019_Jun_12_0822,Yes-No Task,1,JÖSU26,
Yes-No Task,5,0,5,0,4,-1,Correct Rejection,0.500631833449,False,-1,stimulus_JÖSU26_Yes-No Task_2019_Jun_12_0822_96,-1,False,2019_Jun_12_0822,Yes-No Task,1,JÖSU26,
Yes-No Task,6,0,6,0,4,-1,Correct Rejection,0.702669137623,False,-1,stimulus_JÖSU26_Yes-No Task_2019_Jun_12_0822_97,-1,False,2019_Jun_12_0822,Yes-No Task,1,JÖSU26,
Yes-No Task,7,0,7,0,4,-1,Miss,0.459477667697,True,-1,stimulus_JÖSU26_Yes-No Task_2019_Jun_12_0822_98,-1,False,2019_Jun_12_0822,Yes-No Task,1,JÖSU26,
Yes-No Task,8,0,8,0,4,-1,Hit,0.836518502794,True,-1,stimulus_JÖSU26_Yes-No Task_2019_Jun_12_0822_99,-1,False,2019_Jun_12_0822,Yes-No Task,1,JÖSU26,
Yes-No Task,9,0,9,0,4,-1,Correct Rejection,0.462584285531,False,-1,stimulus_JÖSU26_Yes-No Task_2019_Jun_12_0822_100,-1,False,2019_Jun_12_0822,Yes-No Task,1,JÖSU26,
Yes-No Task,10,0,10,0,4,-1,Miss,0.667410443071,True,-1,stimulus_JÖSU26_Yes-No Task_2019_Jun_12_0822_101,-1,False,2019_Jun_12_0822,Yes-No Task,1,JÖSU26,
Yes-No Task,11,0,11,0,4,-1,Hit,0.659291032702,True,-1,stimulus_JÖSU26_Yes-No Task_2019_Jun_12_0822_102,-1,False,2019_Jun_12_0822,Yes-No Task,1,JÖSU26,
Yes-No Task,12,0,12,0,4,-1,Correct Rejection,0.567474816926,False,-1,stimulus_JÖSU26_Yes-No Task_2019_Jun_12_0822_103,-1,False,2019_Jun_12_0822,Yes-No Task,1,JÖSU26,
Yes-No Task,13,0,13,0,4,-1,Correct Rejection,0.434114414733,False,-1,stimulus_JÖSU26_Yes-No Task_2019_Jun_12_0822_104,-1,False,2019_Jun_12_0822,Yes-No Task,1,JÖSU26,
Yes-No Task,14,0,14,0,4,-1,Correct Rejection,0.65932141291,False,-1,stimulus_JÖSU26_Yes-No Task_2019_Jun_12_0822_105,-1,False,2019_Jun_12_0822,Yes-No Task,1,JÖSU26,
Yes-No Task,15,0,15,0,4,-1,False Alarm,0.725268991198,False,-1,stimulus_JÖSU26_Yes-No Task_2019_Jun_12_0822_106,-1,False,2019_Jun_12_0822,Yes-No Task,1,JÖSU26,
Yes-No Task,16,0,16,0,4,-1,Correct Rejection,0.591539917048,False,-1,stimulus_JÖSU26_Yes-No Task_2019_Jun_12_0822_107,-1,False,2019_Jun_12_0822,Yes-No Task,1,JÖSU26,
Yes-No Task,17,0,17,0,4,-1,Miss,0.403259259649,True,-1,stimulus_JÖSU26_Yes-No Task_2019_Jun_12_0822_108,-1,False,2019_Jun_12_0822,Yes-No Task,1,JÖSU26,
Yes-No Task,18,0,18,0,4,-1,Correct Rejection,0.509246775415,False,-1,stimulus_JÖSU26_Yes-No Task_2019_Jun_12_0822_109,-1,False,2019_Jun_12_0822,Yes-No Task,1,JÖSU26,
Yes-No Task,19,0,19,0,4,-1,Correct Rejection,0.534947499167,False,-1,stimulus_JÖSU26_Yes-No Task_2019_Jun_12_0822_110,-1,False,2019_Jun_12_0822,Yes-No Task,1,JÖSU26,
Yes-No Task,20,0,20,0,4,-1,Correct Rejection,0.535482854117,False,-1,stimulus_JÖSU26_Yes-No Task_2019_Jun_12_0822_111,-1,False,2019_Jun_12_0822,Yes-No Task,1,JÖSU26,
Yes-No Task,21,0,21,0,4,-1,Miss,0.6020203894,True,-1,stimulus_JÖSU26_Yes-No Task_2019_Jun_12_0822_112,-1,False,2019_Jun_12_0822,Yes-No Task,1,JÖSU26,
Yes-No Task,22,0,22,0,4,-1,Miss,0.432713213842,True,-1,stimulus_JÖSU26_Yes-No Task_2019_Jun_12_0822_113,-1,False,2019_Jun_12_0822,Yes-No Task,1,JÖSU26,
Yes-No Task,23,0,23,0,4,-1,Miss,0.401395781897,True,-1,stimulus_JÖSU26_Yes-No Task_2019_Jun_12_0822_114,-1,False,2019_Jun_12_0822,Yes-No Task,1,JÖSU26,
Yes-No Task,24,0,24,0,4,-1,Correct Rejection,0.470684811007,False,-1,stimulus_JÖSU26_Yes-No Task_2019_Jun_12_0822_115,-1,False,2019_Jun_12_0822,Yes-No Task,1,JÖSU26,
Yes-No Task,25,0,25,0,4,-1,Correct Rejection,0.466696335468,False,-1,stimulus_JÖSU26_Yes-No Task_2019_Jun_12_0822_116,-1,False,2019_Jun_12_0822,Yes-No Task,1,JÖSU26,
Yes-No Task,26,0,26,0,4,-1,Miss,0.432323603891,True,-1,stimulus_JÖSU26_Yes-No Task_2019_Jun_12_0822_117,-1,False,2019_Jun_12_0822,Yes-No Task,1,JÖSU26,
Yes-No Task,27,0,27,0,4,-1,Correct Rejection,0.434660854284,False,-1,stimulus_JÖSU26_Yes-No Task_2019_Jun_12_0822_118,-1,False,2019_Jun_12_0822,Yes-No Task,1,JÖSU26,
Yes-No Task,28,0,28,0,4,-1,Correct Rejection,0.434774986934,False,-1,stimulus_JÖSU26_Yes-No Task_2019_Jun_12_0822_119,-1,False,2019_Jun_12_0822,Yes-No Task,1,JÖSU26,
Yes-No Task,29,0,29,0,4,-1,Correct Rejection,0.665152838919,False,-1,stimulus_JÖSU26_Yes-No Task_2019_Jun_12_0822_120,-1,False,2019_Jun_12_0822,Yes-No Task,1,JÖSU26,
