Task,trials.thisRepN,trials.thisTrialN,trials.thisN,trials.thisIndex,signal_intensity,constant Value,response,time_response,signal_on_stimuluspos1,signal_on_stimuluspos2,stimulus_name_pos1,stimulus_name_pos2,random_intensity,date,expName,session,participant,
Yes-No Task,0,0,0,0,7,-1,Miss,0.434744700091,True,-1,stimulus_KLRU16_Yes-No Task_2019_Jun_13_1419_1,-1,False,2019_Jun_13_1419,Yes-No Task,1,KLRU16,
Yes-No Task,1,0,1,0,7,-1,False Alarm,0.600273400079,False,-1,stimulus_KLRU16_Yes-No Task_2019_Jun_13_1419_2,-1,False,2019_Jun_13_1419,Yes-No Task,1,KLRU16,
Yes-No Task,2,0,2,0,7,-1,Miss,0.367221999913,True,-1,stimulus_KLRU16_Yes-No Task_2019_Jun_13_1419_3,-1,False,2019_Jun_13_1419,Yes-No Task,1,KLRU16,
Yes-No Task,3,0,3,0,7,-1,Correct Rejection,0.567346600117,False,-1,stimulus_KLRU16_Yes-No Task_2019_Jun_13_1419_4,-1,False,2019_Jun_13_1419,Yes-No Task,1,KLRU16,
Yes-No Task,4,0,4,0,7,-1,Miss,0.467310200213,True,-1,stimulus_KLRU16_Yes-No Task_2019_Jun_13_1419_5,-1,False,2019_Jun_13_1419,Yes-No Task,1,KLRU16,
Yes-No Task,5,0,5,0,7,-1,Correct Rejection,0.568170999875,False,-1,stimulus_KLRU16_Yes-No Task_2019_Jun_13_1419_6,-1,False,2019_Jun_13_1419,Yes-No Task,1,KLRU16,
Yes-No Task,6,0,6,0,7,-1,Correct Rejection,0.600555900019,False,-1,stimulus_KLRU16_Yes-No Task_2019_Jun_13_1419_7,-1,False,2019_Jun_13_1419,Yes-No Task,1,KLRU16,
Yes-No Task,7,0,7,0,7,-1,Correct Rejection,0.566971000051,False,-1,stimulus_KLRU16_Yes-No Task_2019_Jun_13_1419_8,-1,False,2019_Jun_13_1419,Yes-No Task,1,KLRU16,
Yes-No Task,8,0,8,0,7,-1,Correct Rejection,0.600449200021,False,-1,stimulus_KLRU16_Yes-No Task_2019_Jun_13_1419_9,-1,False,2019_Jun_13_1419,Yes-No Task,1,KLRU16,
Yes-No Task,9,0,9,0,7,-1,False Alarm,0.600543600041,False,-1,stimulus_KLRU16_Yes-No Task_2019_Jun_13_1419_10,-1,False,2019_Jun_13_1419,Yes-No Task,1,KLRU16,
Yes-No Task,10,0,10,0,7,-1,Correct Rejection,0.701429500012,False,-1,stimulus_KLRU16_Yes-No Task_2019_Jun_13_1419_11,-1,False,2019_Jun_13_1419,Yes-No Task,1,KLRU16,
Yes-No Task,11,0,11,0,7,-1,Hit,0.602226499934,True,-1,stimulus_KLRU16_Yes-No Task_2019_Jun_13_1419_12,-1,False,2019_Jun_13_1419,Yes-No Task,1,KLRU16,
Yes-No Task,12,0,12,0,7,-1,Correct Rejection,0.699965799926,False,-1,stimulus_KLRU16_Yes-No Task_2019_Jun_13_1419_13,-1,False,2019_Jun_13_1419,Yes-No Task,1,KLRU16,
Yes-No Task,13,0,13,0,7,-1,Hit,0.567204700084,True,-1,stimulus_KLRU16_Yes-No Task_2019_Jun_13_1419_14,-1,False,2019_Jun_13_1419,Yes-No Task,1,KLRU16,
Yes-No Task,14,0,14,0,7,-1,Hit,0.633457500022,True,-1,stimulus_KLRU16_Yes-No Task_2019_Jun_13_1419_15,-1,False,2019_Jun_13_1419,Yes-No Task,1,KLRU16,
Yes-No Task,15,0,15,0,7,-1,Hit,0.667269199854,True,-1,stimulus_KLRU16_Yes-No Task_2019_Jun_13_1419_16,-1,False,2019_Jun_13_1419,Yes-No Task,1,KLRU16,
Yes-No Task,16,0,16,0,7,-1,Hit,0.668220000109,True,-1,stimulus_KLRU16_Yes-No Task_2019_Jun_13_1419_17,-1,False,2019_Jun_13_1419,Yes-No Task,1,KLRU16,
Yes-No Task,17,0,17,0,7,-1,Hit,0.634602899896,True,-1,stimulus_KLRU16_Yes-No Task_2019_Jun_13_1419_18,-1,False,2019_Jun_13_1419,Yes-No Task,1,KLRU16,
Yes-No Task,18,0,18,0,7,-1,Correct Rejection,0.867803100031,False,-1,stimulus_KLRU16_Yes-No Task_2019_Jun_13_1419_19,-1,False,2019_Jun_13_1419,Yes-No Task,1,KLRU16,
Yes-No Task,19,0,19,0,7,-1,False Alarm,0.76723550004,False,-1,stimulus_KLRU16_Yes-No Task_2019_Jun_13_1419_20,-1,False,2019_Jun_13_1419,Yes-No Task,1,KLRU16,
Yes-No Task,20,0,20,0,7,-1,Correct Rejection,0.702287700027,False,-1,stimulus_KLRU16_Yes-No Task_2019_Jun_13_1419_21,-1,False,2019_Jun_13_1419,Yes-No Task,1,KLRU16,
Yes-No Task,21,0,21,0,7,-1,Miss,0.768074799795,True,-1,stimulus_KLRU16_Yes-No Task_2019_Jun_13_1419_22,-1,False,2019_Jun_13_1419,Yes-No Task,1,KLRU16,
Yes-No Task,22,0,22,0,7,-1,Correct Rejection,0.568667500047,False,-1,stimulus_KLRU16_Yes-No Task_2019_Jun_13_1419_23,-1,False,2019_Jun_13_1419,Yes-No Task,1,KLRU16,
Yes-No Task,23,0,23,0,7,-1,False Alarm,0.668506100075,False,-1,stimulus_KLRU16_Yes-No Task_2019_Jun_13_1419_24,-1,False,2019_Jun_13_1419,Yes-No Task,1,KLRU16,
Yes-No Task,24,0,24,0,7,-1,Correct Rejection,0.599663000088,False,-1,stimulus_KLRU16_Yes-No Task_2019_Jun_13_1419_25,-1,False,2019_Jun_13_1419,Yes-No Task,1,KLRU16,
Yes-No Task,25,0,25,0,7,-1,Hit,0.701041399967,True,-1,stimulus_KLRU16_Yes-No Task_2019_Jun_13_1419_26,-1,False,2019_Jun_13_1419,Yes-No Task,1,KLRU16,
Yes-No Task,26,0,26,0,7,-1,Miss,0.700611099834,True,-1,stimulus_KLRU16_Yes-No Task_2019_Jun_13_1419_27,-1,False,2019_Jun_13_1419,Yes-No Task,1,KLRU16,
Yes-No Task,27,0,27,0,7,-1,False Alarm,0.734038399998,False,-1,stimulus_KLRU16_Yes-No Task_2019_Jun_13_1419_28,-1,False,2019_Jun_13_1419,Yes-No Task,1,KLRU16,
Yes-No Task,28,0,28,0,7,-1,Hit,0.667276699794,True,-1,stimulus_KLRU16_Yes-No Task_2019_Jun_13_1419_29,-1,False,2019_Jun_13_1419,Yes-No Task,1,KLRU16,
Yes-No Task,29,0,29,0,7,-1,Correct Rejection,0.767233500024,False,-1,stimulus_KLRU16_Yes-No Task_2019_Jun_13_1419_30,-1,False,2019_Jun_13_1419,Yes-No Task,1,KLRU16,
Yes-No Task,0,0,0,0,2,-1,False Alarm,0.702222200111,False,-1,stimulus_KLRU16_Yes-No Task_2019_Jun_13_1419_31,-1,False,2019_Jun_13_1419,Yes-No Task,1,KLRU16,
Yes-No Task,1,0,1,0,2,-1,Correct Rejection,0.766283400124,False,-1,stimulus_KLRU16_Yes-No Task_2019_Jun_13_1419_32,-1,False,2019_Jun_13_1419,Yes-No Task,1,KLRU16,
Yes-No Task,2,0,2,0,2,-1,Correct Rejection,0.600564700086,False,-1,stimulus_KLRU16_Yes-No Task_2019_Jun_13_1419_33,-1,False,2019_Jun_13_1419,Yes-No Task,1,KLRU16,
Yes-No Task,3,0,3,0,2,-1,Miss,0.501770900097,True,-1,stimulus_KLRU16_Yes-No Task_2019_Jun_13_1419_34,-1,False,2019_Jun_13_1419,Yes-No Task,1,KLRU16,
Yes-No Task,4,0,4,0,2,-1,Hit,0.600765200099,True,-1,stimulus_KLRU16_Yes-No Task_2019_Jun_13_1419_35,-1,False,2019_Jun_13_1419,Yes-No Task,1,KLRU16,
Yes-No Task,5,0,5,0,2,-1,Hit,0.767447300022,True,-1,stimulus_KLRU16_Yes-No Task_2019_Jun_13_1419_36,-1,False,2019_Jun_13_1419,Yes-No Task,1,KLRU16,
Yes-No Task,6,0,6,0,2,-1,Miss,0.700735500082,True,-1,stimulus_KLRU16_Yes-No Task_2019_Jun_13_1419_37,-1,False,2019_Jun_13_1419,Yes-No Task,1,KLRU16,
Yes-No Task,7,0,7,0,2,-1,False Alarm,0.600802500034,False,-1,stimulus_KLRU16_Yes-No Task_2019_Jun_13_1419_38,-1,False,2019_Jun_13_1419,Yes-No Task,1,KLRU16,
Yes-No Task,8,0,8,0,2,-1,Miss,0.633916999912,True,-1,stimulus_KLRU16_Yes-No Task_2019_Jun_13_1419_39,-1,False,2019_Jun_13_1419,Yes-No Task,1,KLRU16,
Yes-No Task,9,0,9,0,2,-1,Miss,0.667679300066,True,-1,stimulus_KLRU16_Yes-No Task_2019_Jun_13_1419_40,-1,False,2019_Jun_13_1419,Yes-No Task,1,KLRU16,
Yes-No Task,10,0,10,0,2,-1,Hit,0.667654799996,True,-1,stimulus_KLRU16_Yes-No Task_2019_Jun_13_1419_41,-1,False,2019_Jun_13_1419,Yes-No Task,1,KLRU16,
Yes-No Task,11,0,11,0,2,-1,Miss,0.600873000221,True,-1,stimulus_KLRU16_Yes-No Task_2019_Jun_13_1419_42,-1,False,2019_Jun_13_1419,Yes-No Task,1,KLRU16,
Yes-No Task,12,0,12,0,2,-1,False Alarm,0.597715500044,False,-1,stimulus_KLRU16_Yes-No Task_2019_Jun_13_1419_43,-1,False,2019_Jun_13_1419,Yes-No Task,1,KLRU16,
Yes-No Task,13,0,13,0,2,-1,Correct Rejection,0.734673099825,False,-1,stimulus_KLRU16_Yes-No Task_2019_Jun_13_1419_44,-1,False,2019_Jun_13_1419,Yes-No Task,1,KLRU16,
Yes-No Task,14,0,14,0,2,-1,Hit,0.834149700124,True,-1,stimulus_KLRU16_Yes-No Task_2019_Jun_13_1419_45,-1,False,2019_Jun_13_1419,Yes-No Task,1,KLRU16,
Yes-No Task,15,0,15,0,2,-1,False Alarm,0.700557699893,False,-1,stimulus_KLRU16_Yes-No Task_2019_Jun_13_1419_46,-1,False,2019_Jun_13_1419,Yes-No Task,1,KLRU16,
Yes-No Task,16,0,16,0,2,-1,Hit,0.633857900044,True,-1,stimulus_KLRU16_Yes-No Task_2019_Jun_13_1419_47,-1,False,2019_Jun_13_1419,Yes-No Task,1,KLRU16,
Yes-No Task,17,0,17,0,2,-1,Correct Rejection,0.73373420001,False,-1,stimulus_KLRU16_Yes-No Task_2019_Jun_13_1419_48,-1,False,2019_Jun_13_1419,Yes-No Task,1,KLRU16,
Yes-No Task,18,0,18,0,2,-1,Hit,0.73417750001,True,-1,stimulus_KLRU16_Yes-No Task_2019_Jun_13_1419_49,-1,False,2019_Jun_13_1419,Yes-No Task,1,KLRU16,
Yes-No Task,19,0,19,0,2,-1,Correct Rejection,0.633929400006,False,-1,stimulus_KLRU16_Yes-No Task_2019_Jun_13_1419_50,-1,False,2019_Jun_13_1419,Yes-No Task,1,KLRU16,
Yes-No Task,20,0,20,0,2,-1,False Alarm,0.634282400133,False,-1,stimulus_KLRU16_Yes-No Task_2019_Jun_13_1419_51,-1,False,2019_Jun_13_1419,Yes-No Task,1,KLRU16,
Yes-No Task,21,0,21,0,2,-1,Correct Rejection,0.767527099932,False,-1,stimulus_KLRU16_Yes-No Task_2019_Jun_13_1419_52,-1,False,2019_Jun_13_1419,Yes-No Task,1,KLRU16,
Yes-No Task,22,0,22,0,2,-1,Hit,0.635404900182,True,-1,stimulus_KLRU16_Yes-No Task_2019_Jun_13_1419_53,-1,False,2019_Jun_13_1419,Yes-No Task,1,KLRU16,
Yes-No Task,23,0,23,0,2,-1,False Alarm,0.66757489997,False,-1,stimulus_KLRU16_Yes-No Task_2019_Jun_13_1419_54,-1,False,2019_Jun_13_1419,Yes-No Task,1,KLRU16,
Yes-No Task,24,0,24,0,2,-1,Correct Rejection,0.503852500115,False,-1,stimulus_KLRU16_Yes-No Task_2019_Jun_13_1419_55,-1,False,2019_Jun_13_1419,Yes-No Task,1,KLRU16,
Yes-No Task,25,0,25,0,2,-1,False Alarm,0.667058699997,False,-1,stimulus_KLRU16_Yes-No Task_2019_Jun_13_1419_56,-1,False,2019_Jun_13_1419,Yes-No Task,1,KLRU16,
Yes-No Task,26,0,26,0,2,-1,Miss,0.600888699992,True,-1,stimulus_KLRU16_Yes-No Task_2019_Jun_13_1419_57,-1,False,2019_Jun_13_1419,Yes-No Task,1,KLRU16,
Yes-No Task,27,0,27,0,2,-1,Hit,0.768328699982,True,-1,stimulus_KLRU16_Yes-No Task_2019_Jun_13_1419_58,-1,False,2019_Jun_13_1419,Yes-No Task,1,KLRU16,
Yes-No Task,28,0,28,0,2,-1,Correct Rejection,0.667025600094,False,-1,stimulus_KLRU16_Yes-No Task_2019_Jun_13_1419_59,-1,False,2019_Jun_13_1419,Yes-No Task,1,KLRU16,
Yes-No Task,29,0,29,0,2,-1,Hit,0.667393400101,True,-1,stimulus_KLRU16_Yes-No Task_2019_Jun_13_1419_60,-1,False,2019_Jun_13_1419,Yes-No Task,1,KLRU16,
Yes-No Task,0,0,0,0,11,-1,Hit,0.567425400019,True,-1,stimulus_KLRU16_Yes-No Task_2019_Jun_13_1419_61,-1,False,2019_Jun_13_1419,Yes-No Task,1,KLRU16,
Yes-No Task,1,0,1,0,11,-1,Hit,0.501582799945,True,-1,stimulus_KLRU16_Yes-No Task_2019_Jun_13_1419_62,-1,False,2019_Jun_13_1419,Yes-No Task,1,KLRU16,
Yes-No Task,2,0,2,0,11,-1,Hit,0.434518600116,True,-1,stimulus_KLRU16_Yes-No Task_2019_Jun_13_1419_63,-1,False,2019_Jun_13_1419,Yes-No Task,1,KLRU16,
Yes-No Task,3,0,3,0,11,-1,Hit,0.633542599855,True,-1,stimulus_KLRU16_Yes-No Task_2019_Jun_13_1419_64,-1,False,2019_Jun_13_1419,Yes-No Task,1,KLRU16,
Yes-No Task,4,0,4,0,11,-1,Hit,0.468213600107,True,-1,stimulus_KLRU16_Yes-No Task_2019_Jun_13_1419_65,-1,False,2019_Jun_13_1419,Yes-No Task,1,KLRU16,
Yes-No Task,5,0,5,0,11,-1,Correct Rejection,0.567575499881,False,-1,stimulus_KLRU16_Yes-No Task_2019_Jun_13_1419_66,-1,False,2019_Jun_13_1419,Yes-No Task,1,KLRU16,
Yes-No Task,6,0,6,0,11,-1,Hit,0.565833800007,True,-1,stimulus_KLRU16_Yes-No Task_2019_Jun_13_1419_67,-1,False,2019_Jun_13_1419,Yes-No Task,1,KLRU16,
Yes-No Task,7,0,7,0,11,-1,Hit,0.500576299848,True,-1,stimulus_KLRU16_Yes-No Task_2019_Jun_13_1419_68,-1,False,2019_Jun_13_1419,Yes-No Task,1,KLRU16,
Yes-No Task,8,0,8,0,11,-1,Correct Rejection,0.600527399918,False,-1,stimulus_KLRU16_Yes-No Task_2019_Jun_13_1419_69,-1,False,2019_Jun_13_1419,Yes-No Task,1,KLRU16,
Yes-No Task,9,0,9,0,11,-1,Hit,0.567567500053,True,-1,stimulus_KLRU16_Yes-No Task_2019_Jun_13_1419_70,-1,False,2019_Jun_13_1419,Yes-No Task,1,KLRU16,
Yes-No Task,10,0,10,0,11,-1,Hit,0.533900399925,True,-1,stimulus_KLRU16_Yes-No Task_2019_Jun_13_1419_71,-1,False,2019_Jun_13_1419,Yes-No Task,1,KLRU16,
Yes-No Task,11,0,11,0,11,-1,Correct Rejection,0.534350399859,False,-1,stimulus_KLRU16_Yes-No Task_2019_Jun_13_1419_72,-1,False,2019_Jun_13_1419,Yes-No Task,1,KLRU16,
Yes-No Task,12,0,12,0,11,-1,False Alarm,0.500759599963,False,-1,stimulus_KLRU16_Yes-No Task_2019_Jun_13_1419_73,-1,False,2019_Jun_13_1419,Yes-No Task,1,KLRU16,
Yes-No Task,13,0,13,0,11,-1,Correct Rejection,0.537119599991,False,-1,stimulus_KLRU16_Yes-No Task_2019_Jun_13_1419_74,-1,False,2019_Jun_13_1419,Yes-No Task,1,KLRU16,
Yes-No Task,14,0,14,0,11,-1,Correct Rejection,0.833833500044,False,-1,stimulus_KLRU16_Yes-No Task_2019_Jun_13_1419_75,-1,False,2019_Jun_13_1419,Yes-No Task,1,KLRU16,
Yes-No Task,15,0,15,0,11,-1,Correct Rejection,0.535300699994,False,-1,stimulus_KLRU16_Yes-No Task_2019_Jun_13_1419_76,-1,False,2019_Jun_13_1419,Yes-No Task,1,KLRU16,
Yes-No Task,16,0,16,0,11,-1,False Alarm,0.667633200064,False,-1,stimulus_KLRU16_Yes-No Task_2019_Jun_13_1419_77,-1,False,2019_Jun_13_1419,Yes-No Task,1,KLRU16,
Yes-No Task,17,0,17,0,11,-1,Hit,0.600661200006,True,-1,stimulus_KLRU16_Yes-No Task_2019_Jun_13_1419_78,-1,False,2019_Jun_13_1419,Yes-No Task,1,KLRU16,
Yes-No Task,18,0,18,0,11,-1,Correct Rejection,0.601148799993,False,-1,stimulus_KLRU16_Yes-No Task_2019_Jun_13_1419_79,-1,False,2019_Jun_13_1419,Yes-No Task,1,KLRU16,
Yes-No Task,19,0,19,0,11,-1,Correct Rejection,0.567197900033,False,-1,stimulus_KLRU16_Yes-No Task_2019_Jun_13_1419_80,-1,False,2019_Jun_13_1419,Yes-No Task,1,KLRU16,
Yes-No Task,20,0,20,0,11,-1,Hit,0.533340000082,True,-1,stimulus_KLRU16_Yes-No Task_2019_Jun_13_1419_81,-1,False,2019_Jun_13_1419,Yes-No Task,1,KLRU16,
Yes-No Task,21,0,21,0,11,-1,Correct Rejection,0.600805599941,False,-1,stimulus_KLRU16_Yes-No Task_2019_Jun_13_1419_82,-1,False,2019_Jun_13_1419,Yes-No Task,1,KLRU16,
Yes-No Task,22,0,22,0,11,-1,Hit,0.566901599988,True,-1,stimulus_KLRU16_Yes-No Task_2019_Jun_13_1419_83,-1,False,2019_Jun_13_1419,Yes-No Task,1,KLRU16,
Yes-No Task,23,0,23,0,11,-1,Correct Rejection,0.533849600004,False,-1,stimulus_KLRU16_Yes-No Task_2019_Jun_13_1419_84,-1,False,2019_Jun_13_1419,Yes-No Task,1,KLRU16,
Yes-No Task,24,0,24,0,11,-1,Correct Rejection,0.601792000001,False,-1,stimulus_KLRU16_Yes-No Task_2019_Jun_13_1419_85,-1,False,2019_Jun_13_1419,Yes-No Task,1,KLRU16,
Yes-No Task,25,0,25,0,11,-1,Hit,0.50057789986,True,-1,stimulus_KLRU16_Yes-No Task_2019_Jun_13_1419_86,-1,False,2019_Jun_13_1419,Yes-No Task,1,KLRU16,
Yes-No Task,26,0,26,0,11,-1,Hit,0.566684999969,True,-1,stimulus_KLRU16_Yes-No Task_2019_Jun_13_1419_87,-1,False,2019_Jun_13_1419,Yes-No Task,1,KLRU16,
Yes-No Task,27,0,27,0,11,-1,Hit,0.568716099951,True,-1,stimulus_KLRU16_Yes-No Task_2019_Jun_13_1419_88,-1,False,2019_Jun_13_1419,Yes-No Task,1,KLRU16,
Yes-No Task,28,0,28,0,11,-1,Correct Rejection,0.533809999935,False,-1,stimulus_KLRU16_Yes-No Task_2019_Jun_13_1419_89,-1,False,2019_Jun_13_1419,Yes-No Task,1,KLRU16,
Yes-No Task,29,0,29,0,11,-1,Hit,0.533920099959,True,-1,stimulus_KLRU16_Yes-No Task_2019_Jun_13_1419_90,-1,False,2019_Jun_13_1419,Yes-No Task,1,KLRU16,
Yes-No Task,0,0,0,0,5,-1,False Alarm,0.567417600192,False,-1,stimulus_KLRU16_Yes-No Task_2019_Jun_13_1419_91,-1,False,2019_Jun_13_1419,Yes-No Task,1,KLRU16,
Yes-No Task,1,0,1,0,5,-1,Correct Rejection,0.633992000017,False,-1,stimulus_KLRU16_Yes-No Task_2019_Jun_13_1419_92,-1,False,2019_Jun_13_1419,Yes-No Task,1,KLRU16,
Yes-No Task,2,0,2,0,5,-1,Correct Rejection,0.633200499928,False,-1,stimulus_KLRU16_Yes-No Task_2019_Jun_13_1419_93,-1,False,2019_Jun_13_1419,Yes-No Task,1,KLRU16,
Yes-No Task,3,0,3,0,5,-1,False Alarm,0.602261199849,False,-1,stimulus_KLRU16_Yes-No Task_2019_Jun_13_1419_94,-1,False,2019_Jun_13_1419,Yes-No Task,1,KLRU16,
Yes-No Task,4,0,4,0,5,-1,Correct Rejection,0.699370100163,False,-1,stimulus_KLRU16_Yes-No Task_2019_Jun_13_1419_95,-1,False,2019_Jun_13_1419,Yes-No Task,1,KLRU16,
Yes-No Task,5,0,5,0,5,-1,Hit,0.600672699977,True,-1,stimulus_KLRU16_Yes-No Task_2019_Jun_13_1419_96,-1,False,2019_Jun_13_1419,Yes-No Task,1,KLRU16,
Yes-No Task,6,0,6,0,5,-1,Correct Rejection,0.569045499898,False,-1,stimulus_KLRU16_Yes-No Task_2019_Jun_13_1419_97,-1,False,2019_Jun_13_1419,Yes-No Task,1,KLRU16,
Yes-No Task,7,0,7,0,5,-1,Correct Rejection,0.600783899892,False,-1,stimulus_KLRU16_Yes-No Task_2019_Jun_13_1419_98,-1,False,2019_Jun_13_1419,Yes-No Task,1,KLRU16,
Yes-No Task,8,0,8,0,5,-1,False Alarm,0.634392499924,False,-1,stimulus_KLRU16_Yes-No Task_2019_Jun_13_1419_99,-1,False,2019_Jun_13_1419,Yes-No Task,1,KLRU16,
Yes-No Task,9,0,9,0,5,-1,Correct Rejection,0.667411300121,False,-1,stimulus_KLRU16_Yes-No Task_2019_Jun_13_1419_100,-1,False,2019_Jun_13_1419,Yes-No Task,1,KLRU16,
Yes-No Task,10,0,10,0,5,-1,False Alarm,0.666443299968,False,-1,stimulus_KLRU16_Yes-No Task_2019_Jun_13_1419_101,-1,False,2019_Jun_13_1419,Yes-No Task,1,KLRU16,
Yes-No Task,11,0,11,0,5,-1,Correct Rejection,0.500765100121,False,-1,stimulus_KLRU16_Yes-No Task_2019_Jun_13_1419_102,-1,False,2019_Jun_13_1419,Yes-No Task,1,KLRU16,
Yes-No Task,12,0,12,0,5,-1,No Answer,-1,True,-1,stimulus_KLRU16_Yes-No Task_2019_Jun_13_1419_103,-1,False,2019_Jun_13_1419,Yes-No Task,1,KLRU16,
Yes-No Task,13,0,13,0,5,-1,Miss,0.500166499987,True,-1,stimulus_KLRU16_Yes-No Task_2019_Jun_13_1419_104,-1,False,2019_Jun_13_1419,Yes-No Task,1,KLRU16,
Yes-No Task,14,0,14,0,5,-1,Hit,0.567722299835,True,-1,stimulus_KLRU16_Yes-No Task_2019_Jun_13_1419_105,-1,False,2019_Jun_13_1419,Yes-No Task,1,KLRU16,
Yes-No Task,15,0,15,0,5,-1,Miss,0.633431300055,True,-1,stimulus_KLRU16_Yes-No Task_2019_Jun_13_1419_106,-1,False,2019_Jun_13_1419,Yes-No Task,1,KLRU16,
Yes-No Task,16,0,16,0,5,-1,Hit,0.53439990012,True,-1,stimulus_KLRU16_Yes-No Task_2019_Jun_13_1419_107,-1,False,2019_Jun_13_1419,Yes-No Task,1,KLRU16,
Yes-No Task,17,0,17,0,5,-1,Hit,0.533742199885,True,-1,stimulus_KLRU16_Yes-No Task_2019_Jun_13_1419_108,-1,False,2019_Jun_13_1419,Yes-No Task,1,KLRU16,
Yes-No Task,18,0,18,0,5,-1,Miss,0.667360499967,True,-1,stimulus_KLRU16_Yes-No Task_2019_Jun_13_1419_109,-1,False,2019_Jun_13_1419,Yes-No Task,1,KLRU16,
Yes-No Task,19,0,19,0,5,-1,Correct Rejection,0.667544099968,False,-1,stimulus_KLRU16_Yes-No Task_2019_Jun_13_1419_110,-1,False,2019_Jun_13_1419,Yes-No Task,1,KLRU16,
Yes-No Task,20,0,20,0,5,-1,Hit,0.6009008002,True,-1,stimulus_KLRU16_Yes-No Task_2019_Jun_13_1419_111,-1,False,2019_Jun_13_1419,Yes-No Task,1,KLRU16,
Yes-No Task,21,0,21,0,5,-1,Miss,0.666216799989,True,-1,stimulus_KLRU16_Yes-No Task_2019_Jun_13_1419_112,-1,False,2019_Jun_13_1419,Yes-No Task,1,KLRU16,
Yes-No Task,22,0,22,0,5,-1,Hit,0.768614900066,True,-1,stimulus_KLRU16_Yes-No Task_2019_Jun_13_1419_113,-1,False,2019_Jun_13_1419,Yes-No Task,1,KLRU16,
Yes-No Task,23,0,23,0,5,-1,Correct Rejection,0.700735399965,False,-1,stimulus_KLRU16_Yes-No Task_2019_Jun_13_1419_114,-1,False,2019_Jun_13_1419,Yes-No Task,1,KLRU16,
Yes-No Task,24,0,24,0,5,-1,Hit,0.634849200025,True,-1,stimulus_KLRU16_Yes-No Task_2019_Jun_13_1419_115,-1,False,2019_Jun_13_1419,Yes-No Task,1,KLRU16,
Yes-No Task,25,0,25,0,5,-1,False Alarm,0.667553300038,False,-1,stimulus_KLRU16_Yes-No Task_2019_Jun_13_1419_116,-1,False,2019_Jun_13_1419,Yes-No Task,1,KLRU16,
Yes-No Task,26,0,26,0,5,-1,Correct Rejection,0.701354699908,False,-1,stimulus_KLRU16_Yes-No Task_2019_Jun_13_1419_117,-1,False,2019_Jun_13_1419,Yes-No Task,1,KLRU16,
Yes-No Task,27,0,27,0,5,-1,False Alarm,0.666056399932,False,-1,stimulus_KLRU16_Yes-No Task_2019_Jun_13_1419_118,-1,False,2019_Jun_13_1419,Yes-No Task,1,KLRU16,
Yes-No Task,28,0,28,0,5,-1,Correct Rejection,0.767487799982,False,-1,stimulus_KLRU16_Yes-No Task_2019_Jun_13_1419_119,-1,False,2019_Jun_13_1419,Yes-No Task,1,KLRU16,
Yes-No Task,29,0,29,0,5,-1,Correct Rejection,0.700728399912,False,-1,stimulus_KLRU16_Yes-No Task_2019_Jun_13_1419_120,-1,False,2019_Jun_13_1419,Yes-No Task,1,KLRU16,
