Task,trials.thisRepN,trials.thisTrialN,trials.thisN,trials.thisIndex,signal_intensity,constant Value,response,time_response,signal_on_stimuluspos1,signal_on_stimuluspos2,stimulus_name_pos1,stimulus_name_pos2,random_intensity,date,expName,session,participant,
Yes-No Task,0,0,0,0,14,-1,Correct Rejection,0.467198099999,False,-1,stimulus_MIJA04_Yes-No Task_2019_Jun_17_1214_1,-1,False,2019_Jun_17_1214,Yes-No Task,1,MIJA04,
Yes-No Task,1,0,1,0,14,-1,Correct Rejection,0.433453800011,False,-1,stimulus_MIJA04_Yes-No Task_2019_Jun_17_1214_2,-1,False,2019_Jun_17_1214,Yes-No Task,1,MIJA04,
Yes-No Task,2,0,2,0,14,-1,Correct Rejection,0.400453400012,False,-1,stimulus_MIJA04_Yes-No Task_2019_Jun_17_1214_3,-1,False,2019_Jun_17_1214,Yes-No Task,1,MIJA04,
Yes-No Task,3,0,3,0,14,-1,Hit,0.334999700019,True,-1,stimulus_MIJA04_Yes-No Task_2019_Jun_17_1214_4,-1,False,2019_Jun_17_1214,Yes-No Task,1,MIJA04,
Yes-No Task,4,0,4,0,14,-1,Correct Rejection,0.400210499996,False,-1,stimulus_MIJA04_Yes-No Task_2019_Jun_17_1214_5,-1,False,2019_Jun_17_1214,Yes-No Task,1,MIJA04,
Yes-No Task,5,0,5,0,14,-1,Hit,0.400645599992,True,-1,stimulus_MIJA04_Yes-No Task_2019_Jun_17_1214_6,-1,False,2019_Jun_17_1214,Yes-No Task,1,MIJA04,
Yes-No Task,6,0,6,0,14,-1,Correct Rejection,0.400911200006,False,-1,stimulus_MIJA04_Yes-No Task_2019_Jun_17_1214_7,-1,False,2019_Jun_17_1214,Yes-No Task,1,MIJA04,
Yes-No Task,7,0,7,0,14,-1,Miss,0.40065549998,True,-1,stimulus_MIJA04_Yes-No Task_2019_Jun_17_1214_8,-1,False,2019_Jun_17_1214,Yes-No Task,1,MIJA04,
Yes-No Task,8,0,8,0,14,-1,Hit,0.433636499976,True,-1,stimulus_MIJA04_Yes-No Task_2019_Jun_17_1214_9,-1,False,2019_Jun_17_1214,Yes-No Task,1,MIJA04,
Yes-No Task,9,0,9,0,14,-1,Hit,0.434626300004,True,-1,stimulus_MIJA04_Yes-No Task_2019_Jun_17_1214_10,-1,False,2019_Jun_17_1214,Yes-No Task,1,MIJA04,
Yes-No Task,10,0,10,0,14,-1,Correct Rejection,0.433936899994,False,-1,stimulus_MIJA04_Yes-No Task_2019_Jun_17_1214_11,-1,False,2019_Jun_17_1214,Yes-No Task,1,MIJA04,
Yes-No Task,11,0,11,0,14,-1,Hit,0.400829399994,True,-1,stimulus_MIJA04_Yes-No Task_2019_Jun_17_1214_12,-1,False,2019_Jun_17_1214,Yes-No Task,1,MIJA04,
Yes-No Task,12,0,12,0,14,-1,Correct Rejection,0.435368700011,False,-1,stimulus_MIJA04_Yes-No Task_2019_Jun_17_1214_13,-1,False,2019_Jun_17_1214,Yes-No Task,1,MIJA04,
Yes-No Task,13,0,13,0,14,-1,Hit,0.36695299999,True,-1,stimulus_MIJA04_Yes-No Task_2019_Jun_17_1214_14,-1,False,2019_Jun_17_1214,Yes-No Task,1,MIJA04,
Yes-No Task,14,0,14,0,14,-1,False Alarm,0.434002299997,False,-1,stimulus_MIJA04_Yes-No Task_2019_Jun_17_1214_15,-1,False,2019_Jun_17_1214,Yes-No Task,1,MIJA04,
Yes-No Task,15,0,15,0,14,-1,Hit,0.5006268,True,-1,stimulus_MIJA04_Yes-No Task_2019_Jun_17_1214_16,-1,False,2019_Jun_17_1214,Yes-No Task,1,MIJA04,
Yes-No Task,16,0,16,0,14,-1,Hit,0.434033400001,True,-1,stimulus_MIJA04_Yes-No Task_2019_Jun_17_1214_17,-1,False,2019_Jun_17_1214,Yes-No Task,1,MIJA04,
Yes-No Task,17,0,17,0,14,-1,Correct Rejection,0.46647710001,False,-1,stimulus_MIJA04_Yes-No Task_2019_Jun_17_1214_18,-1,False,2019_Jun_17_1214,Yes-No Task,1,MIJA04,
Yes-No Task,18,0,18,0,14,-1,Correct Rejection,0.601037199987,False,-1,stimulus_MIJA04_Yes-No Task_2019_Jun_17_1214_19,-1,False,2019_Jun_17_1214,Yes-No Task,1,MIJA04,
Yes-No Task,19,0,19,0,14,-1,False Alarm,0.467178299994,False,-1,stimulus_MIJA04_Yes-No Task_2019_Jun_17_1214_20,-1,False,2019_Jun_17_1214,Yes-No Task,1,MIJA04,
Yes-No Task,20,0,20,0,14,-1,Hit,0.500553499995,True,-1,stimulus_MIJA04_Yes-No Task_2019_Jun_17_1214_21,-1,False,2019_Jun_17_1214,Yes-No Task,1,MIJA04,
Yes-No Task,21,0,21,0,14,-1,Hit,0.368026100012,True,-1,stimulus_MIJA04_Yes-No Task_2019_Jun_17_1214_22,-1,False,2019_Jun_17_1214,Yes-No Task,1,MIJA04,
Yes-No Task,22,0,22,0,14,-1,Hit,0.36694919999,True,-1,stimulus_MIJA04_Yes-No Task_2019_Jun_17_1214_23,-1,False,2019_Jun_17_1214,Yes-No Task,1,MIJA04,
Yes-No Task,23,0,23,0,14,-1,Hit,0.46751799999,True,-1,stimulus_MIJA04_Yes-No Task_2019_Jun_17_1214_24,-1,False,2019_Jun_17_1214,Yes-No Task,1,MIJA04,
Yes-No Task,24,0,24,0,14,-1,Correct Rejection,0.534025699977,False,-1,stimulus_MIJA04_Yes-No Task_2019_Jun_17_1214_25,-1,False,2019_Jun_17_1214,Yes-No Task,1,MIJA04,
Yes-No Task,25,0,25,0,14,-1,False Alarm,0.33412840002,False,-1,stimulus_MIJA04_Yes-No Task_2019_Jun_17_1214_26,-1,False,2019_Jun_17_1214,Yes-No Task,1,MIJA04,
Yes-No Task,26,0,26,0,14,-1,Hit,0.333122199983,True,-1,stimulus_MIJA04_Yes-No Task_2019_Jun_17_1214_27,-1,False,2019_Jun_17_1214,Yes-No Task,1,MIJA04,
Yes-No Task,27,0,27,0,14,-1,Correct Rejection,0.433541899984,False,-1,stimulus_MIJA04_Yes-No Task_2019_Jun_17_1214_28,-1,False,2019_Jun_17_1214,Yes-No Task,1,MIJA04,
Yes-No Task,28,0,28,0,14,-1,Hit,0.300371099991,True,-1,stimulus_MIJA04_Yes-No Task_2019_Jun_17_1214_29,-1,False,2019_Jun_17_1214,Yes-No Task,1,MIJA04,
Yes-No Task,29,0,29,0,14,-1,Correct Rejection,0.40046819998,False,-1,stimulus_MIJA04_Yes-No Task_2019_Jun_17_1214_30,-1,False,2019_Jun_17_1214,Yes-No Task,1,MIJA04,
Yes-No Task,0,0,0,0,4,-1,Correct Rejection,0.500754500012,False,-1,stimulus_MIJA04_Yes-No Task_2019_Jun_17_1214_31,-1,False,2019_Jun_17_1214,Yes-No Task,1,MIJA04,
Yes-No Task,1,0,1,0,4,-1,False Alarm,0.333864799992,False,-1,stimulus_MIJA04_Yes-No Task_2019_Jun_17_1214_32,-1,False,2019_Jun_17_1214,Yes-No Task,1,MIJA04,
Yes-No Task,2,0,2,0,4,-1,Hit,0.400504499994,True,-1,stimulus_MIJA04_Yes-No Task_2019_Jun_17_1214_33,-1,False,2019_Jun_17_1214,Yes-No Task,1,MIJA04,
Yes-No Task,3,0,3,0,4,-1,Correct Rejection,0.633170799993,False,-1,stimulus_MIJA04_Yes-No Task_2019_Jun_17_1214_34,-1,False,2019_Jun_17_1214,Yes-No Task,1,MIJA04,
Yes-No Task,4,0,4,0,4,-1,Hit,0.433658099995,True,-1,stimulus_MIJA04_Yes-No Task_2019_Jun_17_1214_35,-1,False,2019_Jun_17_1214,Yes-No Task,1,MIJA04,
Yes-No Task,5,0,5,0,4,-1,Hit,0.469071999978,True,-1,stimulus_MIJA04_Yes-No Task_2019_Jun_17_1214_36,-1,False,2019_Jun_17_1214,Yes-No Task,1,MIJA04,
Yes-No Task,6,0,6,0,4,-1,Hit,0.468247400015,True,-1,stimulus_MIJA04_Yes-No Task_2019_Jun_17_1214_37,-1,False,2019_Jun_17_1214,Yes-No Task,1,MIJA04,
Yes-No Task,7,0,7,0,4,-1,Miss,0.634189499979,True,-1,stimulus_MIJA04_Yes-No Task_2019_Jun_17_1214_38,-1,False,2019_Jun_17_1214,Yes-No Task,1,MIJA04,
Yes-No Task,8,0,8,0,4,-1,False Alarm,0.433364099998,False,-1,stimulus_MIJA04_Yes-No Task_2019_Jun_17_1214_39,-1,False,2019_Jun_17_1214,Yes-No Task,1,MIJA04,
Yes-No Task,9,0,9,0,4,-1,Hit,0.399815799989,True,-1,stimulus_MIJA04_Yes-No Task_2019_Jun_17_1214_40,-1,False,2019_Jun_17_1214,Yes-No Task,1,MIJA04,
Yes-No Task,10,0,10,0,4,-1,False Alarm,0.502948600013,False,-1,stimulus_MIJA04_Yes-No Task_2019_Jun_17_1214_41,-1,False,2019_Jun_17_1214,Yes-No Task,1,MIJA04,
Yes-No Task,11,0,11,0,4,-1,Correct Rejection,0.467265399988,False,-1,stimulus_MIJA04_Yes-No Task_2019_Jun_17_1214_42,-1,False,2019_Jun_17_1214,Yes-No Task,1,MIJA04,
Yes-No Task,12,0,12,0,4,-1,Hit,0.667054599995,True,-1,stimulus_MIJA04_Yes-No Task_2019_Jun_17_1214_43,-1,False,2019_Jun_17_1214,Yes-No Task,1,MIJA04,
Yes-No Task,13,0,13,0,4,-1,False Alarm,0.634146900004,False,-1,stimulus_MIJA04_Yes-No Task_2019_Jun_17_1214_44,-1,False,2019_Jun_17_1214,Yes-No Task,1,MIJA04,
Yes-No Task,14,0,14,0,4,-1,Correct Rejection,0.501714599988,False,-1,stimulus_MIJA04_Yes-No Task_2019_Jun_17_1214_45,-1,False,2019_Jun_17_1214,Yes-No Task,1,MIJA04,
Yes-No Task,15,0,15,0,4,-1,Miss,0.400414100004,True,-1,stimulus_MIJA04_Yes-No Task_2019_Jun_17_1214_46,-1,False,2019_Jun_17_1214,Yes-No Task,1,MIJA04,
Yes-No Task,16,0,16,0,4,-1,False Alarm,0.500992300018,False,-1,stimulus_MIJA04_Yes-No Task_2019_Jun_17_1214_47,-1,False,2019_Jun_17_1214,Yes-No Task,1,MIJA04,
Yes-No Task,17,0,17,0,4,-1,False Alarm,0.533647400007,False,-1,stimulus_MIJA04_Yes-No Task_2019_Jun_17_1214_48,-1,False,2019_Jun_17_1214,Yes-No Task,1,MIJA04,
Yes-No Task,18,0,18,0,4,-1,False Alarm,0.667304200004,False,-1,stimulus_MIJA04_Yes-No Task_2019_Jun_17_1214_49,-1,False,2019_Jun_17_1214,Yes-No Task,1,MIJA04,
Yes-No Task,19,0,19,0,4,-1,False Alarm,0.568554800004,False,-1,stimulus_MIJA04_Yes-No Task_2019_Jun_17_1214_50,-1,False,2019_Jun_17_1214,Yes-No Task,1,MIJA04,
Yes-No Task,20,0,20,0,4,-1,Hit,0.534613900003,True,-1,stimulus_MIJA04_Yes-No Task_2019_Jun_17_1214_51,-1,False,2019_Jun_17_1214,Yes-No Task,1,MIJA04,
Yes-No Task,21,0,21,0,4,-1,False Alarm,0.600519300002,False,-1,stimulus_MIJA04_Yes-No Task_2019_Jun_17_1214_52,-1,False,2019_Jun_17_1214,Yes-No Task,1,MIJA04,
Yes-No Task,22,0,22,0,4,-1,Correct Rejection,0.635059399996,False,-1,stimulus_MIJA04_Yes-No Task_2019_Jun_17_1214_53,-1,False,2019_Jun_17_1214,Yes-No Task,1,MIJA04,
Yes-No Task,23,0,23,0,4,-1,False Alarm,0.467474799982,False,-1,stimulus_MIJA04_Yes-No Task_2019_Jun_17_1214_54,-1,False,2019_Jun_17_1214,Yes-No Task,1,MIJA04,
Yes-No Task,24,0,24,0,4,-1,Hit,0.467183599976,True,-1,stimulus_MIJA04_Yes-No Task_2019_Jun_17_1214_55,-1,False,2019_Jun_17_1214,Yes-No Task,1,MIJA04,
Yes-No Task,25,0,25,0,4,-1,Correct Rejection,0.434029700002,False,-1,stimulus_MIJA04_Yes-No Task_2019_Jun_17_1214_56,-1,False,2019_Jun_17_1214,Yes-No Task,1,MIJA04,
Yes-No Task,26,0,26,0,4,-1,Hit,0.500722500001,True,-1,stimulus_MIJA04_Yes-No Task_2019_Jun_17_1214_57,-1,False,2019_Jun_17_1214,Yes-No Task,1,MIJA04,
Yes-No Task,27,0,27,0,4,-1,Correct Rejection,0.566869400005,False,-1,stimulus_MIJA04_Yes-No Task_2019_Jun_17_1214_58,-1,False,2019_Jun_17_1214,Yes-No Task,1,MIJA04,
Yes-No Task,28,0,28,0,4,-1,False Alarm,0.500765099976,False,-1,stimulus_MIJA04_Yes-No Task_2019_Jun_17_1214_59,-1,False,2019_Jun_17_1214,Yes-No Task,1,MIJA04,
Yes-No Task,29,0,29,0,4,-1,Hit,0.500314600009,True,-1,stimulus_MIJA04_Yes-No Task_2019_Jun_17_1214_60,-1,False,2019_Jun_17_1214,Yes-No Task,1,MIJA04,
Yes-No Task,0,0,0,0,2,-1,Correct Rejection,0.867478400003,False,-1,stimulus_MIJA04_Yes-No Task_2019_Jun_17_1214_61,-1,False,2019_Jun_17_1214,Yes-No Task,1,MIJA04,
Yes-No Task,1,0,1,0,2,-1,Hit,0.50045989998,True,-1,stimulus_MIJA04_Yes-No Task_2019_Jun_17_1214_62,-1,False,2019_Jun_17_1214,Yes-No Task,1,MIJA04,
Yes-No Task,2,0,2,0,2,-1,Correct Rejection,0.500601700012,False,-1,stimulus_MIJA04_Yes-No Task_2019_Jun_17_1214_63,-1,False,2019_Jun_17_1214,Yes-No Task,1,MIJA04,
Yes-No Task,3,0,3,0,2,-1,Miss,0.734047000005,True,-1,stimulus_MIJA04_Yes-No Task_2019_Jun_17_1214_64,-1,False,2019_Jun_17_1214,Yes-No Task,1,MIJA04,
Yes-No Task,4,0,4,0,2,-1,False Alarm,0.467060299998,False,-1,stimulus_MIJA04_Yes-No Task_2019_Jun_17_1214_65,-1,False,2019_Jun_17_1214,Yes-No Task,1,MIJA04,
Yes-No Task,5,0,5,0,2,-1,Hit,0.534769199992,True,-1,stimulus_MIJA04_Yes-No Task_2019_Jun_17_1214_66,-1,False,2019_Jun_17_1214,Yes-No Task,1,MIJA04,
Yes-No Task,6,0,6,0,2,-1,Correct Rejection,0.666785999987,False,-1,stimulus_MIJA04_Yes-No Task_2019_Jun_17_1214_67,-1,False,2019_Jun_17_1214,Yes-No Task,1,MIJA04,
Yes-No Task,7,0,7,0,2,-1,Correct Rejection,0.600720200018,False,-1,stimulus_MIJA04_Yes-No Task_2019_Jun_17_1214_68,-1,False,2019_Jun_17_1214,Yes-No Task,1,MIJA04,
Yes-No Task,8,0,8,0,2,-1,Miss,0.467204399989,True,-1,stimulus_MIJA04_Yes-No Task_2019_Jun_17_1214_69,-1,False,2019_Jun_17_1214,Yes-No Task,1,MIJA04,
Yes-No Task,9,0,9,0,2,-1,Correct Rejection,0.700379499991,False,-1,stimulus_MIJA04_Yes-No Task_2019_Jun_17_1214_70,-1,False,2019_Jun_17_1214,Yes-No Task,1,MIJA04,
Yes-No Task,10,0,10,0,2,-1,Hit,0.433938900009,True,-1,stimulus_MIJA04_Yes-No Task_2019_Jun_17_1214_71,-1,False,2019_Jun_17_1214,Yes-No Task,1,MIJA04,
Yes-No Task,11,0,11,0,2,-1,Correct Rejection,0.532541599998,False,-1,stimulus_MIJA04_Yes-No Task_2019_Jun_17_1214_72,-1,False,2019_Jun_17_1214,Yes-No Task,1,MIJA04,
Yes-No Task,12,0,12,0,2,-1,Miss,0.5004472,True,-1,stimulus_MIJA04_Yes-No Task_2019_Jun_17_1214_73,-1,False,2019_Jun_17_1214,Yes-No Task,1,MIJA04,
Yes-No Task,13,0,13,0,2,-1,Miss,0.567161599989,True,-1,stimulus_MIJA04_Yes-No Task_2019_Jun_17_1214_74,-1,False,2019_Jun_17_1214,Yes-No Task,1,MIJA04,
Yes-No Task,14,0,14,0,2,-1,Correct Rejection,0.667592400016,False,-1,stimulus_MIJA04_Yes-No Task_2019_Jun_17_1214_75,-1,False,2019_Jun_17_1214,Yes-No Task,1,MIJA04,
Yes-No Task,15,0,15,0,2,-1,Hit,0.500385899999,True,-1,stimulus_MIJA04_Yes-No Task_2019_Jun_17_1214_76,-1,False,2019_Jun_17_1214,Yes-No Task,1,MIJA04,
Yes-No Task,16,0,16,0,2,-1,Miss,0.60100189998,True,-1,stimulus_MIJA04_Yes-No Task_2019_Jun_17_1214_77,-1,False,2019_Jun_17_1214,Yes-No Task,1,MIJA04,
Yes-No Task,17,0,17,0,2,-1,Correct Rejection,0.534908500005,False,-1,stimulus_MIJA04_Yes-No Task_2019_Jun_17_1214_78,-1,False,2019_Jun_17_1214,Yes-No Task,1,MIJA04,
Yes-No Task,18,0,18,0,2,-1,Miss,0.501961000002,True,-1,stimulus_MIJA04_Yes-No Task_2019_Jun_17_1214_79,-1,False,2019_Jun_17_1214,Yes-No Task,1,MIJA04,
Yes-No Task,19,0,19,0,2,-1,Miss,0.600930099987,True,-1,stimulus_MIJA04_Yes-No Task_2019_Jun_17_1214_80,-1,False,2019_Jun_17_1214,Yes-No Task,1,MIJA04,
Yes-No Task,20,0,20,0,2,-1,Correct Rejection,0.534874699981,False,-1,stimulus_MIJA04_Yes-No Task_2019_Jun_17_1214_81,-1,False,2019_Jun_17_1214,Yes-No Task,1,MIJA04,
Yes-No Task,21,0,21,0,2,-1,Correct Rejection,0.767548300006,False,-1,stimulus_MIJA04_Yes-No Task_2019_Jun_17_1214_82,-1,False,2019_Jun_17_1214,Yes-No Task,1,MIJA04,
Yes-No Task,22,0,22,0,2,-1,Correct Rejection,0.601119300001,False,-1,stimulus_MIJA04_Yes-No Task_2019_Jun_17_1214_83,-1,False,2019_Jun_17_1214,Yes-No Task,1,MIJA04,
Yes-No Task,23,0,23,0,2,-1,Hit,0.601340399997,True,-1,stimulus_MIJA04_Yes-No Task_2019_Jun_17_1214_84,-1,False,2019_Jun_17_1214,Yes-No Task,1,MIJA04,
Yes-No Task,24,0,24,0,2,-1,Hit,0.535762299987,True,-1,stimulus_MIJA04_Yes-No Task_2019_Jun_17_1214_85,-1,False,2019_Jun_17_1214,Yes-No Task,1,MIJA04,
Yes-No Task,25,0,25,0,2,-1,Correct Rejection,0.433284500003,False,-1,stimulus_MIJA04_Yes-No Task_2019_Jun_17_1214_86,-1,False,2019_Jun_17_1214,Yes-No Task,1,MIJA04,
Yes-No Task,26,0,26,0,2,-1,Hit,0.767506600008,True,-1,stimulus_MIJA04_Yes-No Task_2019_Jun_17_1214_87,-1,False,2019_Jun_17_1214,Yes-No Task,1,MIJA04,
Yes-No Task,27,0,27,0,2,-1,False Alarm,0.56797589999,False,-1,stimulus_MIJA04_Yes-No Task_2019_Jun_17_1214_88,-1,False,2019_Jun_17_1214,Yes-No Task,1,MIJA04,
Yes-No Task,28,0,28,0,2,-1,Miss,0.5002255,True,-1,stimulus_MIJA04_Yes-No Task_2019_Jun_17_1214_89,-1,False,2019_Jun_17_1214,Yes-No Task,1,MIJA04,
Yes-No Task,29,0,29,0,2,-1,False Alarm,0.668491399992,False,-1,stimulus_MIJA04_Yes-No Task_2019_Jun_17_1214_90,-1,False,2019_Jun_17_1214,Yes-No Task,1,MIJA04,
Yes-No Task,0,0,0,0,7,-1,Correct Rejection,0.636545599991,False,-1,stimulus_MIJA04_Yes-No Task_2019_Jun_17_1214_91,-1,False,2019_Jun_17_1214,Yes-No Task,1,MIJA04,
Yes-No Task,1,0,1,0,7,-1,Hit,0.600812799996,True,-1,stimulus_MIJA04_Yes-No Task_2019_Jun_17_1214_92,-1,False,2019_Jun_17_1214,Yes-No Task,1,MIJA04,
Yes-No Task,2,0,2,0,7,-1,Hit,0.567410499993,True,-1,stimulus_MIJA04_Yes-No Task_2019_Jun_17_1214_93,-1,False,2019_Jun_17_1214,Yes-No Task,1,MIJA04,
Yes-No Task,3,0,3,0,7,-1,Hit,0.567225599982,True,-1,stimulus_MIJA04_Yes-No Task_2019_Jun_17_1214_94,-1,False,2019_Jun_17_1214,Yes-No Task,1,MIJA04,
Yes-No Task,4,0,4,0,7,-1,Correct Rejection,0.4671676,False,-1,stimulus_MIJA04_Yes-No Task_2019_Jun_17_1214_95,-1,False,2019_Jun_17_1214,Yes-No Task,1,MIJA04,
Yes-No Task,5,0,5,0,7,-1,Hit,0.535351300001,True,-1,stimulus_MIJA04_Yes-No Task_2019_Jun_17_1214_96,-1,False,2019_Jun_17_1214,Yes-No Task,1,MIJA04,
Yes-No Task,6,0,6,0,7,-1,Miss,0.600541599997,True,-1,stimulus_MIJA04_Yes-No Task_2019_Jun_17_1214_97,-1,False,2019_Jun_17_1214,Yes-No Task,1,MIJA04,
Yes-No Task,7,0,7,0,7,-1,Hit,0.501779400016,True,-1,stimulus_MIJA04_Yes-No Task_2019_Jun_17_1214_98,-1,False,2019_Jun_17_1214,Yes-No Task,1,MIJA04,
Yes-No Task,8,0,8,0,7,-1,Hit,0.468859400018,True,-1,stimulus_MIJA04_Yes-No Task_2019_Jun_17_1214_99,-1,False,2019_Jun_17_1214,Yes-No Task,1,MIJA04,
Yes-No Task,9,0,9,0,7,-1,Correct Rejection,0.500350599992,False,-1,stimulus_MIJA04_Yes-No Task_2019_Jun_17_1214_100,-1,False,2019_Jun_17_1214,Yes-No Task,1,MIJA04,
Yes-No Task,10,0,10,0,7,-1,Correct Rejection,0.500511599996,False,-1,stimulus_MIJA04_Yes-No Task_2019_Jun_17_1214_101,-1,False,2019_Jun_17_1214,Yes-No Task,1,MIJA04,
Yes-No Task,11,0,11,0,7,-1,Hit,0.433349200001,True,-1,stimulus_MIJA04_Yes-No Task_2019_Jun_17_1214_102,-1,False,2019_Jun_17_1214,Yes-No Task,1,MIJA04,
Yes-No Task,12,0,12,0,7,-1,Correct Rejection,0.499976499996,False,-1,stimulus_MIJA04_Yes-No Task_2019_Jun_17_1214_103,-1,False,2019_Jun_17_1214,Yes-No Task,1,MIJA04,
Yes-No Task,13,0,13,0,7,-1,Correct Rejection,0.601288900012,False,-1,stimulus_MIJA04_Yes-No Task_2019_Jun_17_1214_104,-1,False,2019_Jun_17_1214,Yes-No Task,1,MIJA04,
Yes-No Task,14,0,14,0,7,-1,Hit,0.534868500021,True,-1,stimulus_MIJA04_Yes-No Task_2019_Jun_17_1214_105,-1,False,2019_Jun_17_1214,Yes-No Task,1,MIJA04,
Yes-No Task,15,0,15,0,7,-1,Hit,0.5988946,True,-1,stimulus_MIJA04_Yes-No Task_2019_Jun_17_1214_106,-1,False,2019_Jun_17_1214,Yes-No Task,1,MIJA04,
Yes-No Task,16,0,16,0,7,-1,Hit,0.467262799997,True,-1,stimulus_MIJA04_Yes-No Task_2019_Jun_17_1214_107,-1,False,2019_Jun_17_1214,Yes-No Task,1,MIJA04,
Yes-No Task,17,0,17,0,7,-1,Hit,0.500623500004,True,-1,stimulus_MIJA04_Yes-No Task_2019_Jun_17_1214_108,-1,False,2019_Jun_17_1214,Yes-No Task,1,MIJA04,
Yes-No Task,18,0,18,0,7,-1,Correct Rejection,0.434159199998,False,-1,stimulus_MIJA04_Yes-No Task_2019_Jun_17_1214_109,-1,False,2019_Jun_17_1214,Yes-No Task,1,MIJA04,
Yes-No Task,19,0,19,0,7,-1,Correct Rejection,0.400594700011,False,-1,stimulus_MIJA04_Yes-No Task_2019_Jun_17_1214_110,-1,False,2019_Jun_17_1214,Yes-No Task,1,MIJA04,
Yes-No Task,20,0,20,0,7,-1,Hit,0.401028699998,True,-1,stimulus_MIJA04_Yes-No Task_2019_Jun_17_1214_111,-1,False,2019_Jun_17_1214,Yes-No Task,1,MIJA04,
Yes-No Task,21,0,21,0,7,-1,False Alarm,0.500604300003,False,-1,stimulus_MIJA04_Yes-No Task_2019_Jun_17_1214_112,-1,False,2019_Jun_17_1214,Yes-No Task,1,MIJA04,
Yes-No Task,22,0,22,0,7,-1,False Alarm,0.36746769998,False,-1,stimulus_MIJA04_Yes-No Task_2019_Jun_17_1214_113,-1,False,2019_Jun_17_1214,Yes-No Task,1,MIJA04,
Yes-No Task,23,0,23,0,7,-1,Hit,0.466923200001,True,-1,stimulus_MIJA04_Yes-No Task_2019_Jun_17_1214_114,-1,False,2019_Jun_17_1214,Yes-No Task,1,MIJA04,
Yes-No Task,24,0,24,0,7,-1,Hit,0.533602900017,True,-1,stimulus_MIJA04_Yes-No Task_2019_Jun_17_1214_115,-1,False,2019_Jun_17_1214,Yes-No Task,1,MIJA04,
Yes-No Task,25,0,25,0,7,-1,Hit,0.499779700011,True,-1,stimulus_MIJA04_Yes-No Task_2019_Jun_17_1214_116,-1,False,2019_Jun_17_1214,Yes-No Task,1,MIJA04,
Yes-No Task,26,0,26,0,7,-1,Correct Rejection,0.500299000007,False,-1,stimulus_MIJA04_Yes-No Task_2019_Jun_17_1214_117,-1,False,2019_Jun_17_1214,Yes-No Task,1,MIJA04,
Yes-No Task,27,0,27,0,7,-1,Correct Rejection,0.466513699997,False,-1,stimulus_MIJA04_Yes-No Task_2019_Jun_17_1214_118,-1,False,2019_Jun_17_1214,Yes-No Task,1,MIJA04,
Yes-No Task,28,0,28,0,7,-1,Hit,0.46742880001,True,-1,stimulus_MIJA04_Yes-No Task_2019_Jun_17_1214_119,-1,False,2019_Jun_17_1214,Yes-No Task,1,MIJA04,
Yes-No Task,29,0,29,0,7,-1,Correct Rejection,0.500525600015,False,-1,stimulus_MIJA04_Yes-No Task_2019_Jun_17_1214_120,-1,False,2019_Jun_17_1214,Yes-No Task,1,MIJA04,
