Task,trials.thisRepN,trials.thisTrialN,trials.thisN,trials.thisIndex,signal_intensity,constant Value,response,time_response,signal_on_stimuluspos1,signal_on_stimuluspos2,stimulus_name_pos1,stimulus_name_pos2,random_intensity,date,expName,session,participant,
Yes-No Task,0,0,0,0,8,-1,Correct Rejection,0.467040100018,False,-1,stimulus_MIPA23_Yes-No Task_2019_Jun_17_1414_1,-1,False,2019_Jun_17_1414,Yes-No Task,1,MIPA23,
Yes-No Task,1,0,1,0,8,-1,Correct Rejection,0.467060499999,False,-1,stimulus_MIPA23_Yes-No Task_2019_Jun_17_1414_2,-1,False,2019_Jun_17_1414,Yes-No Task,1,MIPA23,
Yes-No Task,2,0,2,0,8,-1,Hit,0.499478200014,True,-1,stimulus_MIPA23_Yes-No Task_2019_Jun_17_1414_3,-1,False,2019_Jun_17_1414,Yes-No Task,1,MIPA23,
Yes-No Task,3,0,3,0,8,-1,Hit,0.434178800002,True,-1,stimulus_MIPA23_Yes-No Task_2019_Jun_17_1414_4,-1,False,2019_Jun_17_1414,Yes-No Task,1,MIPA23,
Yes-No Task,4,0,4,0,8,-1,Hit,0.433243000007,True,-1,stimulus_MIPA23_Yes-No Task_2019_Jun_17_1414_5,-1,False,2019_Jun_17_1414,Yes-No Task,1,MIPA23,
Yes-No Task,5,0,5,0,8,-1,Hit,0.501883899997,True,-1,stimulus_MIPA23_Yes-No Task_2019_Jun_17_1414_6,-1,False,2019_Jun_17_1414,Yes-No Task,1,MIPA23,
Yes-No Task,6,0,6,0,8,-1,Hit,0.434623800014,True,-1,stimulus_MIPA23_Yes-No Task_2019_Jun_17_1414_7,-1,False,2019_Jun_17_1414,Yes-No Task,1,MIPA23,
Yes-No Task,7,0,7,0,8,-1,Correct Rejection,0.433674400003,False,-1,stimulus_MIPA23_Yes-No Task_2019_Jun_17_1414_8,-1,False,2019_Jun_17_1414,Yes-No Task,1,MIPA23,
Yes-No Task,8,0,8,0,8,-1,Hit,0.50065240002,True,-1,stimulus_MIPA23_Yes-No Task_2019_Jun_17_1414_9,-1,False,2019_Jun_17_1414,Yes-No Task,1,MIPA23,
Yes-No Task,9,0,9,0,8,-1,False Alarm,0.533756299992,False,-1,stimulus_MIPA23_Yes-No Task_2019_Jun_17_1414_10,-1,False,2019_Jun_17_1414,Yes-No Task,1,MIPA23,
Yes-No Task,10,0,10,0,8,-1,Hit,0.434900699998,True,-1,stimulus_MIPA23_Yes-No Task_2019_Jun_17_1414_11,-1,False,2019_Jun_17_1414,Yes-No Task,1,MIPA23,
Yes-No Task,11,0,11,0,8,-1,Hit,0.467117599997,True,-1,stimulus_MIPA23_Yes-No Task_2019_Jun_17_1414_12,-1,False,2019_Jun_17_1414,Yes-No Task,1,MIPA23,
Yes-No Task,12,0,12,0,8,-1,Hit,0.466200500028,True,-1,stimulus_MIPA23_Yes-No Task_2019_Jun_17_1414_13,-1,False,2019_Jun_17_1414,Yes-No Task,1,MIPA23,
Yes-No Task,13,0,13,0,8,-1,Hit,0.434661800013,True,-1,stimulus_MIPA23_Yes-No Task_2019_Jun_17_1414_14,-1,False,2019_Jun_17_1414,Yes-No Task,1,MIPA23,
Yes-No Task,14,0,14,0,8,-1,Hit,0.435441500013,True,-1,stimulus_MIPA23_Yes-No Task_2019_Jun_17_1414_15,-1,False,2019_Jun_17_1414,Yes-No Task,1,MIPA23,
Yes-No Task,15,0,15,0,8,-1,False Alarm,0.433612099994,False,-1,stimulus_MIPA23_Yes-No Task_2019_Jun_17_1414_16,-1,False,2019_Jun_17_1414,Yes-No Task,1,MIPA23,
Yes-No Task,16,0,16,0,8,-1,Hit,0.534585999994,True,-1,stimulus_MIPA23_Yes-No Task_2019_Jun_17_1414_17,-1,False,2019_Jun_17_1414,Yes-No Task,1,MIPA23,
Yes-No Task,17,0,17,0,8,-1,False Alarm,0.43396330002,False,-1,stimulus_MIPA23_Yes-No Task_2019_Jun_17_1414_18,-1,False,2019_Jun_17_1414,Yes-No Task,1,MIPA23,
Yes-No Task,18,0,18,0,8,-1,Correct Rejection,0.602144700009,False,-1,stimulus_MIPA23_Yes-No Task_2019_Jun_17_1414_19,-1,False,2019_Jun_17_1414,Yes-No Task,1,MIPA23,
Yes-No Task,19,0,19,0,8,-1,Correct Rejection,0.466968499997,False,-1,stimulus_MIPA23_Yes-No Task_2019_Jun_17_1414_20,-1,False,2019_Jun_17_1414,Yes-No Task,1,MIPA23,
Yes-No Task,20,0,20,0,8,-1,Correct Rejection,0.532933399983,False,-1,stimulus_MIPA23_Yes-No Task_2019_Jun_17_1414_21,-1,False,2019_Jun_17_1414,Yes-No Task,1,MIPA23,
Yes-No Task,21,0,21,0,8,-1,Correct Rejection,0.499060200003,False,-1,stimulus_MIPA23_Yes-No Task_2019_Jun_17_1414_22,-1,False,2019_Jun_17_1414,Yes-No Task,1,MIPA23,
Yes-No Task,22,0,22,0,8,-1,Hit,0.500677100004,True,-1,stimulus_MIPA23_Yes-No Task_2019_Jun_17_1414_23,-1,False,2019_Jun_17_1414,Yes-No Task,1,MIPA23,
Yes-No Task,23,0,23,0,8,-1,Hit,0.435486200004,True,-1,stimulus_MIPA23_Yes-No Task_2019_Jun_17_1414_24,-1,False,2019_Jun_17_1414,Yes-No Task,1,MIPA23,
Yes-No Task,24,0,24,0,8,-1,Hit,0.467322100012,True,-1,stimulus_MIPA23_Yes-No Task_2019_Jun_17_1414_25,-1,False,2019_Jun_17_1414,Yes-No Task,1,MIPA23,
Yes-No Task,25,0,25,0,8,-1,Hit,0.467000500008,True,-1,stimulus_MIPA23_Yes-No Task_2019_Jun_17_1414_26,-1,False,2019_Jun_17_1414,Yes-No Task,1,MIPA23,
Yes-No Task,26,0,26,0,8,-1,Correct Rejection,0.43384870002,False,-1,stimulus_MIPA23_Yes-No Task_2019_Jun_17_1414_27,-1,False,2019_Jun_17_1414,Yes-No Task,1,MIPA23,
Yes-No Task,27,0,27,0,8,-1,Correct Rejection,0.467189600022,False,-1,stimulus_MIPA23_Yes-No Task_2019_Jun_17_1414_28,-1,False,2019_Jun_17_1414,Yes-No Task,1,MIPA23,
Yes-No Task,28,0,28,0,8,-1,Correct Rejection,0.466211499996,False,-1,stimulus_MIPA23_Yes-No Task_2019_Jun_17_1414_29,-1,False,2019_Jun_17_1414,Yes-No Task,1,MIPA23,
Yes-No Task,29,0,29,0,8,-1,Hit,0.500613899989,True,-1,stimulus_MIPA23_Yes-No Task_2019_Jun_17_1414_30,-1,False,2019_Jun_17_1414,Yes-No Task,1,MIPA23,
Yes-No Task,0,0,0,0,4,-1,False Alarm,0.734238699981,False,-1,stimulus_MIPA23_Yes-No Task_2019_Jun_17_1414_31,-1,False,2019_Jun_17_1414,Yes-No Task,1,MIPA23,
Yes-No Task,1,0,1,0,4,-1,Hit,0.567405700014,True,-1,stimulus_MIPA23_Yes-No Task_2019_Jun_17_1414_32,-1,False,2019_Jun_17_1414,Yes-No Task,1,MIPA23,
Yes-No Task,2,0,2,0,4,-1,Hit,0.6687141,True,-1,stimulus_MIPA23_Yes-No Task_2019_Jun_17_1414_33,-1,False,2019_Jun_17_1414,Yes-No Task,1,MIPA23,
Yes-No Task,3,0,3,0,4,-1,Miss,0.533310400002,True,-1,stimulus_MIPA23_Yes-No Task_2019_Jun_17_1414_34,-1,False,2019_Jun_17_1414,Yes-No Task,1,MIPA23,
Yes-No Task,4,0,4,0,4,-1,Hit,0.500656599994,True,-1,stimulus_MIPA23_Yes-No Task_2019_Jun_17_1414_35,-1,False,2019_Jun_17_1414,Yes-No Task,1,MIPA23,
Yes-No Task,5,0,5,0,4,-1,Hit,0.534162300028,True,-1,stimulus_MIPA23_Yes-No Task_2019_Jun_17_1414_36,-1,False,2019_Jun_17_1414,Yes-No Task,1,MIPA23,
Yes-No Task,6,0,6,0,4,-1,False Alarm,0.500297499995,False,-1,stimulus_MIPA23_Yes-No Task_2019_Jun_17_1414_37,-1,False,2019_Jun_17_1414,Yes-No Task,1,MIPA23,
Yes-No Task,7,0,7,0,4,-1,Correct Rejection,0.501690499979,False,-1,stimulus_MIPA23_Yes-No Task_2019_Jun_17_1414_38,-1,False,2019_Jun_17_1414,Yes-No Task,1,MIPA23,
Yes-No Task,8,0,8,0,4,-1,Miss,0.802206699998,True,-1,stimulus_MIPA23_Yes-No Task_2019_Jun_17_1414_39,-1,False,2019_Jun_17_1414,Yes-No Task,1,MIPA23,
Yes-No Task,9,0,9,0,4,-1,Correct Rejection,0.501029100007,False,-1,stimulus_MIPA23_Yes-No Task_2019_Jun_17_1414_40,-1,False,2019_Jun_17_1414,Yes-No Task,1,MIPA23,
Yes-No Task,10,0,10,0,4,-1,Correct Rejection,0.434391999996,False,-1,stimulus_MIPA23_Yes-No Task_2019_Jun_17_1414_41,-1,False,2019_Jun_17_1414,Yes-No Task,1,MIPA23,
Yes-No Task,11,0,11,0,4,-1,Correct Rejection,0.400154300005,False,-1,stimulus_MIPA23_Yes-No Task_2019_Jun_17_1414_42,-1,False,2019_Jun_17_1414,Yes-No Task,1,MIPA23,
Yes-No Task,12,0,12,0,4,-1,Miss,0.433807599999,True,-1,stimulus_MIPA23_Yes-No Task_2019_Jun_17_1414_43,-1,False,2019_Jun_17_1414,Yes-No Task,1,MIPA23,
Yes-No Task,13,0,13,0,4,-1,Correct Rejection,0.367419599992,False,-1,stimulus_MIPA23_Yes-No Task_2019_Jun_17_1414_44,-1,False,2019_Jun_17_1414,Yes-No Task,1,MIPA23,
Yes-No Task,14,0,14,0,4,-1,Correct Rejection,0.500408799999,False,-1,stimulus_MIPA23_Yes-No Task_2019_Jun_17_1414_45,-1,False,2019_Jun_17_1414,Yes-No Task,1,MIPA23,
Yes-No Task,15,0,15,0,4,-1,Miss,0.401399199996,True,-1,stimulus_MIPA23_Yes-No Task_2019_Jun_17_1414_46,-1,False,2019_Jun_17_1414,Yes-No Task,1,MIPA23,
Yes-No Task,16,0,16,0,4,-1,Miss,0.400308800017,True,-1,stimulus_MIPA23_Yes-No Task_2019_Jun_17_1414_47,-1,False,2019_Jun_17_1414,Yes-No Task,1,MIPA23,
Yes-No Task,17,0,17,0,4,-1,False Alarm,0.400316300016,False,-1,stimulus_MIPA23_Yes-No Task_2019_Jun_17_1414_48,-1,False,2019_Jun_17_1414,Yes-No Task,1,MIPA23,
Yes-No Task,18,0,18,0,4,-1,Correct Rejection,0.667247799982,False,-1,stimulus_MIPA23_Yes-No Task_2019_Jun_17_1414_49,-1,False,2019_Jun_17_1414,Yes-No Task,1,MIPA23,
Yes-No Task,19,0,19,0,4,-1,Hit,0.567381900008,True,-1,stimulus_MIPA23_Yes-No Task_2019_Jun_17_1414_50,-1,False,2019_Jun_17_1414,Yes-No Task,1,MIPA23,
Yes-No Task,20,0,20,0,4,-1,Correct Rejection,0.635028600023,False,-1,stimulus_MIPA23_Yes-No Task_2019_Jun_17_1414_51,-1,False,2019_Jun_17_1414,Yes-No Task,1,MIPA23,
Yes-No Task,21,0,21,0,4,-1,Hit,0.567617599998,True,-1,stimulus_MIPA23_Yes-No Task_2019_Jun_17_1414_52,-1,False,2019_Jun_17_1414,Yes-No Task,1,MIPA23,
Yes-No Task,22,0,22,0,4,-1,Correct Rejection,0.633955600002,False,-1,stimulus_MIPA23_Yes-No Task_2019_Jun_17_1414_53,-1,False,2019_Jun_17_1414,Yes-No Task,1,MIPA23,
Yes-No Task,23,0,23,0,4,-1,Correct Rejection,0.600771900004,False,-1,stimulus_MIPA23_Yes-No Task_2019_Jun_17_1414_54,-1,False,2019_Jun_17_1414,Yes-No Task,1,MIPA23,
Yes-No Task,24,0,24,0,4,-1,Correct Rejection,0.665902699984,False,-1,stimulus_MIPA23_Yes-No Task_2019_Jun_17_1414_55,-1,False,2019_Jun_17_1414,Yes-No Task,1,MIPA23,
Yes-No Task,25,0,25,0,4,-1,Miss,0.467990899982,True,-1,stimulus_MIPA23_Yes-No Task_2019_Jun_17_1414_56,-1,False,2019_Jun_17_1414,Yes-No Task,1,MIPA23,
Yes-No Task,26,0,26,0,4,-1,False Alarm,0.667381600011,False,-1,stimulus_MIPA23_Yes-No Task_2019_Jun_17_1414_57,-1,False,2019_Jun_17_1414,Yes-No Task,1,MIPA23,
Yes-No Task,27,0,27,0,4,-1,Miss,0.567332099978,True,-1,stimulus_MIPA23_Yes-No Task_2019_Jun_17_1414_58,-1,False,2019_Jun_17_1414,Yes-No Task,1,MIPA23,
Yes-No Task,28,0,28,0,4,-1,False Alarm,0.567753500014,False,-1,stimulus_MIPA23_Yes-No Task_2019_Jun_17_1414_59,-1,False,2019_Jun_17_1414,Yes-No Task,1,MIPA23,
Yes-No Task,29,0,29,0,4,-1,Miss,0.633652199991,True,-1,stimulus_MIPA23_Yes-No Task_2019_Jun_17_1414_60,-1,False,2019_Jun_17_1414,Yes-No Task,1,MIPA23,
Yes-No Task,0,0,0,0,2,-1,Miss,0.667575600004,True,-1,stimulus_MIPA23_Yes-No Task_2019_Jun_17_1414_61,-1,False,2019_Jun_17_1414,Yes-No Task,1,MIPA23,
Yes-No Task,1,0,1,0,2,-1,Correct Rejection,0.565477199998,False,-1,stimulus_MIPA23_Yes-No Task_2019_Jun_17_1414_62,-1,False,2019_Jun_17_1414,Yes-No Task,1,MIPA23,
Yes-No Task,2,0,2,0,2,-1,Miss,0.568029999995,True,-1,stimulus_MIPA23_Yes-No Task_2019_Jun_17_1414_63,-1,False,2019_Jun_17_1414,Yes-No Task,1,MIPA23,
Yes-No Task,3,0,3,0,2,-1,Correct Rejection,0.701911099983,False,-1,stimulus_MIPA23_Yes-No Task_2019_Jun_17_1414_64,-1,False,2019_Jun_17_1414,Yes-No Task,1,MIPA23,
Yes-No Task,4,0,4,0,2,-1,Correct Rejection,0.566954199981,False,-1,stimulus_MIPA23_Yes-No Task_2019_Jun_17_1414_65,-1,False,2019_Jun_17_1414,Yes-No Task,1,MIPA23,
Yes-No Task,5,0,5,0,2,-1,Hit,0.667824000004,True,-1,stimulus_MIPA23_Yes-No Task_2019_Jun_17_1414_66,-1,False,2019_Jun_17_1414,Yes-No Task,1,MIPA23,
Yes-No Task,6,0,6,0,2,-1,Miss,0.60129749999,True,-1,stimulus_MIPA23_Yes-No Task_2019_Jun_17_1414_67,-1,False,2019_Jun_17_1414,Yes-No Task,1,MIPA23,
Yes-No Task,7,0,7,0,2,-1,Miss,0.433777099999,True,-1,stimulus_MIPA23_Yes-No Task_2019_Jun_17_1414_68,-1,False,2019_Jun_17_1414,Yes-No Task,1,MIPA23,
Yes-No Task,8,0,8,0,2,-1,False Alarm,0.600738699985,False,-1,stimulus_MIPA23_Yes-No Task_2019_Jun_17_1414_69,-1,False,2019_Jun_17_1414,Yes-No Task,1,MIPA23,
Yes-No Task,9,0,9,0,2,-1,Miss,0.567296199995,True,-1,stimulus_MIPA23_Yes-No Task_2019_Jun_17_1414_70,-1,False,2019_Jun_17_1414,Yes-No Task,1,MIPA23,
Yes-No Task,10,0,10,0,2,-1,Miss,0.734529299982,True,-1,stimulus_MIPA23_Yes-No Task_2019_Jun_17_1414_71,-1,False,2019_Jun_17_1414,Yes-No Task,1,MIPA23,
Yes-No Task,11,0,11,0,2,-1,Hit,0.767132499983,True,-1,stimulus_MIPA23_Yes-No Task_2019_Jun_17_1414_72,-1,False,2019_Jun_17_1414,Yes-No Task,1,MIPA23,
Yes-No Task,12,0,12,0,2,-1,Miss,0.667283999996,True,-1,stimulus_MIPA23_Yes-No Task_2019_Jun_17_1414_73,-1,False,2019_Jun_17_1414,Yes-No Task,1,MIPA23,
Yes-No Task,13,0,13,0,2,-1,False Alarm,0.60070380001,False,-1,stimulus_MIPA23_Yes-No Task_2019_Jun_17_1414_74,-1,False,2019_Jun_17_1414,Yes-No Task,1,MIPA23,
Yes-No Task,14,0,14,0,2,-1,Miss,0.700660800008,True,-1,stimulus_MIPA23_Yes-No Task_2019_Jun_17_1414_75,-1,False,2019_Jun_17_1414,Yes-No Task,1,MIPA23,
Yes-No Task,15,0,15,0,2,-1,Miss,0.834362199996,True,-1,stimulus_MIPA23_Yes-No Task_2019_Jun_17_1414_76,-1,False,2019_Jun_17_1414,Yes-No Task,1,MIPA23,
Yes-No Task,16,0,16,0,2,-1,Correct Rejection,0.833481199981,False,-1,stimulus_MIPA23_Yes-No Task_2019_Jun_17_1414_77,-1,False,2019_Jun_17_1414,Yes-No Task,1,MIPA23,
Yes-No Task,17,0,17,0,2,-1,Miss,0.600472100021,True,-1,stimulus_MIPA23_Yes-No Task_2019_Jun_17_1414_78,-1,False,2019_Jun_17_1414,Yes-No Task,1,MIPA23,
Yes-No Task,18,0,18,0,2,-1,Hit,0.532983599987,True,-1,stimulus_MIPA23_Yes-No Task_2019_Jun_17_1414_79,-1,False,2019_Jun_17_1414,Yes-No Task,1,MIPA23,
Yes-No Task,19,0,19,0,2,-1,Hit,0.53384400002,True,-1,stimulus_MIPA23_Yes-No Task_2019_Jun_17_1414_80,-1,False,2019_Jun_17_1414,Yes-No Task,1,MIPA23,
Yes-No Task,20,0,20,0,2,-1,False Alarm,0.400688399997,False,-1,stimulus_MIPA23_Yes-No Task_2019_Jun_17_1414_81,-1,False,2019_Jun_17_1414,Yes-No Task,1,MIPA23,
Yes-No Task,21,0,21,0,2,-1,Correct Rejection,0.467356199981,False,-1,stimulus_MIPA23_Yes-No Task_2019_Jun_17_1414_82,-1,False,2019_Jun_17_1414,Yes-No Task,1,MIPA23,
Yes-No Task,22,0,22,0,2,-1,Correct Rejection,0.500311900018,False,-1,stimulus_MIPA23_Yes-No Task_2019_Jun_17_1414_83,-1,False,2019_Jun_17_1414,Yes-No Task,1,MIPA23,
Yes-No Task,23,0,23,0,2,-1,Miss,0.465947899997,True,-1,stimulus_MIPA23_Yes-No Task_2019_Jun_17_1414_84,-1,False,2019_Jun_17_1414,Yes-No Task,1,MIPA23,
Yes-No Task,24,0,24,0,2,-1,Miss,0.466050599993,True,-1,stimulus_MIPA23_Yes-No Task_2019_Jun_17_1414_85,-1,False,2019_Jun_17_1414,Yes-No Task,1,MIPA23,
Yes-No Task,25,0,25,0,2,-1,False Alarm,0.401031200017,False,-1,stimulus_MIPA23_Yes-No Task_2019_Jun_17_1414_86,-1,False,2019_Jun_17_1414,Yes-No Task,1,MIPA23,
Yes-No Task,26,0,26,0,2,-1,False Alarm,0.367429999984,False,-1,stimulus_MIPA23_Yes-No Task_2019_Jun_17_1414_87,-1,False,2019_Jun_17_1414,Yes-No Task,1,MIPA23,
Yes-No Task,27,0,27,0,2,-1,False Alarm,0.5014104,False,-1,stimulus_MIPA23_Yes-No Task_2019_Jun_17_1414_88,-1,False,2019_Jun_17_1414,Yes-No Task,1,MIPA23,
Yes-No Task,28,0,28,0,2,-1,Miss,0.535564899998,True,-1,stimulus_MIPA23_Yes-No Task_2019_Jun_17_1414_89,-1,False,2019_Jun_17_1414,Yes-No Task,1,MIPA23,
Yes-No Task,29,0,29,0,2,-1,Miss,0.767587300012,True,-1,stimulus_MIPA23_Yes-No Task_2019_Jun_17_1414_90,-1,False,2019_Jun_17_1414,Yes-No Task,1,MIPA23,
Yes-No Task,0,0,0,0,7,-1,Correct Rejection,0.702406600001,False,-1,stimulus_MIPA23_Yes-No Task_2019_Jun_17_1414_91,-1,False,2019_Jun_17_1414,Yes-No Task,1,MIPA23,
Yes-No Task,1,0,1,0,7,-1,Miss,0.571208500012,True,-1,stimulus_MIPA23_Yes-No Task_2019_Jun_17_1414_92,-1,False,2019_Jun_17_1414,Yes-No Task,1,MIPA23,
Yes-No Task,2,0,2,0,7,-1,Hit,0.633879599976,True,-1,stimulus_MIPA23_Yes-No Task_2019_Jun_17_1414_93,-1,False,2019_Jun_17_1414,Yes-No Task,1,MIPA23,
Yes-No Task,3,0,3,0,7,-1,Correct Rejection,0.600799300009,False,-1,stimulus_MIPA23_Yes-No Task_2019_Jun_17_1414_94,-1,False,2019_Jun_17_1414,Yes-No Task,1,MIPA23,
Yes-No Task,4,0,4,0,7,-1,Hit,0.500408699998,True,-1,stimulus_MIPA23_Yes-No Task_2019_Jun_17_1414_95,-1,False,2019_Jun_17_1414,Yes-No Task,1,MIPA23,
Yes-No Task,5,0,5,0,7,-1,Correct Rejection,0.467822400009,False,-1,stimulus_MIPA23_Yes-No Task_2019_Jun_17_1414_96,-1,False,2019_Jun_17_1414,Yes-No Task,1,MIPA23,
Yes-No Task,6,0,6,0,7,-1,Correct Rejection,0.800994499994,False,-1,stimulus_MIPA23_Yes-No Task_2019_Jun_17_1414_97,-1,False,2019_Jun_17_1414,Yes-No Task,1,MIPA23,
Yes-No Task,7,0,7,0,7,-1,Hit,0.767512600025,True,-1,stimulus_MIPA23_Yes-No Task_2019_Jun_17_1414_98,-1,False,2019_Jun_17_1414,Yes-No Task,1,MIPA23,
Yes-No Task,8,0,8,0,7,-1,Correct Rejection,0.467199000006,False,-1,stimulus_MIPA23_Yes-No Task_2019_Jun_17_1414_99,-1,False,2019_Jun_17_1414,Yes-No Task,1,MIPA23,
Yes-No Task,9,0,9,0,7,-1,Miss,0.566456900007,True,-1,stimulus_MIPA23_Yes-No Task_2019_Jun_17_1414_100,-1,False,2019_Jun_17_1414,Yes-No Task,1,MIPA23,
Yes-No Task,10,0,10,0,7,-1,Correct Rejection,0.600087300001,False,-1,stimulus_MIPA23_Yes-No Task_2019_Jun_17_1414_101,-1,False,2019_Jun_17_1414,Yes-No Task,1,MIPA23,
Yes-No Task,11,0,11,0,7,-1,Correct Rejection,0.600639800017,False,-1,stimulus_MIPA23_Yes-No Task_2019_Jun_17_1414_102,-1,False,2019_Jun_17_1414,Yes-No Task,1,MIPA23,
Yes-No Task,12,0,12,0,7,-1,Correct Rejection,0.767140299984,False,-1,stimulus_MIPA23_Yes-No Task_2019_Jun_17_1414_103,-1,False,2019_Jun_17_1414,Yes-No Task,1,MIPA23,
Yes-No Task,13,0,13,0,7,-1,Hit,0.496989000007,True,-1,stimulus_MIPA23_Yes-No Task_2019_Jun_17_1414_104,-1,False,2019_Jun_17_1414,Yes-No Task,1,MIPA23,
Yes-No Task,14,0,14,0,7,-1,Hit,0.567529899999,True,-1,stimulus_MIPA23_Yes-No Task_2019_Jun_17_1414_105,-1,False,2019_Jun_17_1414,Yes-No Task,1,MIPA23,
Yes-No Task,15,0,15,0,7,-1,Correct Rejection,0.467093900021,False,-1,stimulus_MIPA23_Yes-No Task_2019_Jun_17_1414_106,-1,False,2019_Jun_17_1414,Yes-No Task,1,MIPA23,
Yes-No Task,16,0,16,0,7,-1,Hit,0.566139700008,True,-1,stimulus_MIPA23_Yes-No Task_2019_Jun_17_1414_107,-1,False,2019_Jun_17_1414,Yes-No Task,1,MIPA23,
Yes-No Task,17,0,17,0,7,-1,Correct Rejection,0.6008439,False,-1,stimulus_MIPA23_Yes-No Task_2019_Jun_17_1414_108,-1,False,2019_Jun_17_1414,Yes-No Task,1,MIPA23,
Yes-No Task,18,0,18,0,7,-1,Miss,0.667140799982,True,-1,stimulus_MIPA23_Yes-No Task_2019_Jun_17_1414_109,-1,False,2019_Jun_17_1414,Yes-No Task,1,MIPA23,
Yes-No Task,19,0,19,0,7,-1,Miss,0.700582999998,True,-1,stimulus_MIPA23_Yes-No Task_2019_Jun_17_1414_110,-1,False,2019_Jun_17_1414,Yes-No Task,1,MIPA23,
Yes-No Task,20,0,20,0,7,-1,Hit,0.60070900002,True,-1,stimulus_MIPA23_Yes-No Task_2019_Jun_17_1414_111,-1,False,2019_Jun_17_1414,Yes-No Task,1,MIPA23,
Yes-No Task,21,0,21,0,7,-1,Hit,0.633842500014,True,-1,stimulus_MIPA23_Yes-No Task_2019_Jun_17_1414_112,-1,False,2019_Jun_17_1414,Yes-No Task,1,MIPA23,
Yes-No Task,22,0,22,0,7,-1,Hit,0.533778000012,True,-1,stimulus_MIPA23_Yes-No Task_2019_Jun_17_1414_113,-1,False,2019_Jun_17_1414,Yes-No Task,1,MIPA23,
Yes-No Task,23,0,23,0,7,-1,Correct Rejection,0.668240300001,False,-1,stimulus_MIPA23_Yes-No Task_2019_Jun_17_1414_114,-1,False,2019_Jun_17_1414,Yes-No Task,1,MIPA23,
Yes-No Task,24,0,24,0,7,-1,Correct Rejection,0.602565100009,False,-1,stimulus_MIPA23_Yes-No Task_2019_Jun_17_1414_115,-1,False,2019_Jun_17_1414,Yes-No Task,1,MIPA23,
Yes-No Task,25,0,25,0,7,-1,Miss,0.634984300006,True,-1,stimulus_MIPA23_Yes-No Task_2019_Jun_17_1414_116,-1,False,2019_Jun_17_1414,Yes-No Task,1,MIPA23,
Yes-No Task,26,0,26,0,7,-1,False Alarm,0.734096400003,False,-1,stimulus_MIPA23_Yes-No Task_2019_Jun_17_1414_117,-1,False,2019_Jun_17_1414,Yes-No Task,1,MIPA23,
Yes-No Task,27,0,27,0,7,-1,Correct Rejection,0.601743200008,False,-1,stimulus_MIPA23_Yes-No Task_2019_Jun_17_1414_118,-1,False,2019_Jun_17_1414,Yes-No Task,1,MIPA23,
Yes-No Task,28,0,28,0,7,-1,False Alarm,0.667510500003,False,-1,stimulus_MIPA23_Yes-No Task_2019_Jun_17_1414_119,-1,False,2019_Jun_17_1414,Yes-No Task,1,MIPA23,
Yes-No Task,29,0,29,0,7,-1,Miss,0.467103399977,True,-1,stimulus_MIPA23_Yes-No Task_2019_Jun_17_1414_120,-1,False,2019_Jun_17_1414,Yes-No Task,1,MIPA23,
