Task,trials.thisRepN,trials.thisTrialN,trials.thisN,trials.thisIndex,signal_intensity,constant Value,response,time_response,signal_on_stimuluspos1,signal_on_stimuluspos2,stimulus_name_pos1,stimulus_name_pos2,date,expName,session,participant,
Yes-No Task,0,0,0,0,3.0,-1,Miss,0.535621618852,True,-1,stimulus_RORE28_Yes-No Task_2019_Jun_11_1655_1,-1,2019_Jun_11_1655,Yes-No Task,1,RORE28,
Yes-No Task,1,0,1,0,3.0,-1,False Alarm,0.636120106559,False,-1,stimulus_RORE28_Yes-No Task_2019_Jun_11_1655_2,-1,2019_Jun_11_1655,Yes-No Task,1,RORE28,
Yes-No Task,2,0,2,0,3.0,-1,Correct Rejection,0.535339162219,False,-1,stimulus_RORE28_Yes-No Task_2019_Jun_11_1655_3,-1,2019_Jun_11_1655,Yes-No Task,1,RORE28,
Yes-No Task,3,0,3,0,3.0,-1,Correct Rejection,0.499778714962,False,-1,stimulus_RORE28_Yes-No Task_2019_Jun_11_1655_4,-1,2019_Jun_11_1655,Yes-No Task,1,RORE28,
Yes-No Task,4,0,4,0,3.0,-1,Correct Rejection,0.558197660837,False,-1,stimulus_RORE28_Yes-No Task_2019_Jun_11_1655_5,-1,2019_Jun_11_1655,Yes-No Task,1,RORE28,
Yes-No Task,5,0,5,0,3.0,-1,Miss,0.533075399231,True,-1,stimulus_RORE28_Yes-No Task_2019_Jun_11_1655_6,-1,2019_Jun_11_1655,Yes-No Task,1,RORE28,
Yes-No Task,6,0,6,0,3.0,-1,Correct Rejection,0.701357846614,False,-1,stimulus_RORE28_Yes-No Task_2019_Jun_11_1655_7,-1,2019_Jun_11_1655,Yes-No Task,1,RORE28,
Yes-No Task,7,0,7,0,3.0,-1,Correct Rejection,0.735204255674,False,-1,stimulus_RORE28_Yes-No Task_2019_Jun_11_1655_8,-1,2019_Jun_11_1655,Yes-No Task,1,RORE28,
Yes-No Task,8,0,8,0,3.0,-1,False Alarm,0.600512035657,False,-1,stimulus_RORE28_Yes-No Task_2019_Jun_11_1655_9,-1,2019_Jun_11_1655,Yes-No Task,1,RORE28,
Yes-No Task,9,0,9,0,3.0,-1,Miss,0.533663304523,True,-1,stimulus_RORE28_Yes-No Task_2019_Jun_11_1655_10,-1,2019_Jun_11_1655,Yes-No Task,1,RORE28,
Yes-No Task,10,0,10,0,3.0,-1,Correct Rejection,0.669364652131,False,-1,stimulus_RORE28_Yes-No Task_2019_Jun_11_1655_11,-1,2019_Jun_11_1655,Yes-No Task,1,RORE28,
Yes-No Task,11,0,11,0,3.0,-1,Miss,0.568169464357,True,-1,stimulus_RORE28_Yes-No Task_2019_Jun_11_1655_12,-1,2019_Jun_11_1655,Yes-No Task,1,RORE28,
Yes-No Task,12,0,12,0,3.0,-1,Hit,0.633797636256,True,-1,stimulus_RORE28_Yes-No Task_2019_Jun_11_1655_13,-1,2019_Jun_11_1655,Yes-No Task,1,RORE28,
Yes-No Task,13,0,13,0,3.0,-1,Correct Rejection,0.567194412462,False,-1,stimulus_RORE28_Yes-No Task_2019_Jun_11_1655_14,-1,2019_Jun_11_1655,Yes-No Task,1,RORE28,
Yes-No Task,14,0,14,0,3.0,-1,Hit,0.635671377648,True,-1,stimulus_RORE28_Yes-No Task_2019_Jun_11_1655_15,-1,2019_Jun_11_1655,Yes-No Task,1,RORE28,
Yes-No Task,15,0,15,0,3.0,-1,Miss,0.501267772634,True,-1,stimulus_RORE28_Yes-No Task_2019_Jun_11_1655_16,-1,2019_Jun_11_1655,Yes-No Task,1,RORE28,
Yes-No Task,16,0,16,0,3.0,-1,False Alarm,0.70079252217,False,-1,stimulus_RORE28_Yes-No Task_2019_Jun_11_1655_17,-1,2019_Jun_11_1655,Yes-No Task,1,RORE28,
Yes-No Task,17,0,17,0,3.0,-1,False Alarm,0.733469279483,False,-1,stimulus_RORE28_Yes-No Task_2019_Jun_11_1655_18,-1,2019_Jun_11_1655,Yes-No Task,1,RORE28,
Yes-No Task,18,0,18,0,3.0,-1,Correct Rejection,0.603418716229,False,-1,stimulus_RORE28_Yes-No Task_2019_Jun_11_1655_19,-1,2019_Jun_11_1655,Yes-No Task,1,RORE28,
Yes-No Task,19,0,19,0,3.0,-1,False Alarm,0.868568763603,False,-1,stimulus_RORE28_Yes-No Task_2019_Jun_11_1655_20,-1,2019_Jun_11_1655,Yes-No Task,1,RORE28,
Yes-No Task,20,0,20,0,3.0,-1,Hit,0.601783092599,True,-1,stimulus_RORE28_Yes-No Task_2019_Jun_11_1655_21,-1,2019_Jun_11_1655,Yes-No Task,1,RORE28,
Yes-No Task,21,0,21,0,3.0,-1,Miss,0.503009317908,True,-1,stimulus_RORE28_Yes-No Task_2019_Jun_11_1655_22,-1,2019_Jun_11_1655,Yes-No Task,1,RORE28,
Yes-No Task,22,0,22,0,3.0,-1,Correct Rejection,0.49877615599,False,-1,stimulus_RORE28_Yes-No Task_2019_Jun_11_1655_23,-1,2019_Jun_11_1655,Yes-No Task,1,RORE28,
Yes-No Task,23,0,23,0,3.0,-1,Correct Rejection,0.573717611842,False,-1,stimulus_RORE28_Yes-No Task_2019_Jun_11_1655_24,-1,2019_Jun_11_1655,Yes-No Task,1,RORE28,
Yes-No Task,24,0,24,0,3.0,-1,Hit,0.635573256761,True,-1,stimulus_RORE28_Yes-No Task_2019_Jun_11_1655_25,-1,2019_Jun_11_1655,Yes-No Task,1,RORE28,
Yes-No Task,25,0,25,0,3.0,-1,Miss,0.56506859418,True,-1,stimulus_RORE28_Yes-No Task_2019_Jun_11_1655_26,-1,2019_Jun_11_1655,Yes-No Task,1,RORE28,
Yes-No Task,26,0,26,0,3.0,-1,False Alarm,0.467858597636,False,-1,stimulus_RORE28_Yes-No Task_2019_Jun_11_1655_27,-1,2019_Jun_11_1655,Yes-No Task,1,RORE28,
Yes-No Task,27,0,27,0,3.0,-1,Hit,0.772801843006,True,-1,stimulus_RORE28_Yes-No Task_2019_Jun_11_1655_28,-1,2019_Jun_11_1655,Yes-No Task,1,RORE28,
Yes-No Task,28,0,28,0,3.0,-1,Correct Rejection,0.701606639195,False,-1,stimulus_RORE28_Yes-No Task_2019_Jun_11_1655_29,-1,2019_Jun_11_1655,Yes-No Task,1,RORE28,
Yes-No Task,29,0,29,0,3.0,-1,Correct Rejection,0.53373843478,False,-1,stimulus_RORE28_Yes-No Task_2019_Jun_11_1655_30,-1,2019_Jun_11_1655,Yes-No Task,1,RORE28,
Yes-No Task,30,0,30,0,3.0,-1,Hit,0.599619504064,True,-1,stimulus_RORE28_Yes-No Task_2019_Jun_11_1655_31,-1,2019_Jun_11_1655,Yes-No Task,1,RORE28,
Yes-No Task,31,0,31,0,3.0,-1,Correct Rejection,0.533116864972,False,-1,stimulus_RORE28_Yes-No Task_2019_Jun_11_1655_32,-1,2019_Jun_11_1655,Yes-No Task,1,RORE28,
Yes-No Task,32,0,32,0,3.0,-1,Miss,0.466764897108,True,-1,stimulus_RORE28_Yes-No Task_2019_Jun_11_1655_33,-1,2019_Jun_11_1655,Yes-No Task,1,RORE28,
Yes-No Task,33,0,33,0,3.0,-1,Miss,0.758622742258,True,-1,stimulus_RORE28_Yes-No Task_2019_Jun_11_1655_34,-1,2019_Jun_11_1655,Yes-No Task,1,RORE28,
Yes-No Task,34,0,34,0,3.0,-1,Correct Rejection,0.800808615517,False,-1,stimulus_RORE28_Yes-No Task_2019_Jun_11_1655_35,-1,2019_Jun_11_1655,Yes-No Task,1,RORE28,
Yes-No Task,35,0,35,0,3.0,-1,Correct Rejection,0.554232176393,False,-1,stimulus_RORE28_Yes-No Task_2019_Jun_11_1655_36,-1,2019_Jun_11_1655,Yes-No Task,1,RORE28,
Yes-No Task,36,0,36,0,3.0,-1,Hit,0.498533932492,True,-1,stimulus_RORE28_Yes-No Task_2019_Jun_11_1655_37,-1,2019_Jun_11_1655,Yes-No Task,1,RORE28,
Yes-No Task,37,0,37,0,3.0,-1,Hit,0.636110253166,True,-1,stimulus_RORE28_Yes-No Task_2019_Jun_11_1655_38,-1,2019_Jun_11_1655,Yes-No Task,1,RORE28,
Yes-No Task,38,0,38,0,3.0,-1,Correct Rejection,0.768543638289,False,-1,stimulus_RORE28_Yes-No Task_2019_Jun_11_1655_39,-1,2019_Jun_11_1655,Yes-No Task,1,RORE28,
Yes-No Task,39,0,39,0,3.0,-1,Miss,0.633514357731,True,-1,stimulus_RORE28_Yes-No Task_2019_Jun_11_1655_40,-1,2019_Jun_11_1655,Yes-No Task,1,RORE28,
