Task,trials.thisRepN,trials.thisTrialN,trials.thisN,trials.thisIndex,signal_intensity,constant Value,response,time_response,signal_on_stimuluspos1,signal_on_stimuluspos2,stimulus_name_pos1,stimulus_name_pos2,random_intensity,date,expName,session,participant,
Yes-No Task,0,0,0,0,9,-1,Correct Rejection,0.467112200102,False,-1,stimulus_WOAN27_Yes-No Task_2019_Jun_12_1453_1,-1,False,2019_Jun_12_1453,Yes-No Task,1,WOAN27,
Yes-No Task,1,0,1,0,9,-1,Correct Rejection,0.367129700026,False,-1,stimulus_WOAN27_Yes-No Task_2019_Jun_12_1453_2,-1,False,2019_Jun_12_1453,Yes-No Task,1,WOAN27,
Yes-No Task,2,0,2,0,9,-1,Miss,0.4337696,True,-1,stimulus_WOAN27_Yes-No Task_2019_Jun_12_1453_3,-1,False,2019_Jun_12_1453,Yes-No Task,1,WOAN27,
Yes-No Task,3,0,3,0,9,-1,Miss,0.433850199915,True,-1,stimulus_WOAN27_Yes-No Task_2019_Jun_12_1453_4,-1,False,2019_Jun_12_1453,Yes-No Task,1,WOAN27,
Yes-No Task,4,0,4,0,9,-1,Hit,0.467644699849,True,-1,stimulus_WOAN27_Yes-No Task_2019_Jun_12_1453_5,-1,False,2019_Jun_12_1453,Yes-No Task,1,WOAN27,
Yes-No Task,5,0,5,0,9,-1,Correct Rejection,0.434272400104,False,-1,stimulus_WOAN27_Yes-No Task_2019_Jun_12_1453_6,-1,False,2019_Jun_12_1453,Yes-No Task,1,WOAN27,
Yes-No Task,6,0,6,0,9,-1,Miss,0.43266270007,True,-1,stimulus_WOAN27_Yes-No Task_2019_Jun_12_1453_7,-1,False,2019_Jun_12_1453,Yes-No Task,1,WOAN27,
Yes-No Task,7,0,7,0,9,-1,Hit,0.434183200123,True,-1,stimulus_WOAN27_Yes-No Task_2019_Jun_12_1453_8,-1,False,2019_Jun_12_1453,Yes-No Task,1,WOAN27,
Yes-No Task,8,0,8,0,9,-1,Miss,0.401369699975,True,-1,stimulus_WOAN27_Yes-No Task_2019_Jun_12_1453_9,-1,False,2019_Jun_12_1453,Yes-No Task,1,WOAN27,
Yes-No Task,9,0,9,0,9,-1,Hit,0.497059700079,True,-1,stimulus_WOAN27_Yes-No Task_2019_Jun_12_1453_10,-1,False,2019_Jun_12_1453,Yes-No Task,1,WOAN27,
Yes-No Task,10,0,10,0,9,-1,Correct Rejection,0.434703700012,False,-1,stimulus_WOAN27_Yes-No Task_2019_Jun_12_1453_11,-1,False,2019_Jun_12_1453,Yes-No Task,1,WOAN27,
Yes-No Task,11,0,11,0,9,-1,Miss,0.432997300057,True,-1,stimulus_WOAN27_Yes-No Task_2019_Jun_12_1453_12,-1,False,2019_Jun_12_1453,Yes-No Task,1,WOAN27,
Yes-No Task,12,0,12,0,9,-1,Correct Rejection,0.436025799951,False,-1,stimulus_WOAN27_Yes-No Task_2019_Jun_12_1453_13,-1,False,2019_Jun_12_1453,Yes-No Task,1,WOAN27,
Yes-No Task,13,0,13,0,9,-1,Hit,0.334030100144,True,-1,stimulus_WOAN27_Yes-No Task_2019_Jun_12_1453_14,-1,False,2019_Jun_12_1453,Yes-No Task,1,WOAN27,
Yes-No Task,14,0,14,0,9,-1,Correct Rejection,0.366924199974,False,-1,stimulus_WOAN27_Yes-No Task_2019_Jun_12_1453_15,-1,False,2019_Jun_12_1453,Yes-No Task,1,WOAN27,
Yes-No Task,15,0,15,0,9,-1,Hit,0.367225700058,True,-1,stimulus_WOAN27_Yes-No Task_2019_Jun_12_1453_16,-1,False,2019_Jun_12_1453,Yes-No Task,1,WOAN27,
Yes-No Task,16,0,16,0,9,-1,Hit,0.400475000031,True,-1,stimulus_WOAN27_Yes-No Task_2019_Jun_12_1453_17,-1,False,2019_Jun_12_1453,Yes-No Task,1,WOAN27,
Yes-No Task,17,0,17,0,9,-1,Correct Rejection,0.50245229993,False,-1,stimulus_WOAN27_Yes-No Task_2019_Jun_12_1453_18,-1,False,2019_Jun_12_1453,Yes-No Task,1,WOAN27,
Yes-No Task,18,0,18,0,9,-1,Correct Rejection,0.434783699922,False,-1,stimulus_WOAN27_Yes-No Task_2019_Jun_12_1453_19,-1,False,2019_Jun_12_1453,Yes-No Task,1,WOAN27,
Yes-No Task,19,0,19,0,9,-1,False Alarm,0.334417599952,False,-1,stimulus_WOAN27_Yes-No Task_2019_Jun_12_1453_20,-1,False,2019_Jun_12_1453,Yes-No Task,1,WOAN27,
Yes-No Task,20,0,20,0,9,-1,Correct Rejection,0.500232600141,False,-1,stimulus_WOAN27_Yes-No Task_2019_Jun_12_1453_21,-1,False,2019_Jun_12_1453,Yes-No Task,1,WOAN27,
Yes-No Task,21,0,21,0,9,-1,Hit,0.401893300004,True,-1,stimulus_WOAN27_Yes-No Task_2019_Jun_12_1453_22,-1,False,2019_Jun_12_1453,Yes-No Task,1,WOAN27,
Yes-No Task,22,0,22,0,9,-1,Hit,0.398424600018,True,-1,stimulus_WOAN27_Yes-No Task_2019_Jun_12_1453_23,-1,False,2019_Jun_12_1453,Yes-No Task,1,WOAN27,
Yes-No Task,23,0,23,0,9,-1,Correct Rejection,0.400952600176,False,-1,stimulus_WOAN27_Yes-No Task_2019_Jun_12_1453_24,-1,False,2019_Jun_12_1453,Yes-No Task,1,WOAN27,
Yes-No Task,24,0,24,0,9,-1,Hit,0.36718190019,True,-1,stimulus_WOAN27_Yes-No Task_2019_Jun_12_1453_25,-1,False,2019_Jun_12_1453,Yes-No Task,1,WOAN27,
Yes-No Task,25,0,25,0,9,-1,False Alarm,0.432321900036,False,-1,stimulus_WOAN27_Yes-No Task_2019_Jun_12_1453_26,-1,False,2019_Jun_12_1453,Yes-No Task,1,WOAN27,
Yes-No Task,26,0,26,0,9,-1,Correct Rejection,0.399601700017,False,-1,stimulus_WOAN27_Yes-No Task_2019_Jun_12_1453_27,-1,False,2019_Jun_12_1453,Yes-No Task,1,WOAN27,
Yes-No Task,27,0,27,0,9,-1,Hit,0.467437600018,True,-1,stimulus_WOAN27_Yes-No Task_2019_Jun_12_1453_28,-1,False,2019_Jun_12_1453,Yes-No Task,1,WOAN27,
Yes-No Task,28,0,28,0,9,-1,Correct Rejection,0.367761599831,False,-1,stimulus_WOAN27_Yes-No Task_2019_Jun_12_1453_29,-1,False,2019_Jun_12_1453,Yes-No Task,1,WOAN27,
Yes-No Task,29,0,29,0,9,-1,Correct Rejection,0.400677699829,False,-1,stimulus_WOAN27_Yes-No Task_2019_Jun_12_1453_30,-1,False,2019_Jun_12_1453,Yes-No Task,1,WOAN27,
Yes-No Task,0,0,0,0,6,-1,Miss,0.433930399828,True,-1,stimulus_WOAN27_Yes-No Task_2019_Jun_12_1453_31,-1,False,2019_Jun_12_1453,Yes-No Task,1,WOAN27,
Yes-No Task,1,0,1,0,6,-1,Correct Rejection,0.667379900115,False,-1,stimulus_WOAN27_Yes-No Task_2019_Jun_12_1453_32,-1,False,2019_Jun_12_1453,Yes-No Task,1,WOAN27,
Yes-No Task,2,0,2,0,6,-1,Hit,0.534973700065,True,-1,stimulus_WOAN27_Yes-No Task_2019_Jun_12_1453_33,-1,False,2019_Jun_12_1453,Yes-No Task,1,WOAN27,
Yes-No Task,3,0,3,0,6,-1,Miss,0.335071499925,True,-1,stimulus_WOAN27_Yes-No Task_2019_Jun_12_1453_34,-1,False,2019_Jun_12_1453,Yes-No Task,1,WOAN27,
Yes-No Task,4,0,4,0,6,-1,Correct Rejection,0.700736499857,False,-1,stimulus_WOAN27_Yes-No Task_2019_Jun_12_1453_35,-1,False,2019_Jun_12_1453,Yes-No Task,1,WOAN27,
Yes-No Task,5,0,5,0,6,-1,Hit,0.335186099866,True,-1,stimulus_WOAN27_Yes-No Task_2019_Jun_12_1453_36,-1,False,2019_Jun_12_1453,Yes-No Task,1,WOAN27,
Yes-No Task,6,0,6,0,6,-1,Correct Rejection,0.534975500079,False,-1,stimulus_WOAN27_Yes-No Task_2019_Jun_12_1453_37,-1,False,2019_Jun_12_1453,Yes-No Task,1,WOAN27,
Yes-No Task,7,0,7,0,6,-1,Hit,0.401731699938,True,-1,stimulus_WOAN27_Yes-No Task_2019_Jun_12_1453_38,-1,False,2019_Jun_12_1453,Yes-No Task,1,WOAN27,
Yes-No Task,8,0,8,0,6,-1,Miss,0.334341299953,True,-1,stimulus_WOAN27_Yes-No Task_2019_Jun_12_1453_39,-1,False,2019_Jun_12_1453,Yes-No Task,1,WOAN27,
Yes-No Task,9,0,9,0,6,-1,Hit,0.300044799922,True,-1,stimulus_WOAN27_Yes-No Task_2019_Jun_12_1453_40,-1,False,2019_Jun_12_1453,Yes-No Task,1,WOAN27,
Yes-No Task,10,0,10,0,6,-1,Correct Rejection,0.5002731001,False,-1,stimulus_WOAN27_Yes-No Task_2019_Jun_12_1453_41,-1,False,2019_Jun_12_1453,Yes-No Task,1,WOAN27,
Yes-No Task,11,0,11,0,6,-1,False Alarm,0.367609099951,False,-1,stimulus_WOAN27_Yes-No Task_2019_Jun_12_1453_42,-1,False,2019_Jun_12_1453,Yes-No Task,1,WOAN27,
Yes-No Task,12,0,12,0,6,-1,Miss,0.368957399856,True,-1,stimulus_WOAN27_Yes-No Task_2019_Jun_12_1453_43,-1,False,2019_Jun_12_1453,Yes-No Task,1,WOAN27,
Yes-No Task,13,0,13,0,6,-1,Miss,0.333905099891,True,-1,stimulus_WOAN27_Yes-No Task_2019_Jun_12_1453_44,-1,False,2019_Jun_12_1453,Yes-No Task,1,WOAN27,
Yes-No Task,14,0,14,0,6,-1,False Alarm,0.466344899964,False,-1,stimulus_WOAN27_Yes-No Task_2019_Jun_12_1453_45,-1,False,2019_Jun_12_1453,Yes-No Task,1,WOAN27,
Yes-No Task,15,0,15,0,6,-1,Correct Rejection,0.533492699964,False,-1,stimulus_WOAN27_Yes-No Task_2019_Jun_12_1453_46,-1,False,2019_Jun_12_1453,Yes-No Task,1,WOAN27,
Yes-No Task,16,0,16,0,6,-1,Correct Rejection,0.433434600011,False,-1,stimulus_WOAN27_Yes-No Task_2019_Jun_12_1453_47,-1,False,2019_Jun_12_1453,Yes-No Task,1,WOAN27,
Yes-No Task,17,0,17,0,6,-1,Hit,0.500282499939,True,-1,stimulus_WOAN27_Yes-No Task_2019_Jun_12_1453_48,-1,False,2019_Jun_12_1453,Yes-No Task,1,WOAN27,
Yes-No Task,18,0,18,0,6,-1,Correct Rejection,0.333664099919,False,-1,stimulus_WOAN27_Yes-No Task_2019_Jun_12_1453_49,-1,False,2019_Jun_12_1453,Yes-No Task,1,WOAN27,
Yes-No Task,19,0,19,0,6,-1,Hit,0.333283299813,True,-1,stimulus_WOAN27_Yes-No Task_2019_Jun_12_1453_50,-1,False,2019_Jun_12_1453,Yes-No Task,1,WOAN27,
Yes-No Task,20,0,20,0,6,-1,Correct Rejection,0.499794499949,False,-1,stimulus_WOAN27_Yes-No Task_2019_Jun_12_1453_51,-1,False,2019_Jun_12_1453,Yes-No Task,1,WOAN27,
Yes-No Task,21,0,21,0,6,-1,False Alarm,0.367034499999,False,-1,stimulus_WOAN27_Yes-No Task_2019_Jun_12_1453_52,-1,False,2019_Jun_12_1453,Yes-No Task,1,WOAN27,
Yes-No Task,22,0,22,0,6,-1,Miss,0.466974799987,True,-1,stimulus_WOAN27_Yes-No Task_2019_Jun_12_1453_53,-1,False,2019_Jun_12_1453,Yes-No Task,1,WOAN27,
Yes-No Task,23,0,23,0,6,-1,Miss,0.333946600091,True,-1,stimulus_WOAN27_Yes-No Task_2019_Jun_12_1453_54,-1,False,2019_Jun_12_1453,Yes-No Task,1,WOAN27,
Yes-No Task,24,0,24,0,6,-1,Miss,0.402678100159,True,-1,stimulus_WOAN27_Yes-No Task_2019_Jun_12_1453_55,-1,False,2019_Jun_12_1453,Yes-No Task,1,WOAN27,
Yes-No Task,25,0,25,0,6,-1,Miss,0.434691700153,True,-1,stimulus_WOAN27_Yes-No Task_2019_Jun_12_1453_56,-1,False,2019_Jun_12_1453,Yes-No Task,1,WOAN27,
Yes-No Task,26,0,26,0,6,-1,Hit,0.36773269996,True,-1,stimulus_WOAN27_Yes-No Task_2019_Jun_12_1453_57,-1,False,2019_Jun_12_1453,Yes-No Task,1,WOAN27,
Yes-No Task,27,0,27,0,6,-1,Hit,0.500502200099,True,-1,stimulus_WOAN27_Yes-No Task_2019_Jun_12_1453_58,-1,False,2019_Jun_12_1453,Yes-No Task,1,WOAN27,
Yes-No Task,28,0,28,0,6,-1,Correct Rejection,0.365105999867,False,-1,stimulus_WOAN27_Yes-No Task_2019_Jun_12_1453_59,-1,False,2019_Jun_12_1453,Yes-No Task,1,WOAN27,
Yes-No Task,29,0,29,0,6,-1,Correct Rejection,0.567450199975,False,-1,stimulus_WOAN27_Yes-No Task_2019_Jun_12_1453_60,-1,False,2019_Jun_12_1453,Yes-No Task,1,WOAN27,
Yes-No Task,0,0,0,0,12,-1,Hit,0.467318400042,True,-1,stimulus_WOAN27_Yes-No Task_2019_Jun_12_1453_61,-1,False,2019_Jun_12_1453,Yes-No Task,1,WOAN27,
Yes-No Task,1,0,1,0,12,-1,Correct Rejection,0.433596800081,False,-1,stimulus_WOAN27_Yes-No Task_2019_Jun_12_1453_62,-1,False,2019_Jun_12_1453,Yes-No Task,1,WOAN27,
Yes-No Task,2,0,2,0,12,-1,Hit,0.333547400078,True,-1,stimulus_WOAN27_Yes-No Task_2019_Jun_12_1453_63,-1,False,2019_Jun_12_1453,Yes-No Task,1,WOAN27,
Yes-No Task,3,0,3,0,12,-1,Correct Rejection,0.367338399868,False,-1,stimulus_WOAN27_Yes-No Task_2019_Jun_12_1453_64,-1,False,2019_Jun_12_1453,Yes-No Task,1,WOAN27,
Yes-No Task,4,0,4,0,12,-1,False Alarm,0.333056200063,False,-1,stimulus_WOAN27_Yes-No Task_2019_Jun_12_1453_65,-1,False,2019_Jun_12_1453,Yes-No Task,1,WOAN27,
Yes-No Task,5,0,5,0,12,-1,False Alarm,0.368285400094,False,-1,stimulus_WOAN27_Yes-No Task_2019_Jun_12_1453_66,-1,False,2019_Jun_12_1453,Yes-No Task,1,WOAN27,
Yes-No Task,6,0,6,0,12,-1,Miss,0.398191899993,True,-1,stimulus_WOAN27_Yes-No Task_2019_Jun_12_1453_67,-1,False,2019_Jun_12_1453,Yes-No Task,1,WOAN27,
Yes-No Task,7,0,7,0,12,-1,Hit,0.469093200052,True,-1,stimulus_WOAN27_Yes-No Task_2019_Jun_12_1453_68,-1,False,2019_Jun_12_1453,Yes-No Task,1,WOAN27,
Yes-No Task,8,0,8,0,12,-1,Miss,0.434135799995,True,-1,stimulus_WOAN27_Yes-No Task_2019_Jun_12_1453_69,-1,False,2019_Jun_12_1453,Yes-No Task,1,WOAN27,
Yes-No Task,9,0,9,0,12,-1,Hit,0.503229100024,True,-1,stimulus_WOAN27_Yes-No Task_2019_Jun_12_1453_70,-1,False,2019_Jun_12_1453,Yes-No Task,1,WOAN27,
Yes-No Task,10,0,10,0,12,-1,Correct Rejection,0.401202099863,False,-1,stimulus_WOAN27_Yes-No Task_2019_Jun_12_1453_71,-1,False,2019_Jun_12_1453,Yes-No Task,1,WOAN27,
Yes-No Task,11,0,11,0,12,-1,Correct Rejection,0.501183599932,False,-1,stimulus_WOAN27_Yes-No Task_2019_Jun_12_1453_72,-1,False,2019_Jun_12_1453,Yes-No Task,1,WOAN27,
Yes-No Task,12,0,12,0,12,-1,Correct Rejection,0.500529600075,False,-1,stimulus_WOAN27_Yes-No Task_2019_Jun_12_1453_73,-1,False,2019_Jun_12_1453,Yes-No Task,1,WOAN27,
Yes-No Task,13,0,13,0,12,-1,Correct Rejection,0.599055599887,False,-1,stimulus_WOAN27_Yes-No Task_2019_Jun_12_1453_74,-1,False,2019_Jun_12_1453,Yes-No Task,1,WOAN27,
Yes-No Task,14,0,14,0,12,-1,Correct Rejection,0.400416100165,False,-1,stimulus_WOAN27_Yes-No Task_2019_Jun_12_1453_75,-1,False,2019_Jun_12_1453,Yes-No Task,1,WOAN27,
Yes-No Task,15,0,15,0,12,-1,Correct Rejection,0.334593399893,False,-1,stimulus_WOAN27_Yes-No Task_2019_Jun_12_1453_76,-1,False,2019_Jun_12_1453,Yes-No Task,1,WOAN27,
Yes-No Task,16,0,16,0,12,-1,Hit,0.500462299911,True,-1,stimulus_WOAN27_Yes-No Task_2019_Jun_12_1453_77,-1,False,2019_Jun_12_1453,Yes-No Task,1,WOAN27,
Yes-No Task,17,0,17,0,12,-1,Correct Rejection,0.367057400057,False,-1,stimulus_WOAN27_Yes-No Task_2019_Jun_12_1453_78,-1,False,2019_Jun_12_1453,Yes-No Task,1,WOAN27,
Yes-No Task,18,0,18,0,12,-1,Hit,0.367421299918,True,-1,stimulus_WOAN27_Yes-No Task_2019_Jun_12_1453_79,-1,False,2019_Jun_12_1453,Yes-No Task,1,WOAN27,
Yes-No Task,19,0,19,0,12,-1,Hit,0.367174099898,True,-1,stimulus_WOAN27_Yes-No Task_2019_Jun_12_1453_80,-1,False,2019_Jun_12_1453,Yes-No Task,1,WOAN27,
Yes-No Task,20,0,20,0,12,-1,Hit,0.39967199997,True,-1,stimulus_WOAN27_Yes-No Task_2019_Jun_12_1453_81,-1,False,2019_Jun_12_1453,Yes-No Task,1,WOAN27,
Yes-No Task,21,0,21,0,12,-1,Hit,0.435974200023,True,-1,stimulus_WOAN27_Yes-No Task_2019_Jun_12_1453_82,-1,False,2019_Jun_12_1453,Yes-No Task,1,WOAN27,
Yes-No Task,22,0,22,0,12,-1,Correct Rejection,0.500465500169,False,-1,stimulus_WOAN27_Yes-No Task_2019_Jun_12_1453_83,-1,False,2019_Jun_12_1453,Yes-No Task,1,WOAN27,
Yes-No Task,23,0,23,0,12,-1,Correct Rejection,0.469173700083,False,-1,stimulus_WOAN27_Yes-No Task_2019_Jun_12_1453_84,-1,False,2019_Jun_12_1453,Yes-No Task,1,WOAN27,
Yes-No Task,24,0,24,0,12,-1,Correct Rejection,0.434493099805,False,-1,stimulus_WOAN27_Yes-No Task_2019_Jun_12_1453_85,-1,False,2019_Jun_12_1453,Yes-No Task,1,WOAN27,
Yes-No Task,25,0,25,0,12,-1,Correct Rejection,0.400845299941,False,-1,stimulus_WOAN27_Yes-No Task_2019_Jun_12_1453_86,-1,False,2019_Jun_12_1453,Yes-No Task,1,WOAN27,
Yes-No Task,26,0,26,0,12,-1,Hit,0.533379000146,True,-1,stimulus_WOAN27_Yes-No Task_2019_Jun_12_1453_87,-1,False,2019_Jun_12_1453,Yes-No Task,1,WOAN27,
Yes-No Task,27,0,27,0,12,-1,Hit,0.434129199944,True,-1,stimulus_WOAN27_Yes-No Task_2019_Jun_12_1453_88,-1,False,2019_Jun_12_1453,Yes-No Task,1,WOAN27,
Yes-No Task,28,0,28,0,12,-1,Hit,0.500278899912,True,-1,stimulus_WOAN27_Yes-No Task_2019_Jun_12_1453_89,-1,False,2019_Jun_12_1453,Yes-No Task,1,WOAN27,
Yes-No Task,29,0,29,0,12,-1,Correct Rejection,0.500808299985,False,-1,stimulus_WOAN27_Yes-No Task_2019_Jun_12_1453_90,-1,False,2019_Jun_12_1453,Yes-No Task,1,WOAN27,
Yes-No Task,0,0,0,0,3,-1,Miss,0.567983200075,True,-1,stimulus_WOAN27_Yes-No Task_2019_Jun_12_1453_91,-1,False,2019_Jun_12_1453,Yes-No Task,1,WOAN27,
Yes-No Task,1,0,1,0,3,-1,Correct Rejection,0.468775300076,False,-1,stimulus_WOAN27_Yes-No Task_2019_Jun_12_1453_92,-1,False,2019_Jun_12_1453,Yes-No Task,1,WOAN27,
Yes-No Task,2,0,2,0,3,-1,Miss,0.43303960003,True,-1,stimulus_WOAN27_Yes-No Task_2019_Jun_12_1453_93,-1,False,2019_Jun_12_1453,Yes-No Task,1,WOAN27,
Yes-No Task,3,0,3,0,3,-1,Correct Rejection,0.434184500016,False,-1,stimulus_WOAN27_Yes-No Task_2019_Jun_12_1453_94,-1,False,2019_Jun_12_1453,Yes-No Task,1,WOAN27,
Yes-No Task,4,0,4,0,3,-1,Hit,0.366968499962,True,-1,stimulus_WOAN27_Yes-No Task_2019_Jun_12_1453_95,-1,False,2019_Jun_12_1453,Yes-No Task,1,WOAN27,
Yes-No Task,5,0,5,0,3,-1,Miss,0.367079899879,True,-1,stimulus_WOAN27_Yes-No Task_2019_Jun_12_1453_96,-1,False,2019_Jun_12_1453,Yes-No Task,1,WOAN27,
Yes-No Task,6,0,6,0,3,-1,Correct Rejection,0.333947200095,False,-1,stimulus_WOAN27_Yes-No Task_2019_Jun_12_1453_97,-1,False,2019_Jun_12_1453,Yes-No Task,1,WOAN27,
Yes-No Task,7,0,7,0,3,-1,Correct Rejection,0.43354150001,False,-1,stimulus_WOAN27_Yes-No Task_2019_Jun_12_1453_98,-1,False,2019_Jun_12_1453,Yes-No Task,1,WOAN27,
Yes-No Task,8,0,8,0,3,-1,Hit,0.333965500118,True,-1,stimulus_WOAN27_Yes-No Task_2019_Jun_12_1453_99,-1,False,2019_Jun_12_1453,Yes-No Task,1,WOAN27,
Yes-No Task,9,0,9,0,3,-1,Correct Rejection,0.168113700114,False,-1,stimulus_WOAN27_Yes-No Task_2019_Jun_12_1453_100,-1,False,2019_Jun_12_1453,Yes-No Task,1,WOAN27,
Yes-No Task,10,0,10,0,3,-1,Miss,0.399886199972,True,-1,stimulus_WOAN27_Yes-No Task_2019_Jun_12_1453_101,-1,False,2019_Jun_12_1453,Yes-No Task,1,WOAN27,
Yes-No Task,11,0,11,0,3,-1,Miss,0.266989999916,True,-1,stimulus_WOAN27_Yes-No Task_2019_Jun_12_1453_102,-1,False,2019_Jun_12_1453,Yes-No Task,1,WOAN27,
Yes-No Task,12,0,12,0,3,-1,Correct Rejection,0.233670499874,False,-1,stimulus_WOAN27_Yes-No Task_2019_Jun_12_1453_103,-1,False,2019_Jun_12_1453,Yes-No Task,1,WOAN27,
Yes-No Task,13,0,13,0,3,-1,Correct Rejection,0.36524110008,False,-1,stimulus_WOAN27_Yes-No Task_2019_Jun_12_1453_104,-1,False,2019_Jun_12_1453,Yes-No Task,1,WOAN27,
Yes-No Task,14,0,14,0,3,-1,False Alarm,0.233064000029,False,-1,stimulus_WOAN27_Yes-No Task_2019_Jun_12_1453_105,-1,False,2019_Jun_12_1453,Yes-No Task,1,WOAN27,
Yes-No Task,15,0,15,0,3,-1,Miss,0.200992800063,True,-1,stimulus_WOAN27_Yes-No Task_2019_Jun_12_1453_106,-1,False,2019_Jun_12_1453,Yes-No Task,1,WOAN27,
Yes-No Task,16,0,16,0,3,-1,Hit,0.467198600061,True,-1,stimulus_WOAN27_Yes-No Task_2019_Jun_12_1453_107,-1,False,2019_Jun_12_1453,Yes-No Task,1,WOAN27,
Yes-No Task,17,0,17,0,3,-1,Correct Rejection,0.334037699969,False,-1,stimulus_WOAN27_Yes-No Task_2019_Jun_12_1453_108,-1,False,2019_Jun_12_1453,Yes-No Task,1,WOAN27,
Yes-No Task,18,0,18,0,3,-1,Correct Rejection,0.500270099845,False,-1,stimulus_WOAN27_Yes-No Task_2019_Jun_12_1453_109,-1,False,2019_Jun_12_1453,Yes-No Task,1,WOAN27,
Yes-No Task,19,0,19,0,3,-1,Hit,0.401347100036,True,-1,stimulus_WOAN27_Yes-No Task_2019_Jun_12_1453_110,-1,False,2019_Jun_12_1453,Yes-No Task,1,WOAN27,
Yes-No Task,20,0,20,0,3,-1,Correct Rejection,0.334622200113,False,-1,stimulus_WOAN27_Yes-No Task_2019_Jun_12_1453_111,-1,False,2019_Jun_12_1453,Yes-No Task,1,WOAN27,
Yes-No Task,21,0,21,0,3,-1,False Alarm,0.299750499893,False,-1,stimulus_WOAN27_Yes-No Task_2019_Jun_12_1453_112,-1,False,2019_Jun_12_1453,Yes-No Task,1,WOAN27,
Yes-No Task,22,0,22,0,3,-1,Miss,0.200216899859,True,-1,stimulus_WOAN27_Yes-No Task_2019_Jun_12_1453_113,-1,False,2019_Jun_12_1453,Yes-No Task,1,WOAN27,
Yes-No Task,23,0,23,0,3,-1,Hit,0.533729899907,True,-1,stimulus_WOAN27_Yes-No Task_2019_Jun_12_1453_114,-1,False,2019_Jun_12_1453,Yes-No Task,1,WOAN27,
Yes-No Task,24,0,24,0,3,-1,Correct Rejection,0.333704399876,False,-1,stimulus_WOAN27_Yes-No Task_2019_Jun_12_1453_115,-1,False,2019_Jun_12_1453,Yes-No Task,1,WOAN27,
Yes-No Task,25,0,25,0,3,-1,Hit,0.300075799925,True,-1,stimulus_WOAN27_Yes-No Task_2019_Jun_12_1453_116,-1,False,2019_Jun_12_1453,Yes-No Task,1,WOAN27,
Yes-No Task,26,0,26,0,3,-1,Miss,0.333694700152,True,-1,stimulus_WOAN27_Yes-No Task_2019_Jun_12_1453_117,-1,False,2019_Jun_12_1453,Yes-No Task,1,WOAN27,
Yes-No Task,27,0,27,0,3,-1,Hit,0.433092900086,True,-1,stimulus_WOAN27_Yes-No Task_2019_Jun_12_1453_118,-1,False,2019_Jun_12_1453,Yes-No Task,1,WOAN27,
Yes-No Task,28,0,28,0,3,-1,False Alarm,0.368854600005,False,-1,stimulus_WOAN27_Yes-No Task_2019_Jun_12_1453_119,-1,False,2019_Jun_12_1453,Yes-No Task,1,WOAN27,
Yes-No Task,29,0,29,0,3,-1,Miss,0.334612100152,True,-1,stimulus_WOAN27_Yes-No Task_2019_Jun_12_1453_120,-1,False,2019_Jun_12_1453,Yes-No Task,1,WOAN27,
